[{"success":true,"timeout":false,"failed_images":[],"failed_audio":[],"failed_video":[],"trial_type":"preload","trial_index":0,"time_elapsed":1039,"internal_node_id":"0.0-0.0","prolific_id":"55ea70c37480920010aa9982","session_id":"643c24e5495da8126217377c","study_id":"64370a36d30bfa807bc7e43c"},{"rt":26290,"stimulus":"\n\t\t\t\t\t<p>Welcome and thank you for participating in this study!</p>\n\t\t\t\t\t<p>In each trial, you will be given a trivia question and then be asked to:</p><br>\n\t\t\t\t\t<div class=\"list\">\n\t\t\t\t\t<p>1) Predict the answer</p>\n\t\t\t\t\t<p>2) Rate how much you already know about the topic</p>\n\t\t\t\t\t<p>3) Rate how much you want to know the answer</p>\n\t\t\t\t\t</div>\n\t\t\t\t\t<br>\n\t\t\t\t\t<p>Then, you will see a card that flips over to reveal the answer.</p>\n\t\t\t\t\t<br>\n\t\t\t\t\t<p>Let's try a practice round. Press <span style=\"color: red\"><strong>any key</strong></span> to move to the next slide</p>\n\t\t\t\t\t","response":" ","trial_type":"html-keyboard-response","trial_index":1,"time_elapsed":27330,"internal_node_id":"0.0-1.0","prolific_id":"55ea70c37480920010aa9982","session_id":"643c24e5495da8126217377c","study_id":"64370a36d30bfa807bc7e43c"},{"rt":9582,"response":{"practice prediction":"6"},"task":"practice","trial_type":"survey-text","trial_index":2,"time_elapsed":36921,"internal_node_id":"0.0-2.0-0.0","prolific_id":"55ea70c37480920010aa9982","session_id":"643c24e5495da8126217377c","study_id":"64370a36d30bfa807bc7e43c"},{"rt":8597,"response":{"practice":4},"accuracy":[],"trial_type":"survey","trial_index":3,"time_elapsed":45533,"internal_node_id":"0.0-2.0-1.0","prolific_id":"55ea70c37480920010aa9982","session_id":"643c24e5495da8126217377c","study_id":"64370a36d30bfa807bc7e43c"},{"rt":null,"stimulus":"\n\t\t\t\t<div class=\"flip_card\">\n\t\t\t\t\t<div class=\"flip_card_inner\">\n\t\t\t\t\t\t<div class=\"flip_card_front\">\n\t\t\t\t\t\t\t<img src=img/practice.png>\n\t\t\t\t\t\t</div>\n\t\t\t\t\t\t<div class=\"flip_card_back\">\n\t\t\t\t\t\t\t<h2>\"How many legs does a lobster have?\"</h2>\n\t\t\t\t\t\t    <br>\n\t\t\t\t\t\t    <p>Answer: <strong>\"10\"</strong></p>\n\t\t\t\t\t    </div>\n\t\t\t\t    </div>\n\t\t\t    </div>\n\t\t\t\t","response":null,"trial_type":"html-keyboard-response","trial_index":4,"time_elapsed":50534,"internal_node_id":"0.0-2.0-2.0","prolific_id":"55ea70c37480920010aa9982","session_id":"643c24e5495da8126217377c","study_id":"64370a36d30bfa807bc7e43c"},{"rt":1763,"stimulus":"\n\t\t\t\t\t<div>\n\t\t\t\t\t<h2>The practice round is over</h2>\n\t\t\t\t\t<p>Press <span style=\"color: red\"><strong>any key</strong></span> to continue to the actual trials</p>\n\t\t\t\t\t<p>Good Luck!</p>\n\t\t\t\t\t</div>\n\t\t\t\t\t","response":" ","trial_type":"html-keyboard-response","trial_index":5,"time_elapsed":52298,"internal_node_id":"0.0-2.0-3.0","prolific_id":"55ea70c37480920010aa9982","session_id":"643c24e5495da8126217377c","study_id":"64370a36d30bfa807bc7e43c"},{"rt":11638,"response":{"prediction":"2"},"trial_type":"survey-text","trial_index":6,"time_elapsed":63941,"internal_node_id":"0.0-3.0-0.0","prolific_id":"55ea70c37480920010aa9982","session_id":"643c24e5495da8126217377c","study_id":"64370a36d30bfa807bc7e43c"},{"rt":6876,"response":{"prior knowledge":1,"curiosity":4},"accuracy":[],"trial_type":"survey","trial_index":7,"time_elapsed":70823,"internal_node_id":"0.0-3.0-1.0","prolific_id":"55ea70c37480920010aa9982","session_id":"643c24e5495da8126217377c","study_id":"64370a36d30bfa807bc7e43c"},{"rt":null,"stimulus":"\n\t\t\t<div class=\"flip_card\">\n\t\t\t\t<div class=\"flip_card_inner\">\n\t\t\t\t\t<div class=\"flip_card_front\">\n\t\t\t\t\t\t<img src=img/29.png>\n\t\t\t\t\t</div>\n\t\t\t\t\t<div class=\"flip_card_back\">\n\t\t\t\t\t\t<h2>How many countries in Africa have French as the official language?</h2>\n\t\t\t\t\t\t<br>\n\t\t\t\t\t\t<p>Answer: <strong>21</strong></p>\n\t\t\t\t\t</div>\n\t\t\t\t</div>\n\t\t\t</div>\n\t\t\t","response":null,"trial_type":"html-keyboard-response","trial_index":8,"time_elapsed":75825,"internal_node_id":"0.0-3.0-2.0","prolific_id":"55ea70c37480920010aa9982","session_id":"643c24e5495da8126217377c","study_id":"64370a36d30bfa807bc7e43c"},{"rt":1177,"stimulus":"\n\t\t\t\t\t<div>\n\t\t\t\t\t<h2>Trial 1 is over</h2>\n\t\t\t\t\t<p>Press <span style=\"color: red\"><strong>any key</strong></span> to continue to the next trial</p>\n\t\t\t\t\t</div>\n\t\t\t\t","response":" ","trial_type":"html-keyboard-response","trial_index":9,"time_elapsed":77002,"internal_node_id":"0.0-3.0-3.0","prolific_id":"55ea70c37480920010aa9982","session_id":"643c24e5495da8126217377c","study_id":"64370a36d30bfa807bc7e43c"},{"rt":6480,"response":{"prediction":"2"},"trial_type":"survey-text","trial_index":10,"time_elapsed":83487,"internal_node_id":"0.0-3.0-0.1","prolific_id":"55ea70c37480920010aa9982","session_id":"643c24e5495da8126217377c","study_id":"64370a36d30bfa807bc7e43c"},{"rt":5934,"response":{"prior knowledge":0,"curiosity":2},"accuracy":[],"trial_type":"survey","trial_index":11,"time_elapsed":89428,"internal_node_id":"0.0-3.0-1.1","prolific_id":"55ea70c37480920010aa9982","session_id":"643c24e5495da8126217377c","study_id":"64370a36d30bfa807bc7e43c"},{"rt":null,"stimulus":"\n\t\t\t<div class=\"flip_card\">\n\t\t\t\t<div class=\"flip_card_inner\">\n\t\t\t\t\t<div class=\"flip_card_front\">\n\t\t\t\t\t\t<img src=img/9.png>\n\t\t\t\t\t</div>\n\t\t\t\t\t<div class=\"flip_card_back\">\n\t\t\t\t\t\t<h2>How many times a day do Muslims pray?</h2>\n\t\t\t\t\t\t<br>\n\t\t\t\t\t\t<p>Answer: <strong>5</strong></p>\n\t\t\t\t\t</div>\n\t\t\t\t</div>\n\t\t\t</div>\n\t\t\t","response":null,"trial_type":"html-keyboard-response","trial_index":12,"time_elapsed":94437,"internal_node_id":"0.0-3.0-2.1","prolific_id":"55ea70c37480920010aa9982","session_id":"643c24e5495da8126217377c","study_id":"64370a36d30bfa807bc7e43c"},{"rt":1069,"stimulus":"\n\t\t\t\t\t<div>\n\t\t\t\t\t<h2>Trial 2 is over</h2>\n\t\t\t\t\t<p>Press <span style=\"color: red\"><strong>any key</strong></span> to continue to the next trial</p>\n\t\t\t\t\t</div>\n\t\t\t\t","response":" ","trial_type":"html-keyboard-response","trial_index":13,"time_elapsed":95506,"internal_node_id":"0.0-3.0-3.1","prolific_id":"55ea70c37480920010aa9982","session_id":"643c24e5495da8126217377c","study_id":"64370a36d30bfa807bc7e43c"},{"rt":8970,"response":{"prediction":"52"},"trial_type":"survey-text","trial_index":14,"time_elapsed":104477,"internal_node_id":"0.0-3.0-0.2","prolific_id":"55ea70c37480920010aa9982","session_id":"643c24e5495da8126217377c","study_id":"64370a36d30bfa807bc7e43c"},{"rt":4335,"response":{"prior knowledge":1,"curiosity":3},"accuracy":[],"trial_type":"survey","trial_index":15,"time_elapsed":108818,"internal_node_id":"0.0-3.0-1.2","prolific_id":"55ea70c37480920010aa9982","session_id":"643c24e5495da8126217377c","study_id":"64370a36d30bfa807bc7e43c"},{"rt":null,"stimulus":"\n\t\t\t<div class=\"flip_card\">\n\t\t\t\t<div class=\"flip_card_inner\">\n\t\t\t\t\t<div class=\"flip_card_front\">\n\t\t\t\t\t\t<img src=img/15.png>\n\t\t\t\t\t</div>\n\t\t\t\t\t<div class=\"flip_card_back\">\n\t\t\t\t\t\t<h2>How many countries are in Africa?</h2>\n\t\t\t\t\t\t<br>\n\t\t\t\t\t\t<p>Answer: <strong>54</strong></p>\n\t\t\t\t\t</div>\n\t\t\t\t</div>\n\t\t\t</div>\n\t\t\t","response":null,"trial_type":"html-keyboard-response","trial_index":16,"time_elapsed":113826,"internal_node_id":"0.0-3.0-2.2","prolific_id":"55ea70c37480920010aa9982","session_id":"643c24e5495da8126217377c","study_id":"64370a36d30bfa807bc7e43c"},{"rt":1184,"stimulus":"\n\t\t\t\t\t<div>\n\t\t\t\t\t<h2>Trial 3 is over</h2>\n\t\t\t\t\t<p>Press <span style=\"color: red\"><strong>any key</strong></span> to continue to the next trial</p>\n\t\t\t\t\t</div>\n\t\t\t\t","response":" ","trial_type":"html-keyboard-response","trial_index":17,"time_elapsed":115010,"internal_node_id":"0.0-3.0-3.2","prolific_id":"55ea70c37480920010aa9982","session_id":"643c24e5495da8126217377c","study_id":"64370a36d30bfa807bc7e43c"},{"rt":6684,"response":{"prediction":"27"},"trial_type":"survey-text","trial_index":18,"time_elapsed":121695,"internal_node_id":"0.0-3.0-0.3","prolific_id":"55ea70c37480920010aa9982","session_id":"643c24e5495da8126217377c","study_id":"64370a36d30bfa807bc7e43c"},{"rt":4907,"response":{"prior knowledge":1,"curiosity":2},"accuracy":[],"trial_type":"survey","trial_index":19,"time_elapsed":126608,"internal_node_id":"0.0-3.0-1.3","prolific_id":"55ea70c37480920010aa9982","session_id":"643c24e5495da8126217377c","study_id":"64370a36d30bfa807bc7e43c"},{"rt":null,"stimulus":"\n\t\t\t<div class=\"flip_card\">\n\t\t\t\t<div class=\"flip_card_inner\">\n\t\t\t\t\t<div class=\"flip_card_front\">\n\t\t\t\t\t\t<img src=img/3.png>\n\t\t\t\t\t</div>\n\t\t\t\t\t<div class=\"flip_card_back\">\n\t\t\t\t\t\t<h2>How many books has Stephen King published?</h2>\n\t\t\t\t\t\t<br>\n\t\t\t\t\t\t<p>Answer: <strong>65</strong></p>\n\t\t\t\t\t</div>\n\t\t\t\t</div>\n\t\t\t</div>\n\t\t\t","response":null,"trial_type":"html-keyboard-response","trial_index":20,"time_elapsed":131610,"internal_node_id":"0.0-3.0-2.3","prolific_id":"55ea70c37480920010aa9982","session_id":"643c24e5495da8126217377c","study_id":"64370a36d30bfa807bc7e43c"},{"rt":880,"stimulus":"\n\t\t\t\t\t<div>\n\t\t\t\t\t<h2>Trial 4 is over</h2>\n\t\t\t\t\t<p>Press <span style=\"color: red\"><strong>any key</strong></span> to continue to the next trial</p>\n\t\t\t\t\t</div>\n\t\t\t\t","response":" ","trial_type":"html-keyboard-response","trial_index":21,"time_elapsed":132490,"internal_node_id":"0.0-3.0-3.3","prolific_id":"55ea70c37480920010aa9982","session_id":"643c24e5495da8126217377c","study_id":"64370a36d30bfa807bc7e43c"},{"rt":10639,"response":{"prediction":"38"},"trial_type":"survey-text","trial_index":22,"time_elapsed":143133,"internal_node_id":"0.0-3.0-0.4","prolific_id":"55ea70c37480920010aa9982","session_id":"643c24e5495da8126217377c","study_id":"64370a36d30bfa807bc7e43c"},{"rt":4544,"response":{"prior knowledge":0,"curiosity":3},"accuracy":[],"trial_type":"survey","trial_index":23,"time_elapsed":147682,"internal_node_id":"0.0-3.0-1.4","prolific_id":"55ea70c37480920010aa9982","session_id":"643c24e5495da8126217377c","study_id":"64370a36d30bfa807bc7e43c"},{"rt":null,"stimulus":"\n\t\t\t<div class=\"flip_card\">\n\t\t\t\t<div class=\"flip_card_inner\">\n\t\t\t\t\t<div class=\"flip_card_front\">\n\t\t\t\t\t\t<img src=img/8.png>\n\t\t\t\t\t</div>\n\t\t\t\t\t<div class=\"flip_card_back\">\n\t\t\t\t\t\t<h2>How many people are vegan globally (in millions)?</h2>\n\t\t\t\t\t\t<br>\n\t\t\t\t\t\t<p>Answer: <strong>79</strong></p>\n\t\t\t\t\t</div>\n\t\t\t\t</div>\n\t\t\t</div>\n\t\t\t","response":null,"trial_type":"html-keyboard-response","trial_index":24,"time_elapsed":152687,"internal_node_id":"0.0-3.0-2.4","prolific_id":"55ea70c37480920010aa9982","session_id":"643c24e5495da8126217377c","study_id":"64370a36d30bfa807bc7e43c"},{"rt":955,"stimulus":"\n\t\t\t\t\t<div>\n\t\t\t\t\t<h2>Trial 5 is over</h2>\n\t\t\t\t\t<p>Press <span style=\"color: red\"><strong>any key</strong></span> to continue to the next trial</p>\n\t\t\t\t\t</div>\n\t\t\t\t","response":" ","trial_type":"html-keyboard-response","trial_index":25,"time_elapsed":153642,"internal_node_id":"0.0-3.0-3.4","prolific_id":"55ea70c37480920010aa9982","session_id":"643c24e5495da8126217377c","study_id":"64370a36d30bfa807bc7e43c"},{"rt":15664,"response":{"prediction":"20"},"trial_type":"survey-text","trial_index":26,"time_elapsed":169307,"internal_node_id":"0.0-3.0-0.5","prolific_id":"55ea70c37480920010aa9982","session_id":"643c24e5495da8126217377c","study_id":"64370a36d30bfa807bc7e43c"},{"rt":4091,"response":{"prior knowledge":1,"curiosity":4},"accuracy":[],"trial_type":"survey","trial_index":27,"time_elapsed":173404,"internal_node_id":"0.0-3.0-1.5","prolific_id":"55ea70c37480920010aa9982","session_id":"643c24e5495da8126217377c","study_id":"64370a36d30bfa807bc7e43c"},{"rt":null,"stimulus":"\n\t\t\t<div class=\"flip_card\">\n\t\t\t\t<div class=\"flip_card_inner\">\n\t\t\t\t\t<div class=\"flip_card_front\">\n\t\t\t\t\t\t<img src=img/10.png>\n\t\t\t\t\t</div>\n\t\t\t\t\t<div class=\"flip_card_back\">\n\t\t\t\t\t\t<h2>How many bones is a human baby born with?</h2>\n\t\t\t\t\t\t<br>\n\t\t\t\t\t\t<p>Answer: <strong>300</strong></p>\n\t\t\t\t\t</div>\n\t\t\t\t</div>\n\t\t\t</div>\n\t\t\t","response":null,"trial_type":"html-keyboard-response","trial_index":28,"time_elapsed":178407,"internal_node_id":"0.0-3.0-2.5","prolific_id":"55ea70c37480920010aa9982","session_id":"643c24e5495da8126217377c","study_id":"64370a36d30bfa807bc7e43c"},{"rt":724,"stimulus":"\n\t\t\t\t\t<div>\n\t\t\t\t\t<h2>Trial 6 is over</h2>\n\t\t\t\t\t<p>Press <span style=\"color: red\"><strong>any key</strong></span> to continue to the next trial</p>\n\t\t\t\t\t</div>\n\t\t\t\t","response":" ","trial_type":"html-keyboard-response","trial_index":29,"time_elapsed":179130,"internal_node_id":"0.0-3.0-3.5","prolific_id":"55ea70c37480920010aa9982","session_id":"643c24e5495da8126217377c","study_id":"64370a36d30bfa807bc7e43c"},{"rt":8399,"response":{"prediction":"1863"},"trial_type":"survey-text","trial_index":30,"time_elapsed":187533,"internal_node_id":"0.0-3.0-0.6","prolific_id":"55ea70c37480920010aa9982","session_id":"643c24e5495da8126217377c","study_id":"64370a36d30bfa807bc7e43c"},{"rt":4888,"response":{"prior knowledge":0,"curiosity":1},"accuracy":[],"trial_type":"survey","trial_index":31,"time_elapsed":192426,"internal_node_id":"0.0-3.0-1.6","prolific_id":"55ea70c37480920010aa9982","session_id":"643c24e5495da8126217377c","study_id":"64370a36d30bfa807bc7e43c"},{"rt":null,"stimulus":"\n\t\t\t<div class=\"flip_card\">\n\t\t\t\t<div class=\"flip_card_inner\">\n\t\t\t\t\t<div class=\"flip_card_front\">\n\t\t\t\t\t\t<img src=img/23.png>\n\t\t\t\t\t</div>\n\t\t\t\t\t<div class=\"flip_card_back\">\n\t\t\t\t\t\t<h2>In what year was the Mexican artist Frida Kahlo born?</h2>\n\t\t\t\t\t\t<br>\n\t\t\t\t\t\t<p>Answer: <strong>1907</strong></p>\n\t\t\t\t\t</div>\n\t\t\t\t</div>\n\t\t\t</div>\n\t\t\t","response":null,"trial_type":"html-keyboard-response","trial_index":32,"time_elapsed":197428,"internal_node_id":"0.0-3.0-2.6","prolific_id":"55ea70c37480920010aa9982","session_id":"643c24e5495da8126217377c","study_id":"64370a36d30bfa807bc7e43c"},{"rt":774,"stimulus":"\n\t\t\t\t\t<div>\n\t\t\t\t\t<h2>Trial 7 is over</h2>\n\t\t\t\t\t<p>Press <span style=\"color: red\"><strong>any key</strong></span> to continue to the next trial</p>\n\t\t\t\t\t</div>\n\t\t\t\t","response":" ","trial_type":"html-keyboard-response","trial_index":33,"time_elapsed":198202,"internal_node_id":"0.0-3.0-3.6","prolific_id":"55ea70c37480920010aa9982","session_id":"643c24e5495da8126217377c","study_id":"64370a36d30bfa807bc7e43c"},{"rt":4208,"response":{"prediction":"5"},"trial_type":"survey-text","trial_index":34,"time_elapsed":202412,"internal_node_id":"0.0-3.0-0.7","prolific_id":"55ea70c37480920010aa9982","session_id":"643c24e5495da8126217377c","study_id":"64370a36d30bfa807bc7e43c"},{"rt":4541,"response":{"prior knowledge":1,"curiosity":3},"accuracy":[],"trial_type":"survey","trial_index":35,"time_elapsed":206958,"internal_node_id":"0.0-3.0-1.7","prolific_id":"55ea70c37480920010aa9982","session_id":"643c24e5495da8126217377c","study_id":"64370a36d30bfa807bc7e43c"},{"rt":null,"stimulus":"\n\t\t\t<div class=\"flip_card\">\n\t\t\t\t<div class=\"flip_card_inner\">\n\t\t\t\t\t<div class=\"flip_card_front\">\n\t\t\t\t\t\t<img src=img/22.png>\n\t\t\t\t\t</div>\n\t\t\t\t\t<div class=\"flip_card_back\">\n\t\t\t\t\t\t<h2>How many lines are in a sonnet?</h2>\n\t\t\t\t\t\t<br>\n\t\t\t\t\t\t<p>Answer: <strong>14</strong></p>\n\t\t\t\t\t</div>\n\t\t\t\t</div>\n\t\t\t</div>\n\t\t\t","response":null,"trial_type":"html-keyboard-response","trial_index":36,"time_elapsed":211962,"internal_node_id":"0.0-3.0-2.7","prolific_id":"55ea70c37480920010aa9982","session_id":"643c24e5495da8126217377c","study_id":"64370a36d30bfa807bc7e43c"},{"rt":1040,"stimulus":"\n\t\t\t\t\t<div>\n\t\t\t\t\t<h2>Trial 8 is over</h2>\n\t\t\t\t\t<p>Press <span style=\"color: red\"><strong>any key</strong></span> to continue to the next trial</p>\n\t\t\t\t\t</div>\n\t\t\t\t","response":" ","trial_type":"html-keyboard-response","trial_index":37,"time_elapsed":213002,"internal_node_id":"0.0-3.0-3.7","prolific_id":"55ea70c37480920010aa9982","session_id":"643c24e5495da8126217377c","study_id":"64370a36d30bfa807bc7e43c"},{"rt":10928,"response":{"prediction":"60"},"trial_type":"survey-text","trial_index":38,"time_elapsed":223931,"internal_node_id":"0.0-3.0-0.8","prolific_id":"55ea70c37480920010aa9982","session_id":"643c24e5495da8126217377c","study_id":"64370a36d30bfa807bc7e43c"},{"rt":4580,"response":{"prior knowledge":1,"curiosity":3},"accuracy":[],"trial_type":"survey","trial_index":39,"time_elapsed":228516,"internal_node_id":"0.0-3.0-1.8","prolific_id":"55ea70c37480920010aa9982","session_id":"643c24e5495da8126217377c","study_id":"64370a36d30bfa807bc7e43c"},{"rt":null,"stimulus":"\n\t\t\t<div class=\"flip_card\">\n\t\t\t\t<div class=\"flip_card_inner\">\n\t\t\t\t\t<div class=\"flip_card_front\">\n\t\t\t\t\t\t<img src=img/5.png>\n\t\t\t\t\t</div>\n\t\t\t\t\t<div class=\"flip_card_back\">\n\t\t\t\t\t\t<h2>How many double stitches does a baseball have?</h2>\n\t\t\t\t\t\t<br>\n\t\t\t\t\t\t<p>Answer: <strong>108</strong></p>\n\t\t\t\t\t</div>\n\t\t\t\t</div>\n\t\t\t</div>\n\t\t\t","response":null,"trial_type":"html-keyboard-response","trial_index":40,"time_elapsed":233523,"internal_node_id":"0.0-3.0-2.8","prolific_id":"55ea70c37480920010aa9982","session_id":"643c24e5495da8126217377c","study_id":"64370a36d30bfa807bc7e43c"},{"rt":767,"stimulus":"\n\t\t\t\t\t<div>\n\t\t\t\t\t<h2>Trial 9 is over</h2>\n\t\t\t\t\t<p>Press <span style=\"color: red\"><strong>any key</strong></span> to continue to the next trial</p>\n\t\t\t\t\t</div>\n\t\t\t\t","response":" ","trial_type":"html-keyboard-response","trial_index":41,"time_elapsed":234291,"internal_node_id":"0.0-3.0-3.8","prolific_id":"55ea70c37480920010aa9982","session_id":"643c24e5495da8126217377c","study_id":"64370a36d30bfa807bc7e43c"},{"rt":6774,"response":{"prediction":"7"},"trial_type":"survey-text","trial_index":42,"time_elapsed":241070,"internal_node_id":"0.0-3.0-0.9","prolific_id":"55ea70c37480920010aa9982","session_id":"643c24e5495da8126217377c","study_id":"64370a36d30bfa807bc7e43c"},{"rt":4292,"response":{"prior knowledge":0,"curiosity":3},"accuracy":[],"trial_type":"survey","trial_index":43,"time_elapsed":245366,"internal_node_id":"0.0-3.0-1.9","prolific_id":"55ea70c37480920010aa9982","session_id":"643c24e5495da8126217377c","study_id":"64370a36d30bfa807bc7e43c"},{"rt":null,"stimulus":"\n\t\t\t<div class=\"flip_card\">\n\t\t\t\t<div class=\"flip_card_inner\">\n\t\t\t\t\t<div class=\"flip_card_front\">\n\t\t\t\t\t\t<img src=img/20.png>\n\t\t\t\t\t</div>\n\t\t\t\t\t<div class=\"flip_card_back\">\n\t\t\t\t\t\t<h2>How many main islands make up Japan?</h2>\n\t\t\t\t\t\t<br>\n\t\t\t\t\t\t<p>Answer: <strong>4</strong></p>\n\t\t\t\t\t</div>\n\t\t\t\t</div>\n\t\t\t</div>\n\t\t\t","response":null,"trial_type":"html-keyboard-response","trial_index":44,"time_elapsed":250374,"internal_node_id":"0.0-3.0-2.9","prolific_id":"55ea70c37480920010aa9982","session_id":"643c24e5495da8126217377c","study_id":"64370a36d30bfa807bc7e43c"},{"rt":1012,"stimulus":"\n\t\t\t\t\t<div>\n\t\t\t\t\t<h2>Trial 10 is over</h2>\n\t\t\t\t\t<p>Press <span style=\"color: red\"><strong>any key</strong></span> to continue to the next trial</p>\n\t\t\t\t\t</div>\n\t\t\t\t","response":" ","trial_type":"html-keyboard-response","trial_index":45,"time_elapsed":251387,"internal_node_id":"0.0-3.0-3.9","prolific_id":"55ea70c37480920010aa9982","session_id":"643c24e5495da8126217377c","study_id":"64370a36d30bfa807bc7e43c"},{"rt":9535,"response":{"prediction":"3"},"trial_type":"survey-text","trial_index":46,"time_elapsed":260925,"internal_node_id":"0.0-3.0-0.10","prolific_id":"55ea70c37480920010aa9982","session_id":"643c24e5495da8126217377c","study_id":"64370a36d30bfa807bc7e43c"},{"rt":4495,"response":{"prior knowledge":0,"curiosity":3},"accuracy":[],"trial_type":"survey","trial_index":47,"time_elapsed":265425,"internal_node_id":"0.0-3.0-1.10","prolific_id":"55ea70c37480920010aa9982","session_id":"643c24e5495da8126217377c","study_id":"64370a36d30bfa807bc7e43c"},{"rt":null,"stimulus":"\n\t\t\t<div class=\"flip_card\">\n\t\t\t\t<div class=\"flip_card_inner\">\n\t\t\t\t\t<div class=\"flip_card_front\">\n\t\t\t\t\t\t<img src=img/17.png>\n\t\t\t\t\t</div>\n\t\t\t\t\t<div class=\"flip_card_back\">\n\t\t\t\t\t\t<h2>How many moons does Neptune have?</h2>\n\t\t\t\t\t\t<br>\n\t\t\t\t\t\t<p>Answer: <strong>14</strong></p>\n\t\t\t\t\t</div>\n\t\t\t\t</div>\n\t\t\t</div>\n\t\t\t","response":null,"trial_type":"html-keyboard-response","trial_index":48,"time_elapsed":270437,"internal_node_id":"0.0-3.0-2.10","prolific_id":"55ea70c37480920010aa9982","session_id":"643c24e5495da8126217377c","study_id":"64370a36d30bfa807bc7e43c"},{"rt":694,"stimulus":"\n\t\t\t\t\t<div>\n\t\t\t\t\t<h2>Trial 11 is over</h2>\n\t\t\t\t\t<p>Press <span style=\"color: red\"><strong>any key</strong></span> to continue to the next trial</p>\n\t\t\t\t\t</div>\n\t\t\t\t","response":" ","trial_type":"html-keyboard-response","trial_index":49,"time_elapsed":271131,"internal_node_id":"0.0-3.0-3.10","prolific_id":"55ea70c37480920010aa9982","session_id":"643c24e5495da8126217377c","study_id":"64370a36d30bfa807bc7e43c"},{"rt":11559,"response":{"prediction":"20"},"trial_type":"survey-text","trial_index":50,"time_elapsed":282694,"internal_node_id":"0.0-3.0-0.11","prolific_id":"55ea70c37480920010aa9982","session_id":"643c24e5495da8126217377c","study_id":"64370a36d30bfa807bc7e43c"},{"rt":6945,"response":{"prior knowledge":1,"curiosity":3},"accuracy":[],"trial_type":"survey","trial_index":51,"time_elapsed":289644,"internal_node_id":"0.0-3.0-1.11","prolific_id":"55ea70c37480920010aa9982","session_id":"643c24e5495da8126217377c","study_id":"64370a36d30bfa807bc7e43c"},{"rt":null,"stimulus":"\n\t\t\t<div class=\"flip_card\">\n\t\t\t\t<div class=\"flip_card_inner\">\n\t\t\t\t\t<div class=\"flip_card_front\">\n\t\t\t\t\t\t<img src=img/26.png>\n\t\t\t\t\t</div>\n\t\t\t\t\t<div class=\"flip_card_back\">\n\t\t\t\t\t\t<h2>A bar mitzvah is traditionally celebrated when Jewish males turn what age?</h2>\n\t\t\t\t\t\t<br>\n\t\t\t\t\t\t<p>Answer: <strong>13</strong></p>\n\t\t\t\t\t</div>\n\t\t\t\t</div>\n\t\t\t</div>\n\t\t\t","response":null,"trial_type":"html-keyboard-response","trial_index":52,"time_elapsed":294653,"internal_node_id":"0.0-3.0-2.11","prolific_id":"55ea70c37480920010aa9982","session_id":"643c24e5495da8126217377c","study_id":"64370a36d30bfa807bc7e43c"},{"rt":1101,"stimulus":"\n\t\t\t\t\t<div>\n\t\t\t\t\t<h2>Trial 12 is over</h2>\n\t\t\t\t\t<p>Press <span style=\"color: red\"><strong>any key</strong></span> to continue to the next trial</p>\n\t\t\t\t\t</div>\n\t\t\t\t","response":" ","trial_type":"html-keyboard-response","trial_index":53,"time_elapsed":295754,"internal_node_id":"0.0-3.0-3.11","prolific_id":"55ea70c37480920010aa9982","session_id":"643c24e5495da8126217377c","study_id":"64370a36d30bfa807bc7e43c"},{"rt":8465,"response":{"prediction":"4"},"trial_type":"survey-text","trial_index":54,"time_elapsed":304223,"internal_node_id":"0.0-3.0-0.12","prolific_id":"55ea70c37480920010aa9982","session_id":"643c24e5495da8126217377c","study_id":"64370a36d30bfa807bc7e43c"},{"rt":4424,"response":{"prior knowledge":0,"curiosity":3},"accuracy":[],"trial_type":"survey","trial_index":55,"time_elapsed":308652,"internal_node_id":"0.0-3.0-1.12","prolific_id":"55ea70c37480920010aa9982","session_id":"643c24e5495da8126217377c","study_id":"64370a36d30bfa807bc7e43c"},{"rt":null,"stimulus":"\n\t\t\t<div class=\"flip_card\">\n\t\t\t\t<div class=\"flip_card_inner\">\n\t\t\t\t\t<div class=\"flip_card_front\">\n\t\t\t\t\t\t<img src=img/13.png>\n\t\t\t\t\t</div>\n\t\t\t\t\t<div class=\"flip_card_back\">\n\t\t\t\t\t\t<h2>How many countries have territory in the Arctic Circle?</h2>\n\t\t\t\t\t\t<br>\n\t\t\t\t\t\t<p>Answer: <strong>8</strong></p>\n\t\t\t\t\t</div>\n\t\t\t\t</div>\n\t\t\t</div>\n\t\t\t","response":null,"trial_type":"html-keyboard-response","trial_index":56,"time_elapsed":313668,"internal_node_id":"0.0-3.0-2.12","prolific_id":"55ea70c37480920010aa9982","session_id":"643c24e5495da8126217377c","study_id":"64370a36d30bfa807bc7e43c"},{"rt":798,"stimulus":"\n\t\t\t\t\t<div>\n\t\t\t\t\t<h2>Trial 13 is over</h2>\n\t\t\t\t\t<p>Press <span style=\"color: red\"><strong>any key</strong></span> to continue to the next trial</p>\n\t\t\t\t\t</div>\n\t\t\t\t","response":" ","trial_type":"html-keyboard-response","trial_index":57,"time_elapsed":314466,"internal_node_id":"0.0-3.0-3.12","prolific_id":"55ea70c37480920010aa9982","session_id":"643c24e5495da8126217377c","study_id":"64370a36d30bfa807bc7e43c"},{"rt":9719,"response":{"prediction":"18"},"trial_type":"survey-text","trial_index":58,"time_elapsed":324189,"internal_node_id":"0.0-3.0-0.13","prolific_id":"55ea70c37480920010aa9982","session_id":"643c24e5495da8126217377c","study_id":"64370a36d30bfa807bc7e43c"},{"rt":3481,"response":{"prior knowledge":0,"curiosity":3},"accuracy":[],"trial_type":"survey","trial_index":59,"time_elapsed":327676,"internal_node_id":"0.0-3.0-1.13","prolific_id":"55ea70c37480920010aa9982","session_id":"643c24e5495da8126217377c","study_id":"64370a36d30bfa807bc7e43c"},{"rt":null,"stimulus":"\n\t\t\t<div class=\"flip_card\">\n\t\t\t\t<div class=\"flip_card_inner\">\n\t\t\t\t\t<div class=\"flip_card_front\">\n\t\t\t\t\t\t<img src=img/7.png>\n\t\t\t\t\t</div>\n\t\t\t\t\t<div class=\"flip_card_back\">\n\t\t\t\t\t\t<h2>How many tones are in the Vietnamese language?</h2>\n\t\t\t\t\t\t<br>\n\t\t\t\t\t\t<p>Answer: <strong>6</strong></p>\n\t\t\t\t\t</div>\n\t\t\t\t</div>\n\t\t\t</div>\n\t\t\t","response":null,"trial_type":"html-keyboard-response","trial_index":60,"time_elapsed":332678,"internal_node_id":"0.0-3.0-2.13","prolific_id":"55ea70c37480920010aa9982","session_id":"643c24e5495da8126217377c","study_id":"64370a36d30bfa807bc7e43c"},{"rt":957,"stimulus":"\n\t\t\t\t\t<div>\n\t\t\t\t\t<h2>Trial 14 is over</h2>\n\t\t\t\t\t<p>Press <span style=\"color: red\"><strong>any key</strong></span> to continue to the next trial</p>\n\t\t\t\t\t</div>\n\t\t\t\t","response":" ","trial_type":"html-keyboard-response","trial_index":61,"time_elapsed":333635,"internal_node_id":"0.0-3.0-3.13","prolific_id":"55ea70c37480920010aa9982","session_id":"643c24e5495da8126217377c","study_id":"64370a36d30bfa807bc7e43c"},{"rt":9722,"response":{"prediction":"220"},"trial_type":"survey-text","trial_index":62,"time_elapsed":343361,"internal_node_id":"0.0-3.0-0.14","prolific_id":"55ea70c37480920010aa9982","session_id":"643c24e5495da8126217377c","study_id":"64370a36d30bfa807bc7e43c"},{"rt":3184,"response":{"prior knowledge":0,"curiosity":4},"accuracy":[],"trial_type":"survey","trial_index":63,"time_elapsed":346550,"internal_node_id":"0.0-3.0-1.14","prolific_id":"55ea70c37480920010aa9982","session_id":"643c24e5495da8126217377c","study_id":"64370a36d30bfa807bc7e43c"},{"rt":null,"stimulus":"\n\t\t\t<div class=\"flip_card\">\n\t\t\t\t<div class=\"flip_card_inner\">\n\t\t\t\t\t<div class=\"flip_card_front\">\n\t\t\t\t\t\t<img src=img/4.png>\n\t\t\t\t\t</div>\n\t\t\t\t\t<div class=\"flip_card_back\">\n\t\t\t\t\t\t<h2>How many floors are in the Burj Khalifa, the tallest building in the world?</h2>\n\t\t\t\t\t\t<br>\n\t\t\t\t\t\t<p>Answer: <strong>163</strong></p>\n\t\t\t\t\t</div>\n\t\t\t\t</div>\n\t\t\t</div>\n\t\t\t","response":null,"trial_type":"html-keyboard-response","trial_index":64,"time_elapsed":351565,"internal_node_id":"0.0-3.0-2.14","prolific_id":"55ea70c37480920010aa9982","session_id":"643c24e5495da8126217377c","study_id":"64370a36d30bfa807bc7e43c"},{"rt":750,"stimulus":"\n\t\t\t\t\t<div>\n\t\t\t\t\t<h2>Trial 15 is over</h2>\n\t\t\t\t\t<p>Press <span style=\"color: red\"><strong>any key</strong></span> to continue to the next trial</p>\n\t\t\t\t\t</div>\n\t\t\t\t","response":" ","trial_type":"html-keyboard-response","trial_index":65,"time_elapsed":352315,"internal_node_id":"0.0-3.0-3.14","prolific_id":"55ea70c37480920010aa9982","session_id":"643c24e5495da8126217377c","study_id":"64370a36d30bfa807bc7e43c"},{"rt":8433,"response":{"prediction":"16"},"trial_type":"survey-text","trial_index":66,"time_elapsed":360752,"internal_node_id":"0.0-3.0-0.15","prolific_id":"55ea70c37480920010aa9982","session_id":"643c24e5495da8126217377c","study_id":"64370a36d30bfa807bc7e43c"},{"rt":4333,"response":{"prior knowledge":2,"curiosity":4},"accuracy":[],"trial_type":"survey","trial_index":67,"time_elapsed":365091,"internal_node_id":"0.0-3.0-1.15","prolific_id":"55ea70c37480920010aa9982","session_id":"643c24e5495da8126217377c","study_id":"64370a36d30bfa807bc7e43c"},{"rt":null,"stimulus":"\n\t\t\t<div class=\"flip_card\">\n\t\t\t\t<div class=\"flip_card_inner\">\n\t\t\t\t\t<div class=\"flip_card_front\">\n\t\t\t\t\t\t<img src=img/6.png>\n\t\t\t\t\t</div>\n\t\t\t\t\t<div class=\"flip_card_back\">\n\t\t\t\t\t\t<h2>How much is in a Baker's Dozen?</h2>\n\t\t\t\t\t\t<br>\n\t\t\t\t\t\t<p>Answer: <strong>13</strong></p>\n\t\t\t\t\t</div>\n\t\t\t\t</div>\n\t\t\t</div>\n\t\t\t","response":null,"trial_type":"html-keyboard-response","trial_index":68,"time_elapsed":370097,"internal_node_id":"0.0-3.0-2.15","prolific_id":"55ea70c37480920010aa9982","session_id":"643c24e5495da8126217377c","study_id":"64370a36d30bfa807bc7e43c"},{"rt":986,"stimulus":"\n\t\t\t\t\t<div>\n\t\t\t\t\t<h2>Trial 16 is over</h2>\n\t\t\t\t\t<p>Press <span style=\"color: red\"><strong>any key</strong></span> to continue to the next trial</p>\n\t\t\t\t\t</div>\n\t\t\t\t","response":" ","trial_type":"html-keyboard-response","trial_index":69,"time_elapsed":371083,"internal_node_id":"0.0-3.0-3.15","prolific_id":"55ea70c37480920010aa9982","session_id":"643c24e5495da8126217377c","study_id":"64370a36d30bfa807bc7e43c"},{"rt":18057,"response":{"prediction":"1824"},"trial_type":"survey-text","trial_index":70,"time_elapsed":389144,"internal_node_id":"0.0-3.0-0.16","prolific_id":"55ea70c37480920010aa9982","session_id":"643c24e5495da8126217377c","study_id":"64370a36d30bfa807bc7e43c"},{"rt":4904,"response":{"prior knowledge":0,"curiosity":3},"accuracy":[],"trial_type":"survey","trial_index":71,"time_elapsed":394053,"internal_node_id":"0.0-3.0-1.16","prolific_id":"55ea70c37480920010aa9982","session_id":"643c24e5495da8126217377c","study_id":"64370a36d30bfa807bc7e43c"},{"rt":null,"stimulus":"\n\t\t\t<div class=\"flip_card\">\n\t\t\t\t<div class=\"flip_card_inner\">\n\t\t\t\t\t<div class=\"flip_card_front\">\n\t\t\t\t\t\t<img src=img/14.png>\n\t\t\t\t\t</div>\n\t\t\t\t\t<div class=\"flip_card_back\">\n\t\t\t\t\t\t<h2>In what year did the first Modern Olympic Games take place?</h2>\n\t\t\t\t\t\t<br>\n\t\t\t\t\t\t<p>Answer: <strong>1896</strong></p>\n\t\t\t\t\t</div>\n\t\t\t\t</div>\n\t\t\t</div>\n\t\t\t","response":null,"trial_type":"html-keyboard-response","trial_index":72,"time_elapsed":399055,"internal_node_id":"0.0-3.0-2.16","prolific_id":"55ea70c37480920010aa9982","session_id":"643c24e5495da8126217377c","study_id":"64370a36d30bfa807bc7e43c"},{"rt":612,"stimulus":"\n\t\t\t\t\t<div>\n\t\t\t\t\t<h2>Trial 17 is over</h2>\n\t\t\t\t\t<p>Press <span style=\"color: red\"><strong>any key</strong></span> to continue to the next trial</p>\n\t\t\t\t\t</div>\n\t\t\t\t","response":" ","trial_type":"html-keyboard-response","trial_index":73,"time_elapsed":399667,"internal_node_id":"0.0-3.0-3.16","prolific_id":"55ea70c37480920010aa9982","session_id":"643c24e5495da8126217377c","study_id":"64370a36d30bfa807bc7e43c"},{"rt":4962,"response":{"prediction":"12"},"trial_type":"survey-text","trial_index":74,"time_elapsed":404634,"internal_node_id":"0.0-3.0-0.17","prolific_id":"55ea70c37480920010aa9982","session_id":"643c24e5495da8126217377c","study_id":"64370a36d30bfa807bc7e43c"},{"rt":4578,"response":{"prior knowledge":2,"curiosity":3},"accuracy":[],"trial_type":"survey","trial_index":75,"time_elapsed":409217,"internal_node_id":"0.0-3.0-1.17","prolific_id":"55ea70c37480920010aa9982","session_id":"643c24e5495da8126217377c","study_id":"64370a36d30bfa807bc7e43c"},{"rt":null,"stimulus":"\n\t\t\t<div class=\"flip_card\">\n\t\t\t\t<div class=\"flip_card_inner\">\n\t\t\t\t\t<div class=\"flip_card_front\">\n\t\t\t\t\t\t<img src=img/11.png>\n\t\t\t\t\t</div>\n\t\t\t\t\t<div class=\"flip_card_back\">\n\t\t\t\t\t\t<h2>How many different animals (real or imaginary) are represented in the Chinese calendar?</h2>\n\t\t\t\t\t\t<br>\n\t\t\t\t\t\t<p>Answer: <strong>12</strong></p>\n\t\t\t\t\t</div>\n\t\t\t\t</div>\n\t\t\t</div>\n\t\t\t","response":null,"trial_type":"html-keyboard-response","trial_index":76,"time_elapsed":414217,"internal_node_id":"0.0-3.0-2.17","prolific_id":"55ea70c37480920010aa9982","session_id":"643c24e5495da8126217377c","study_id":"64370a36d30bfa807bc7e43c"},{"rt":809,"stimulus":"\n\t\t\t\t\t<div>\n\t\t\t\t\t<h2>Trial 18 is over</h2>\n\t\t\t\t\t<p>Press <span style=\"color: red\"><strong>any key</strong></span> to continue to the next trial</p>\n\t\t\t\t\t</div>\n\t\t\t\t","response":" ","trial_type":"html-keyboard-response","trial_index":77,"time_elapsed":415027,"internal_node_id":"0.0-3.0-3.17","prolific_id":"55ea70c37480920010aa9982","session_id":"643c24e5495da8126217377c","study_id":"64370a36d30bfa807bc7e43c"},{"rt":12121,"response":{"prediction":"16"},"trial_type":"survey-text","trial_index":78,"time_elapsed":427152,"internal_node_id":"0.0-3.0-0.18","prolific_id":"55ea70c37480920010aa9982","session_id":"643c24e5495da8126217377c","study_id":"64370a36d30bfa807bc7e43c"},{"rt":2462,"response":{"prior knowledge":1,"curiosity":4},"accuracy":[],"trial_type":"survey","trial_index":79,"time_elapsed":429618,"internal_node_id":"0.0-3.0-1.18","prolific_id":"55ea70c37480920010aa9982","session_id":"643c24e5495da8126217377c","study_id":"64370a36d30bfa807bc7e43c"},{"rt":null,"stimulus":"\n\t\t\t<div class=\"flip_card\">\n\t\t\t\t<div class=\"flip_card_inner\">\n\t\t\t\t\t<div class=\"flip_card_front\">\n\t\t\t\t\t\t<img src=img/2.png>\n\t\t\t\t\t</div>\n\t\t\t\t\t<div class=\"flip_card_back\">\n\t\t\t\t\t\t<h2>How many constellations are there?</h2>\n\t\t\t\t\t\t<br>\n\t\t\t\t\t\t<p>Answer: <strong>88</strong></p>\n\t\t\t\t\t</div>\n\t\t\t\t</div>\n\t\t\t</div>\n\t\t\t","response":null,"trial_type":"html-keyboard-response","trial_index":80,"time_elapsed":434620,"internal_node_id":"0.0-3.0-2.18","prolific_id":"55ea70c37480920010aa9982","session_id":"643c24e5495da8126217377c","study_id":"64370a36d30bfa807bc7e43c"},{"rt":1310,"stimulus":"\n\t\t\t\t\t<div>\n\t\t\t\t\t<h2>Trial 19 is over</h2>\n\t\t\t\t\t<p>Press <span style=\"color: red\"><strong>any key</strong></span> to continue to the next trial</p>\n\t\t\t\t\t</div>\n\t\t\t\t","response":" ","trial_type":"html-keyboard-response","trial_index":81,"time_elapsed":435930,"internal_node_id":"0.0-3.0-3.18","prolific_id":"55ea70c37480920010aa9982","session_id":"643c24e5495da8126217377c","study_id":"64370a36d30bfa807bc7e43c"},{"rt":5005,"response":{"prediction":"14"},"trial_type":"survey-text","trial_index":82,"time_elapsed":440939,"internal_node_id":"0.0-3.0-0.19","prolific_id":"55ea70c37480920010aa9982","session_id":"643c24e5495da8126217377c","study_id":"64370a36d30bfa807bc7e43c"},{"rt":4208,"response":{"prior knowledge":1,"curiosity":3},"accuracy":[],"trial_type":"survey","trial_index":83,"time_elapsed":445152,"internal_node_id":"0.0-3.0-1.19","prolific_id":"55ea70c37480920010aa9982","session_id":"643c24e5495da8126217377c","study_id":"64370a36d30bfa807bc7e43c"},{"rt":null,"stimulus":"\n\t\t\t<div class=\"flip_card\">\n\t\t\t\t<div class=\"flip_card_inner\">\n\t\t\t\t\t<div class=\"flip_card_front\">\n\t\t\t\t\t\t<img src=img/24.png>\n\t\t\t\t\t</div>\n\t\t\t\t\t<div class=\"flip_card_back\">\n\t\t\t\t\t\t<h2>How old was King Tut when he died?</h2>\n\t\t\t\t\t\t<br>\n\t\t\t\t\t\t<p>Answer: <strong>19</strong></p>\n\t\t\t\t\t</div>\n\t\t\t\t</div>\n\t\t\t</div>\n\t\t\t","response":null,"trial_type":"html-keyboard-response","trial_index":84,"time_elapsed":450164,"internal_node_id":"0.0-3.0-2.19","prolific_id":"55ea70c37480920010aa9982","session_id":"643c24e5495da8126217377c","study_id":"64370a36d30bfa807bc7e43c"},{"rt":1031,"stimulus":"\n\t\t\t\t\t<div>\n\t\t\t\t\t<h2>Trial 20 is over</h2>\n\t\t\t\t\t<p>Press <span style=\"color: red\"><strong>any key</strong></span> to continue to the next trial</p>\n\t\t\t\t\t</div>\n\t\t\t\t","response":" ","trial_type":"html-keyboard-response","trial_index":85,"time_elapsed":451195,"internal_node_id":"0.0-3.0-3.19","prolific_id":"55ea70c37480920010aa9982","session_id":"643c24e5495da8126217377c","study_id":"64370a36d30bfa807bc7e43c"},{"rt":8761,"response":{"prediction":"6"},"trial_type":"survey-text","trial_index":86,"time_elapsed":459959,"internal_node_id":"0.0-3.0-0.20","prolific_id":"55ea70c37480920010aa9982","session_id":"643c24e5495da8126217377c","study_id":"64370a36d30bfa807bc7e43c"},{"rt":5238,"response":{"prior knowledge":0,"curiosity":2},"accuracy":[],"trial_type":"survey","trial_index":87,"time_elapsed":465202,"internal_node_id":"0.0-3.0-1.20","prolific_id":"55ea70c37480920010aa9982","session_id":"643c24e5495da8126217377c","study_id":"64370a36d30bfa807bc7e43c"},{"rt":null,"stimulus":"\n\t\t\t<div class=\"flip_card\">\n\t\t\t\t<div class=\"flip_card_inner\">\n\t\t\t\t\t<div class=\"flip_card_front\">\n\t\t\t\t\t\t<img src=img/28.png>\n\t\t\t\t\t</div>\n\t\t\t\t\t<div class=\"flip_card_back\">\n\t\t\t\t\t\t<h2>How many native species of kangaroos are found in Australia?</h2>\n\t\t\t\t\t\t<br>\n\t\t\t\t\t\t<p>Answer: <strong>4</strong></p>\n\t\t\t\t\t</div>\n\t\t\t\t</div>\n\t\t\t</div>\n\t\t\t","response":null,"trial_type":"html-keyboard-response","trial_index":88,"time_elapsed":470206,"internal_node_id":"0.0-3.0-2.20","prolific_id":"55ea70c37480920010aa9982","session_id":"643c24e5495da8126217377c","study_id":"64370a36d30bfa807bc7e43c"},{"rt":1404,"stimulus":"\n\t\t\t\t\t<div>\n\t\t\t\t\t<h2>Trial 21 is over</h2>\n\t\t\t\t\t<p>Press <span style=\"color: red\"><strong>any key</strong></span> to continue to the next trial</p>\n\t\t\t\t\t</div>\n\t\t\t\t","response":"enter","trial_type":"html-keyboard-response","trial_index":89,"time_elapsed":471610,"internal_node_id":"0.0-3.0-3.20","prolific_id":"55ea70c37480920010aa9982","session_id":"643c24e5495da8126217377c","study_id":"64370a36d30bfa807bc7e43c"},{"rt":10508,"response":{"prediction":"1901"},"trial_type":"survey-text","trial_index":90,"time_elapsed":482119,"internal_node_id":"0.0-3.0-0.21","prolific_id":"55ea70c37480920010aa9982","session_id":"643c24e5495da8126217377c","study_id":"64370a36d30bfa807bc7e43c"},{"rt":3912,"response":{"prior knowledge":1,"curiosity":3},"accuracy":[],"trial_type":"survey","trial_index":91,"time_elapsed":486036,"internal_node_id":"0.0-3.0-1.21","prolific_id":"55ea70c37480920010aa9982","session_id":"643c24e5495da8126217377c","study_id":"64370a36d30bfa807bc7e43c"},{"rt":null,"stimulus":"\n\t\t\t<div class=\"flip_card\">\n\t\t\t\t<div class=\"flip_card_inner\">\n\t\t\t\t\t<div class=\"flip_card_front\">\n\t\t\t\t\t\t<img src=img/12.png>\n\t\t\t\t\t</div>\n\t\t\t\t\t<div class=\"flip_card_back\">\n\t\t\t\t\t\t<h2>What year did the titanic sink?</h2>\n\t\t\t\t\t\t<br>\n\t\t\t\t\t\t<p>Answer: <strong>1912</strong></p>\n\t\t\t\t\t</div>\n\t\t\t\t</div>\n\t\t\t</div>\n\t\t\t","response":null,"trial_type":"html-keyboard-response","trial_index":92,"time_elapsed":491038,"internal_node_id":"0.0-3.0-2.21","prolific_id":"55ea70c37480920010aa9982","session_id":"643c24e5495da8126217377c","study_id":"64370a36d30bfa807bc7e43c"},{"rt":1309,"stimulus":"\n\t\t\t\t\t<div>\n\t\t\t\t\t<h2>Trial 22 is over</h2>\n\t\t\t\t\t<p>Press <span style=\"color: red\"><strong>any key</strong></span> to continue to the next trial</p>\n\t\t\t\t\t</div>\n\t\t\t\t","response":"enter","trial_type":"html-keyboard-response","trial_index":93,"time_elapsed":492347,"internal_node_id":"0.0-3.0-3.21","prolific_id":"55ea70c37480920010aa9982","session_id":"643c24e5495da8126217377c","study_id":"64370a36d30bfa807bc7e43c"},{"rt":11122,"response":{"prediction":"13"},"trial_type":"survey-text","trial_index":94,"time_elapsed":503469,"internal_node_id":"0.0-3.0-0.22","prolific_id":"55ea70c37480920010aa9982","session_id":"643c24e5495da8126217377c","study_id":"64370a36d30bfa807bc7e43c"},{"rt":4073,"response":{"prior knowledge":0,"curiosity":2},"accuracy":[],"trial_type":"survey","trial_index":95,"time_elapsed":507547,"internal_node_id":"0.0-3.0-1.22","prolific_id":"55ea70c37480920010aa9982","session_id":"643c24e5495da8126217377c","study_id":"64370a36d30bfa807bc7e43c"},{"rt":null,"stimulus":"\n\t\t\t<div class=\"flip_card\">\n\t\t\t\t<div class=\"flip_card_inner\">\n\t\t\t\t\t<div class=\"flip_card_front\">\n\t\t\t\t\t\t<img src=img/30.png>\n\t\t\t\t\t</div>\n\t\t\t\t\t<div class=\"flip_card_back\">\n\t\t\t\t\t\t<h2>How many single hand gestures, or mudras, are used in Indian classical dance?</h2>\n\t\t\t\t\t\t<br>\n\t\t\t\t\t\t<p>Answer: <strong>28</strong></p>\n\t\t\t\t\t</div>\n\t\t\t\t</div>\n\t\t\t</div>\n\t\t\t","response":null,"trial_type":"html-keyboard-response","trial_index":96,"time_elapsed":512562,"internal_node_id":"0.0-3.0-2.22","prolific_id":"55ea70c37480920010aa9982","session_id":"643c24e5495da8126217377c","study_id":"64370a36d30bfa807bc7e43c"},{"rt":1385,"stimulus":"\n\t\t\t\t\t<div>\n\t\t\t\t\t<h2>Trial 23 is over</h2>\n\t\t\t\t\t<p>Press <span style=\"color: red\"><strong>any key</strong></span> to continue to the next trial</p>\n\t\t\t\t\t</div>\n\t\t\t\t","response":"enter","trial_type":"html-keyboard-response","trial_index":97,"time_elapsed":513947,"internal_node_id":"0.0-3.0-3.22","prolific_id":"55ea70c37480920010aa9982","session_id":"643c24e5495da8126217377c","study_id":"64370a36d30bfa807bc7e43c"},{"rt":6434,"response":{"prediction":"11"},"trial_type":"survey-text","trial_index":98,"time_elapsed":520381,"internal_node_id":"0.0-3.0-0.23","prolific_id":"55ea70c37480920010aa9982","session_id":"643c24e5495da8126217377c","study_id":"64370a36d30bfa807bc7e43c"},{"rt":7768,"response":{"prior knowledge":2,"curiosity":3},"accuracy":[],"trial_type":"survey","trial_index":99,"time_elapsed":528154,"internal_node_id":"0.0-3.0-1.23","prolific_id":"55ea70c37480920010aa9982","session_id":"643c24e5495da8126217377c","study_id":"64370a36d30bfa807bc7e43c"},{"rt":null,"stimulus":"\n\t\t\t<div class=\"flip_card\">\n\t\t\t\t<div class=\"flip_card_inner\">\n\t\t\t\t\t<div class=\"flip_card_front\">\n\t\t\t\t\t\t<img src=img/27.png>\n\t\t\t\t\t</div>\n\t\t\t\t\t<div class=\"flip_card_back\">\n\t\t\t\t\t\t<h2>How many soccer players should each team have on the field at the start of each match?</h2>\n\t\t\t\t\t\t<br>\n\t\t\t\t\t\t<p>Answer: <strong>11</strong></p>\n\t\t\t\t\t</div>\n\t\t\t\t</div>\n\t\t\t</div>\n\t\t\t","response":null,"trial_type":"html-keyboard-response","trial_index":100,"time_elapsed":533159,"internal_node_id":"0.0-3.0-2.23","prolific_id":"55ea70c37480920010aa9982","session_id":"643c24e5495da8126217377c","study_id":"64370a36d30bfa807bc7e43c"},{"rt":1451,"stimulus":"\n\t\t\t\t\t<div>\n\t\t\t\t\t<h2>Trial 24 is over</h2>\n\t\t\t\t\t<p>Press <span style=\"color: red\"><strong>any key</strong></span> to continue to the next trial</p>\n\t\t\t\t\t</div>\n\t\t\t\t","response":"enter","trial_type":"html-keyboard-response","trial_index":101,"time_elapsed":534610,"internal_node_id":"0.0-3.0-3.23","prolific_id":"55ea70c37480920010aa9982","session_id":"643c24e5495da8126217377c","study_id":"64370a36d30bfa807bc7e43c"},{"rt":12548,"response":{"prediction":"1300"},"trial_type":"survey-text","trial_index":102,"time_elapsed":547159,"internal_node_id":"0.0-3.0-0.24","prolific_id":"55ea70c37480920010aa9982","session_id":"643c24e5495da8126217377c","study_id":"64370a36d30bfa807bc7e43c"},{"rt":4714,"response":{"prior knowledge":0,"curiosity":3},"accuracy":[],"trial_type":"survey","trial_index":103,"time_elapsed":551878,"internal_node_id":"0.0-3.0-1.24","prolific_id":"55ea70c37480920010aa9982","session_id":"643c24e5495da8126217377c","study_id":"64370a36d30bfa807bc7e43c"},{"rt":null,"stimulus":"\n\t\t\t<div class=\"flip_card\">\n\t\t\t\t<div class=\"flip_card_inner\">\n\t\t\t\t\t<div class=\"flip_card_front\">\n\t\t\t\t\t\t<img src=img/25.png>\n\t\t\t\t\t</div>\n\t\t\t\t\t<div class=\"flip_card_back\">\n\t\t\t\t\t\t<h2>How long is the Great Wall of China (in miles)?</h2>\n\t\t\t\t\t\t<br>\n\t\t\t\t\t\t<p>Answer: <strong>13171</strong></p>\n\t\t\t\t\t</div>\n\t\t\t\t</div>\n\t\t\t</div>\n\t\t\t","response":null,"trial_type":"html-keyboard-response","trial_index":104,"time_elapsed":556884,"internal_node_id":"0.0-3.0-2.24","prolific_id":"55ea70c37480920010aa9982","session_id":"643c24e5495da8126217377c","study_id":"64370a36d30bfa807bc7e43c"},{"rt":1270,"stimulus":"\n\t\t\t\t\t<div>\n\t\t\t\t\t<h2>Trial 25 is over</h2>\n\t\t\t\t\t<p>Press <span style=\"color: red\"><strong>any key</strong></span> to continue to the next trial</p>\n\t\t\t\t\t</div>\n\t\t\t\t","response":"enter","trial_type":"html-keyboard-response","trial_index":105,"time_elapsed":558154,"internal_node_id":"0.0-3.0-3.24","prolific_id":"55ea70c37480920010aa9982","session_id":"643c24e5495da8126217377c","study_id":"64370a36d30bfa807bc7e43c"},{"rt":6842,"response":{"prediction":"21"},"trial_type":"survey-text","trial_index":106,"time_elapsed":564997,"internal_node_id":"0.0-3.0-0.25","prolific_id":"55ea70c37480920010aa9982","session_id":"643c24e5495da8126217377c","study_id":"64370a36d30bfa807bc7e43c"},{"rt":5528,"response":{"prior knowledge":1,"curiosity":4},"accuracy":[],"trial_type":"survey","trial_index":107,"time_elapsed":570530,"internal_node_id":"0.0-3.0-1.25","prolific_id":"55ea70c37480920010aa9982","session_id":"643c24e5495da8126217377c","study_id":"64370a36d30bfa807bc7e43c"},{"rt":null,"stimulus":"\n\t\t\t<div class=\"flip_card\">\n\t\t\t\t<div class=\"flip_card_inner\">\n\t\t\t\t\t<div class=\"flip_card_front\">\n\t\t\t\t\t\t<img src=img/21.png>\n\t\t\t\t\t</div>\n\t\t\t\t\t<div class=\"flip_card_back\">\n\t\t\t\t\t\t<h2>How many books are in the Catholic Bible?</h2>\n\t\t\t\t\t\t<br>\n\t\t\t\t\t\t<p>Answer: <strong>73</strong></p>\n\t\t\t\t\t</div>\n\t\t\t\t</div>\n\t\t\t</div>\n\t\t\t","response":null,"trial_type":"html-keyboard-response","trial_index":108,"time_elapsed":575543,"internal_node_id":"0.0-3.0-2.25","prolific_id":"55ea70c37480920010aa9982","session_id":"643c24e5495da8126217377c","study_id":"64370a36d30bfa807bc7e43c"},{"rt":1138,"stimulus":"\n\t\t\t\t\t<div>\n\t\t\t\t\t<h2>Trial 26 is over</h2>\n\t\t\t\t\t<p>Press <span style=\"color: red\"><strong>any key</strong></span> to continue to the next trial</p>\n\t\t\t\t\t</div>\n\t\t\t\t","response":"enter","trial_type":"html-keyboard-response","trial_index":109,"time_elapsed":576682,"internal_node_id":"0.0-3.0-3.25","prolific_id":"55ea70c37480920010aa9982","session_id":"643c24e5495da8126217377c","study_id":"64370a36d30bfa807bc7e43c"},{"rt":8116,"response":{"prediction":"1856"},"trial_type":"survey-text","trial_index":110,"time_elapsed":584799,"internal_node_id":"0.0-3.0-0.26","prolific_id":"55ea70c37480920010aa9982","session_id":"643c24e5495da8126217377c","study_id":"64370a36d30bfa807bc7e43c"},{"rt":5200,"response":{"prior knowledge":0,"curiosity":2},"accuracy":[],"trial_type":"survey","trial_index":111,"time_elapsed":590004,"internal_node_id":"0.0-3.0-1.26","prolific_id":"55ea70c37480920010aa9982","session_id":"643c24e5495da8126217377c","study_id":"64370a36d30bfa807bc7e43c"},{"rt":null,"stimulus":"\n\t\t\t<div class=\"flip_card\">\n\t\t\t\t<div class=\"flip_card_inner\">\n\t\t\t\t\t<div class=\"flip_card_front\">\n\t\t\t\t\t\t<img src=img/16.png>\n\t\t\t\t\t</div>\n\t\t\t\t\t<div class=\"flip_card_back\">\n\t\t\t\t\t\t<h2>In what year was the first Nobel Prize awarded?</h2>\n\t\t\t\t\t\t<br>\n\t\t\t\t\t\t<p>Answer: <strong>1901</strong></p>\n\t\t\t\t\t</div>\n\t\t\t\t</div>\n\t\t\t</div>\n\t\t\t","response":null,"trial_type":"html-keyboard-response","trial_index":112,"time_elapsed":595007,"internal_node_id":"0.0-3.0-2.26","prolific_id":"55ea70c37480920010aa9982","session_id":"643c24e5495da8126217377c","study_id":"64370a36d30bfa807bc7e43c"},{"rt":1363,"stimulus":"\n\t\t\t\t\t<div>\n\t\t\t\t\t<h2>Trial 27 is over</h2>\n\t\t\t\t\t<p>Press <span style=\"color: red\"><strong>any key</strong></span> to continue to the next trial</p>\n\t\t\t\t\t</div>\n\t\t\t\t","response":"enter","trial_type":"html-keyboard-response","trial_index":113,"time_elapsed":596371,"internal_node_id":"0.0-3.0-3.26","prolific_id":"55ea70c37480920010aa9982","session_id":"643c24e5495da8126217377c","study_id":"64370a36d30bfa807bc7e43c"},{"rt":14726,"response":{"prediction":"1984"},"trial_type":"survey-text","trial_index":114,"time_elapsed":611097,"internal_node_id":"0.0-3.0-0.27","prolific_id":"55ea70c37480920010aa9982","session_id":"643c24e5495da8126217377c","study_id":"64370a36d30bfa807bc7e43c"},{"rt":5187,"response":{"prior knowledge":0,"curiosity":3},"accuracy":[],"trial_type":"survey","trial_index":115,"time_elapsed":616290,"internal_node_id":"0.0-3.0-1.27","prolific_id":"55ea70c37480920010aa9982","session_id":"643c24e5495da8126217377c","study_id":"64370a36d30bfa807bc7e43c"},{"rt":null,"stimulus":"\n\t\t\t<div class=\"flip_card\">\n\t\t\t\t<div class=\"flip_card_inner\">\n\t\t\t\t\t<div class=\"flip_card_front\">\n\t\t\t\t\t\t<img src=img/18.png>\n\t\t\t\t\t</div>\n\t\t\t\t\t<div class=\"flip_card_back\">\n\t\t\t\t\t\t<h2>What year did the Berlin Wall fall?</h2>\n\t\t\t\t\t\t<br>\n\t\t\t\t\t\t<p>Answer: <strong>1989</strong></p>\n\t\t\t\t\t</div>\n\t\t\t\t</div>\n\t\t\t</div>\n\t\t\t","response":null,"trial_type":"html-keyboard-response","trial_index":116,"time_elapsed":621297,"internal_node_id":"0.0-3.0-2.27","prolific_id":"55ea70c37480920010aa9982","session_id":"643c24e5495da8126217377c","study_id":"64370a36d30bfa807bc7e43c"},{"rt":1401,"stimulus":"\n\t\t\t\t\t<div>\n\t\t\t\t\t<h2>Trial 28 is over</h2>\n\t\t\t\t\t<p>Press <span style=\"color: red\"><strong>any key</strong></span> to continue to the next trial</p>\n\t\t\t\t\t</div>\n\t\t\t\t","response":"enter","trial_type":"html-keyboard-response","trial_index":117,"time_elapsed":622699,"internal_node_id":"0.0-3.0-3.27","prolific_id":"55ea70c37480920010aa9982","session_id":"643c24e5495da8126217377c","study_id":"64370a36d30bfa807bc7e43c"},{"rt":9494,"response":{"prediction":"270000"},"trial_type":"survey-text","trial_index":118,"time_elapsed":632193,"internal_node_id":"0.0-3.0-0.28","prolific_id":"55ea70c37480920010aa9982","session_id":"643c24e5495da8126217377c","study_id":"64370a36d30bfa807bc7e43c"},{"rt":3510,"response":{"prior knowledge":0,"curiosity":2},"accuracy":[],"trial_type":"survey","trial_index":119,"time_elapsed":635708,"internal_node_id":"0.0-3.0-1.28","prolific_id":"55ea70c37480920010aa9982","session_id":"643c24e5495da8126217377c","study_id":"64370a36d30bfa807bc7e43c"},{"rt":null,"stimulus":"\n\t\t\t<div class=\"flip_card\">\n\t\t\t\t<div class=\"flip_card_inner\">\n\t\t\t\t\t<div class=\"flip_card_front\">\n\t\t\t\t\t\t<img src=img/19.png>\n\t\t\t\t\t</div>\n\t\t\t\t\t<div class=\"flip_card_back\">\n\t\t\t\t\t\t<h2>What is the diameter of Earth in miles?</h2>\n\t\t\t\t\t\t<br>\n\t\t\t\t\t\t<p>Answer: <strong>7917.5</strong></p>\n\t\t\t\t\t</div>\n\t\t\t\t</div>\n\t\t\t</div>\n\t\t\t","response":null,"trial_type":"html-keyboard-response","trial_index":120,"time_elapsed":640710,"internal_node_id":"0.0-3.0-2.28","prolific_id":"55ea70c37480920010aa9982","session_id":"643c24e5495da8126217377c","study_id":"64370a36d30bfa807bc7e43c"},{"rt":1109,"stimulus":"\n\t\t\t\t\t<div>\n\t\t\t\t\t<h2>Trial 29 is over</h2>\n\t\t\t\t\t<p>Press <span style=\"color: red\"><strong>any key</strong></span> to continue to the next trial</p>\n\t\t\t\t\t</div>\n\t\t\t\t","response":"enter","trial_type":"html-keyboard-response","trial_index":121,"time_elapsed":641819,"internal_node_id":"0.0-3.0-3.28","prolific_id":"55ea70c37480920010aa9982","session_id":"643c24e5495da8126217377c","study_id":"64370a36d30bfa807bc7e43c"},{"rt":19168,"response":{"prediction":"2005"},"trial_type":"survey-text","trial_index":122,"time_elapsed":660988,"internal_node_id":"0.0-3.0-0.29","prolific_id":"55ea70c37480920010aa9982","session_id":"643c24e5495da8126217377c","study_id":"64370a36d30bfa807bc7e43c"},{"rt":5108,"response":{"prior knowledge":1,"curiosity":3},"accuracy":[],"trial_type":"survey","trial_index":123,"time_elapsed":666101,"internal_node_id":"0.0-3.0-1.29","prolific_id":"55ea70c37480920010aa9982","session_id":"643c24e5495da8126217377c","study_id":"64370a36d30bfa807bc7e43c"},{"rt":null,"stimulus":"\n\t\t\t<div class=\"flip_card\">\n\t\t\t\t<div class=\"flip_card_inner\">\n\t\t\t\t\t<div class=\"flip_card_front\">\n\t\t\t\t\t\t<img src=img/1.png>\n\t\t\t\t\t</div>\n\t\t\t\t\t<div class=\"flip_card_back\">\n\t\t\t\t\t\t<h2>What year was the very first model of the iPhone released?</h2>\n\t\t\t\t\t\t<br>\n\t\t\t\t\t\t<p>Answer: <strong>2007</strong></p>\n\t\t\t\t\t</div>\n\t\t\t\t</div>\n\t\t\t</div>\n\t\t\t","response":null,"trial_type":"html-keyboard-response","trial_index":124,"time_elapsed":671107,"internal_node_id":"0.0-3.0-2.29","prolific_id":"55ea70c37480920010aa9982","session_id":"643c24e5495da8126217377c","study_id":"64370a36d30bfa807bc7e43c"},{"rt":1352,"stimulus":"\n\t\t\t\t\t<div>\n\t\t\t\t\t<h2>Trial 30 is over</h2>\n\t\t\t\t\t<p>Press <span style=\"color: red\"><strong>any key</strong></span> to continue to the next trial</p>\n\t\t\t\t\t</div>\n\t\t\t\t","response":"enter","trial_type":"html-keyboard-response","trial_index":125,"time_elapsed":672459,"internal_node_id":"0.0-3.0-3.29","prolific_id":"55ea70c37480920010aa9982","session_id":"643c24e5495da8126217377c","study_id":"64370a36d30bfa807bc7e43c"},{"rt":20592,"stimulus":"\n\t\t\t<h2>Good job! You've finished the 30 trials:p</h2>\n\t\t\t<p>In the next session, you will see two cards on the screen in each trial.</p>\n\t\t\t<p>On one card is a pattern that you have seen before in the experiment,\n\t\t\t\tand on the other card is one you have not seen.</p><br>\n\t\t\t<p>Your task is to choose the one you think you <em>have</em> seen before for every trial.</p>\n\t\t\t<p>Press '<span style=\"color: red;\"><strong>F</strong></span>' to choose the card on the left,\n\t\t\t\tand '<span style=\"color: red;\"><strong>J</strong></span>' to choose the card on the right.</p>\n\t\t\t<p>Have fun!</p>\n\t\t\t<br>\n\t\t\t<p>The trials will begin in 30 seconds</p>\n\t\t\t","response":" ","trial_type":"html-keyboard-response","trial_index":126,"time_elapsed":693051,"internal_node_id":"0.0-4.0","prolific_id":"55ea70c37480920010aa9982","session_id":"643c24e5495da8126217377c","study_id":"64370a36d30bfa807bc7e43c"},{"rt":1255,"stimulus":"\n\t\t\t\t\t\t<div class=\"two_card_container\">\n\t\t\t\t\t\t<div class=\"card_container\">\n\t\t\t\t\t\t<img src=img/24.png>\n\t\t\t\t\t\t</div>\n\n\t\t\t\t\t\t<div class=\"card_container\">\n\t\t\t\t\t\t<img src=img/33.png>\n\t\t\t\t\t\t</div>","response":"f","task":"response","correct_response":"f","trial_type":"html-keyboard-response","trial_index":127,"time_elapsed":694307,"internal_node_id":"0.0-5.0-0.0","prolific_id":"55ea70c37480920010aa9982","session_id":"643c24e5495da8126217377c","study_id":"64370a36d30bfa807bc7e43c","correct":true},{"rt":null,"stimulus":"\n\t\t\t\t\t<p>Correct!</p>\n\t\t\t\t\t","response":null,"trial_type":"html-keyboard-response","trial_index":128,"time_elapsed":695310,"internal_node_id":"0.0-5.0-1.0","prolific_id":"55ea70c37480920010aa9982","session_id":"643c24e5495da8126217377c","study_id":"64370a36d30bfa807bc7e43c"},{"rt":1077,"stimulus":"\n\t\t\t\t\t\t<div class=\"two_card_container\">\n\t\t\t\t\t\t<div class=\"card_container\">\n\t\t\t\t\t\t<img src=img/39.png>\n\t\t\t\t\t\t</div>\n\n\t\t\t\t\t\t<div class=\"card_container\">\n\t\t\t\t\t\t<img src=img/28.png>\n\t\t\t\t\t\t</div>","response":"j","task":"response","correct_response":"j","trial_type":"html-keyboard-response","trial_index":129,"time_elapsed":696387,"internal_node_id":"0.0-5.0-0.1","prolific_id":"55ea70c37480920010aa9982","session_id":"643c24e5495da8126217377c","study_id":"64370a36d30bfa807bc7e43c","correct":true},{"rt":null,"stimulus":"\n\t\t\t\t\t<p>Correct!</p>\n\t\t\t\t\t","response":null,"trial_type":"html-keyboard-response","trial_index":130,"time_elapsed":697393,"internal_node_id":"0.0-5.0-1.1","prolific_id":"55ea70c37480920010aa9982","session_id":"643c24e5495da8126217377c","study_id":"64370a36d30bfa807bc7e43c"},{"rt":1161,"stimulus":"\n\t\t\t\t\t\t<div class=\"two_card_container\">\n\t\t\t\t\t\t<div class=\"card_container\">\n\t\t\t\t\t\t<img src=img/32.png>\n\t\t\t\t\t\t</div>\n\n\t\t\t\t\t\t<div class=\"card_container\">\n\t\t\t\t\t\t<img src=img/9.png>\n\t\t\t\t\t\t</div>","response":"j","task":"response","correct_response":"j","trial_type":"html-keyboard-response","trial_index":131,"time_elapsed":698555,"internal_node_id":"0.0-5.0-0.2","prolific_id":"55ea70c37480920010aa9982","session_id":"643c24e5495da8126217377c","study_id":"64370a36d30bfa807bc7e43c","correct":true},{"rt":null,"stimulus":"\n\t\t\t\t\t<p>Correct!</p>\n\t\t\t\t\t","response":null,"trial_type":"html-keyboard-response","trial_index":132,"time_elapsed":699564,"internal_node_id":"0.0-5.0-1.2","prolific_id":"55ea70c37480920010aa9982","session_id":"643c24e5495da8126217377c","study_id":"64370a36d30bfa807bc7e43c"},{"rt":1206,"stimulus":"\n\t\t\t\t\t\t<div class=\"two_card_container\">\n\t\t\t\t\t\t<div class=\"card_container\">\n\t\t\t\t\t\t<img src=img/12.png>\n\t\t\t\t\t\t</div>\n\n\t\t\t\t\t\t<div class=\"card_container\">\n\t\t\t\t\t\t<img src=img/37.png>\n\t\t\t\t\t\t</div>","response":"j","task":"response","correct_response":"f","trial_type":"html-keyboard-response","trial_index":133,"time_elapsed":700770,"internal_node_id":"0.0-5.0-0.3","prolific_id":"55ea70c37480920010aa9982","session_id":"643c24e5495da8126217377c","study_id":"64370a36d30bfa807bc7e43c","correct":false},{"rt":null,"stimulus":"\n\t\t\t\t\t<p>Wrong answer</p>\n\t\t\t\t\t","response":null,"trial_type":"html-keyboard-response","trial_index":134,"time_elapsed":701786,"internal_node_id":"0.0-5.0-1.3","prolific_id":"55ea70c37480920010aa9982","session_id":"643c24e5495da8126217377c","study_id":"64370a36d30bfa807bc7e43c"},{"rt":1209,"stimulus":"\n\t\t\t\t\t\t<div class=\"two_card_container\">\n\t\t\t\t\t\t<div class=\"card_container\">\n\t\t\t\t\t\t<img src=img/35.png>\n\t\t\t\t\t\t</div>\n\n\t\t\t\t\t\t<div class=\"card_container\">\n\t\t\t\t\t\t<img src=img/7.png>\n\t\t\t\t\t\t</div>","response":"j","task":"response","correct_response":"j","trial_type":"html-keyboard-response","trial_index":135,"time_elapsed":702994,"internal_node_id":"0.0-5.0-0.4","prolific_id":"55ea70c37480920010aa9982","session_id":"643c24e5495da8126217377c","study_id":"64370a36d30bfa807bc7e43c","correct":true},{"rt":null,"stimulus":"\n\t\t\t\t\t<p>Correct!</p>\n\t\t\t\t\t","response":null,"trial_type":"html-keyboard-response","trial_index":136,"time_elapsed":703996,"internal_node_id":"0.0-5.0-1.4","prolific_id":"55ea70c37480920010aa9982","session_id":"643c24e5495da8126217377c","study_id":"64370a36d30bfa807bc7e43c"},{"rt":1383,"stimulus":"\n\t\t\t\t\t\t<div class=\"two_card_container\">\n\t\t\t\t\t\t<div class=\"card_container\">\n\t\t\t\t\t\t<img src=img/5.png>\n\t\t\t\t\t\t</div>\n\n\t\t\t\t\t\t<div class=\"card_container\">\n\t\t\t\t\t\t<img src=img/31.png>\n\t\t\t\t\t\t</div>","response":"j","task":"response","correct_response":"f","trial_type":"html-keyboard-response","trial_index":137,"time_elapsed":705379,"internal_node_id":"0.0-5.0-0.5","prolific_id":"55ea70c37480920010aa9982","session_id":"643c24e5495da8126217377c","study_id":"64370a36d30bfa807bc7e43c","correct":false},{"rt":null,"stimulus":"\n\t\t\t\t\t<p>Wrong answer</p>\n\t\t\t\t\t","response":null,"trial_type":"html-keyboard-response","trial_index":138,"time_elapsed":706380,"internal_node_id":"0.0-5.0-1.5","prolific_id":"55ea70c37480920010aa9982","session_id":"643c24e5495da8126217377c","study_id":"64370a36d30bfa807bc7e43c"},{"rt":1710,"stimulus":"\n\t\t\t\t\t\t<div class=\"two_card_container\">\n\t\t\t\t\t\t<div class=\"card_container\">\n\t\t\t\t\t\t<img src=img/22.png>\n\t\t\t\t\t\t</div>\n\n\t\t\t\t\t\t<div class=\"card_container\">\n\t\t\t\t\t\t<img src=img/40.png>\n\t\t\t\t\t\t</div>","response":"f","task":"response","correct_response":"f","trial_type":"html-keyboard-response","trial_index":139,"time_elapsed":708091,"internal_node_id":"0.0-5.0-0.6","prolific_id":"55ea70c37480920010aa9982","session_id":"643c24e5495da8126217377c","study_id":"64370a36d30bfa807bc7e43c","correct":true},{"rt":null,"stimulus":"\n\t\t\t\t\t<p>Correct!</p>\n\t\t\t\t\t","response":null,"trial_type":"html-keyboard-response","trial_index":140,"time_elapsed":709094,"internal_node_id":"0.0-5.0-1.6","prolific_id":"55ea70c37480920010aa9982","session_id":"643c24e5495da8126217377c","study_id":"64370a36d30bfa807bc7e43c"},{"rt":1452,"stimulus":"\n\t\t\t\t\t\t<div class=\"two_card_container\">\n\t\t\t\t\t\t<div class=\"card_container\">\n\t\t\t\t\t\t<img src=img/34.png>\n\t\t\t\t\t\t</div>\n\n\t\t\t\t\t\t<div class=\"card_container\">\n\t\t\t\t\t\t<img src=img/13.png>\n\t\t\t\t\t\t</div>","response":"j","task":"response","correct_response":"j","trial_type":"html-keyboard-response","trial_index":141,"time_elapsed":710547,"internal_node_id":"0.0-5.0-0.7","prolific_id":"55ea70c37480920010aa9982","session_id":"643c24e5495da8126217377c","study_id":"64370a36d30bfa807bc7e43c","correct":true},{"rt":null,"stimulus":"\n\t\t\t\t\t<p>Correct!</p>\n\t\t\t\t\t","response":null,"trial_type":"html-keyboard-response","trial_index":142,"time_elapsed":711549,"internal_node_id":"0.0-5.0-1.7","prolific_id":"55ea70c37480920010aa9982","session_id":"643c24e5495da8126217377c","study_id":"64370a36d30bfa807bc7e43c"},{"rt":1165,"stimulus":"\n\t\t\t\t\t\t<div class=\"two_card_container\">\n\t\t\t\t\t\t<div class=\"card_container\">\n\t\t\t\t\t\t<img src=img/36.png>\n\t\t\t\t\t\t</div>\n\n\t\t\t\t\t\t<div class=\"card_container\">\n\t\t\t\t\t\t<img src=img/8.png>\n\t\t\t\t\t\t</div>","response":"j","task":"response","correct_response":"j","trial_type":"html-keyboard-response","trial_index":143,"time_elapsed":712715,"internal_node_id":"0.0-5.0-0.8","prolific_id":"55ea70c37480920010aa9982","session_id":"643c24e5495da8126217377c","study_id":"64370a36d30bfa807bc7e43c","correct":true},{"rt":null,"stimulus":"\n\t\t\t\t\t<p>Correct!</p>\n\t\t\t\t\t","response":null,"trial_type":"html-keyboard-response","trial_index":144,"time_elapsed":713718,"internal_node_id":"0.0-5.0-1.8","prolific_id":"55ea70c37480920010aa9982","session_id":"643c24e5495da8126217377c","study_id":"64370a36d30bfa807bc7e43c"},{"rt":1341,"stimulus":"\n\t\t\t\t\t\t<div class=\"two_card_container\">\n\t\t\t\t\t\t<div class=\"card_container\">\n\t\t\t\t\t\t<img src=img/11.png>\n\t\t\t\t\t\t</div>\n\n\t\t\t\t\t\t<div class=\"card_container\">\n\t\t\t\t\t\t<img src=img/38.png>\n\t\t\t\t\t\t</div>","response":"j","task":"response","correct_response":"f","trial_type":"html-keyboard-response","trial_index":145,"time_elapsed":715059,"internal_node_id":"0.0-5.0-0.9","prolific_id":"55ea70c37480920010aa9982","session_id":"643c24e5495da8126217377c","study_id":"64370a36d30bfa807bc7e43c","correct":false},{"rt":null,"stimulus":"\n\t\t\t\t\t<p>Wrong answer</p>\n\t\t\t\t\t","response":null,"trial_type":"html-keyboard-response","trial_index":146,"time_elapsed":716073,"internal_node_id":"0.0-5.0-1.9","prolific_id":"55ea70c37480920010aa9982","session_id":"643c24e5495da8126217377c","study_id":"64370a36d30bfa807bc7e43c"},{"rt":6314,"stimulus":"\n\t\t\t<h2>Good job :p</h2>\n\t\t\t<p>In the next session, you will see a trivia question on the screen in each trial.</p>\n\t\t\t<p>Each of these trivia questions is chosen from the questions you have already seen in the first session of the experiment.</p><br>\n\t\t\t<p>Your task is to answer the trivia question based on what you remember as accurately as you can.</p>\n\t\t\t<p>Have fun!</p>\n\t\t\t<br>\n\t\t\t<p>The trials will begin in 30 seconds</p>\n\t\t\t","response":" ","trial_type":"html-keyboard-response","trial_index":147,"time_elapsed":722387,"internal_node_id":"0.0-6.0","prolific_id":"55ea70c37480920010aa9982","session_id":"643c24e5495da8126217377c","study_id":"64370a36d30bfa807bc7e43c"},{"rt":4211,"response":{"answer":"8"},"task":"response","correct_response":"8","trial_type":"survey-text","trial_index":148,"time_elapsed":726603,"internal_node_id":"0.0-7.0-0.0","prolific_id":"55ea70c37480920010aa9982","session_id":"643c24e5495da8126217377c","study_id":"64370a36d30bfa807bc7e43c","difference":0},{"rt":null,"stimulus":"<h2>The correct answer is 8.</h2><p>Your answer was different from the answer by 0.</p><p>You got the right answer. Amazing work!</p>","response":null,"trial_type":"html-keyboard-response","trial_index":149,"time_elapsed":729105,"internal_node_id":"0.0-7.0-1.0","prolific_id":"55ea70c37480920010aa9982","session_id":"643c24e5495da8126217377c","study_id":"64370a36d30bfa807bc7e43c"},{"rt":6166,"response":{"answer":"73"},"task":"response","correct_response":"79","trial_type":"survey-text","trial_index":150,"time_elapsed":735275,"internal_node_id":"0.0-7.0-0.1","prolific_id":"55ea70c37480920010aa9982","session_id":"643c24e5495da8126217377c","study_id":"64370a36d30bfa807bc7e43c","difference":8},{"rt":null,"stimulus":"<h2>The correct answer is 79.</h2><p>Your answer was different from the answer by 6.</p><p>Excellent. Kudos to you!</p>","response":null,"trial_type":"html-keyboard-response","trial_index":151,"time_elapsed":737776,"internal_node_id":"0.0-7.0-1.1","prolific_id":"55ea70c37480920010aa9982","session_id":"643c24e5495da8126217377c","study_id":"64370a36d30bfa807bc7e43c"},{"rt":4262,"response":{"answer":"67"},"task":"response","correct_response":"65","trial_type":"survey-text","trial_index":152,"time_elapsed":742043,"internal_node_id":"0.0-7.0-0.2","prolific_id":"55ea70c37480920010aa9982","session_id":"643c24e5495da8126217377c","study_id":"64370a36d30bfa807bc7e43c","difference":3},{"rt":null,"stimulus":"<h2>The correct answer is 65.</h2><p>Your answer was different from the answer by 2.</p><p>Excellent. Kudos to you!</p>","response":null,"trial_type":"html-keyboard-response","trial_index":153,"time_elapsed":744557,"internal_node_id":"0.0-7.0-1.2","prolific_id":"55ea70c37480920010aa9982","session_id":"643c24e5495da8126217377c","study_id":"64370a36d30bfa807bc7e43c"},{"rt":4578,"response":{"answer":"1912"},"task":"response","correct_response":"1912","trial_type":"survey-text","trial_index":154,"time_elapsed":749139,"internal_node_id":"0.0-7.0-0.3","prolific_id":"55ea70c37480920010aa9982","session_id":"643c24e5495da8126217377c","study_id":"64370a36d30bfa807bc7e43c","difference":0},{"rt":null,"stimulus":"<h2>The correct answer is 1912.</h2><p>Your answer was different from the answer by 0.</p><p>You got the right answer. Amazing work!</p>","response":null,"trial_type":"html-keyboard-response","trial_index":155,"time_elapsed":751654,"internal_node_id":"0.0-7.0-1.3","prolific_id":"55ea70c37480920010aa9982","session_id":"643c24e5495da8126217377c","study_id":"64370a36d30bfa807bc7e43c"},{"rt":7113,"response":{"answer":"183"},"task":"response","correct_response":"163","trial_type":"survey-text","trial_index":156,"time_elapsed":758771,"internal_node_id":"0.0-7.0-0.4","prolific_id":"55ea70c37480920010aa9982","session_id":"643c24e5495da8126217377c","study_id":"64370a36d30bfa807bc7e43c","difference":12},{"rt":null,"stimulus":"<h2>The correct answer is 163.</h2><p>Your answer was different from the answer by 20.</p><p>A pretty good job indeed.</p>","response":null,"trial_type":"html-keyboard-response","trial_index":157,"time_elapsed":761284,"internal_node_id":"0.0-7.0-1.4","prolific_id":"55ea70c37480920010aa9982","session_id":"643c24e5495da8126217377c","study_id":"64370a36d30bfa807bc7e43c"},{"rt":2947,"response":{"answer":"12"},"task":"response","correct_response":"12","trial_type":"survey-text","trial_index":158,"time_elapsed":764235,"internal_node_id":"0.0-7.0-0.5","prolific_id":"55ea70c37480920010aa9982","session_id":"643c24e5495da8126217377c","study_id":"64370a36d30bfa807bc7e43c","difference":0},{"rt":null,"stimulus":"<h2>The correct answer is 12.</h2><p>Your answer was different from the answer by 0.</p><p>You got the right answer. Amazing work!</p>","response":null,"trial_type":"html-keyboard-response","trial_index":159,"time_elapsed":766739,"internal_node_id":"0.0-7.0-1.5","prolific_id":"55ea70c37480920010aa9982","session_id":"643c24e5495da8126217377c","study_id":"64370a36d30bfa807bc7e43c"},{"rt":2308,"response":{"answer":"11"},"task":"response","correct_response":"11","trial_type":"survey-text","trial_index":160,"time_elapsed":769051,"internal_node_id":"0.0-7.0-0.6","prolific_id":"55ea70c37480920010aa9982","session_id":"643c24e5495da8126217377c","study_id":"64370a36d30bfa807bc7e43c","difference":0},{"rt":null,"stimulus":"<h2>The correct answer is 11.</h2><p>Your answer was different from the answer by 0.</p><p>You got the right answer. Amazing work!</p>","response":null,"trial_type":"html-keyboard-response","trial_index":161,"time_elapsed":771556,"internal_node_id":"0.0-7.0-1.6","prolific_id":"55ea70c37480920010aa9982","session_id":"643c24e5495da8126217377c","study_id":"64370a36d30bfa807bc7e43c"},{"rt":4795,"response":{"answer":"1912"},"task":"response","correct_response":"1896","trial_type":"survey-text","trial_index":162,"time_elapsed":776354,"internal_node_id":"0.0-7.0-0.7","prolific_id":"55ea70c37480920010aa9982","session_id":"643c24e5495da8126217377c","study_id":"64370a36d30bfa807bc7e43c","difference":1},{"rt":null,"stimulus":"<h2>The correct answer is 1896.</h2><p>Your answer was different from the answer by 16.</p><p>Excellent. Kudos to you!</p>","response":null,"trial_type":"html-keyboard-response","trial_index":163,"time_elapsed":778857,"internal_node_id":"0.0-7.0-1.7","prolific_id":"55ea70c37480920010aa9982","session_id":"643c24e5495da8126217377c","study_id":"64370a36d30bfa807bc7e43c"},{"rt":5428,"response":{"answer":"1901"},"task":"response","correct_response":"1901","trial_type":"survey-text","trial_index":164,"time_elapsed":784290,"internal_node_id":"0.0-7.0-0.8","prolific_id":"55ea70c37480920010aa9982","session_id":"643c24e5495da8126217377c","study_id":"64370a36d30bfa807bc7e43c","difference":0},{"rt":null,"stimulus":"<h2>The correct answer is 1901.</h2><p>Your answer was different from the answer by 0.</p><p>You got the right answer. Amazing work!</p>","response":null,"trial_type":"html-keyboard-response","trial_index":165,"time_elapsed":786801,"internal_node_id":"0.0-7.0-1.8","prolific_id":"55ea70c37480920010aa9982","session_id":"643c24e5495da8126217377c","study_id":"64370a36d30bfa807bc7e43c"},{"rt":2992,"response":{"answer":"1989"},"task":"response","correct_response":"1989","trial_type":"survey-text","trial_index":166,"time_elapsed":789794,"internal_node_id":"0.0-7.0-0.9","prolific_id":"55ea70c37480920010aa9982","session_id":"643c24e5495da8126217377c","study_id":"64370a36d30bfa807bc7e43c","difference":0},{"rt":null,"stimulus":"<h2>The correct answer is 1989.</h2><p>Your answer was different from the answer by 0.</p><p>You got the right answer. Amazing work!</p>","response":null,"trial_type":"html-keyboard-response","trial_index":167,"time_elapsed":792305,"internal_node_id":"0.0-7.0-1.9","prolific_id":"55ea70c37480920010aa9982","session_id":"643c24e5495da8126217377c","study_id":"64370a36d30bfa807bc7e43c"}]