[{"success":true,"timeout":false,"failed_images":[],"failed_audio":[],"failed_video":[],"trial_type":"preload","trial_index":0,"time_elapsed":4422,"internal_node_id":"0.0-0.0","prolific_id":"5765c0fcf2e23200017ded5e","session_id":"643c369803eb612768e312a7","study_id":"64370a36d30bfa807bc7e43c"},{"rt":14004,"stimulus":"\n\t\t\t\t\t<p>Welcome and thank you for participating in this study!</p>\n\t\t\t\t\t<p>In each trial, you will be given a trivia question and then be asked to:</p><br>\n\t\t\t\t\t<div class=\"list\">\n\t\t\t\t\t<p>1) Predict the answer</p>\n\t\t\t\t\t<p>2) Rate how much you already know about the topic</p>\n\t\t\t\t\t<p>3) Rate how much you want to know the answer</p>\n\t\t\t\t\t</div>\n\t\t\t\t\t<br>\n\t\t\t\t\t<p>Then, you will see a card that flips over to reveal the answer.</p>\n\t\t\t\t\t<br>\n\t\t\t\t\t<p>Let's try a practice round. Press <span style=\"color: red\"><strong>any key</strong></span> to move to the next slide</p>\n\t\t\t\t\t","response":"arrowup","trial_type":"html-keyboard-response","trial_index":1,"time_elapsed":18426,"internal_node_id":"0.0-1.0","prolific_id":"5765c0fcf2e23200017ded5e","session_id":"643c369803eb612768e312a7","study_id":"64370a36d30bfa807bc7e43c"},{"rt":6626,"response":{"practice prediction":"2"},"task":"practice","trial_type":"survey-text","trial_index":2,"time_elapsed":25083,"internal_node_id":"0.0-2.0-0.0","prolific_id":"5765c0fcf2e23200017ded5e","session_id":"643c369803eb612768e312a7","study_id":"64370a36d30bfa807bc7e43c"},{"rt":7115,"response":{"practice":5},"accuracy":[],"trial_type":"survey","trial_index":3,"time_elapsed":32243,"internal_node_id":"0.0-2.0-1.0","prolific_id":"5765c0fcf2e23200017ded5e","session_id":"643c369803eb612768e312a7","study_id":"64370a36d30bfa807bc7e43c"},{"rt":null,"stimulus":"\n\t\t\t\t<div class=\"flip_card\">\n\t\t\t\t\t<div class=\"flip_card_inner\">\n\t\t\t\t\t\t<div class=\"flip_card_front\">\n\t\t\t\t\t\t\t<img src=img/practice.png>\n\t\t\t\t\t\t</div>\n\t\t\t\t\t\t<div class=\"flip_card_back\">\n\t\t\t\t\t\t\t<h2>\"How many legs does a lobster have?\"</h2>\n\t\t\t\t\t\t    <br>\n\t\t\t\t\t\t    <p>Answer: <strong>\"10\"</strong></p>\n\t\t\t\t\t    </div>\n\t\t\t\t    </div>\n\t\t\t    </div>\n\t\t\t\t","response":null,"trial_type":"html-keyboard-response","trial_index":4,"time_elapsed":37245,"internal_node_id":"0.0-2.0-2.0","prolific_id":"5765c0fcf2e23200017ded5e","session_id":"643c369803eb612768e312a7","study_id":"64370a36d30bfa807bc7e43c"},{"rt":1573,"stimulus":"\n\t\t\t\t\t<div>\n\t\t\t\t\t<h2>The practice round is over</h2>\n\t\t\t\t\t<p>Press <span style=\"color: red\"><strong>any key</strong></span> to continue to the actual trials</p>\n\t\t\t\t\t<p>Good Luck!</p>\n\t\t\t\t\t</div>\n\t\t\t\t\t","response":"arrowup","trial_type":"html-keyboard-response","trial_index":5,"time_elapsed":38818,"internal_node_id":"0.0-2.0-3.0","prolific_id":"5765c0fcf2e23200017ded5e","session_id":"643c369803eb612768e312a7","study_id":"64370a36d30bfa807bc7e43c"},{"rt":4972,"response":{"prediction":"70"},"trial_type":"survey-text","trial_index":6,"time_elapsed":43791,"internal_node_id":"0.0-3.0-0.0","prolific_id":"5765c0fcf2e23200017ded5e","session_id":"643c369803eb612768e312a7","study_id":"64370a36d30bfa807bc7e43c"},{"rt":3144,"response":{"prior knowledge":0,"curiosity":2},"accuracy":[],"trial_type":"survey","trial_index":7,"time_elapsed":46945,"internal_node_id":"0.0-3.0-1.0","prolific_id":"5765c0fcf2e23200017ded5e","session_id":"643c369803eb612768e312a7","study_id":"64370a36d30bfa807bc7e43c"},{"rt":null,"stimulus":"\n\t\t\t<div class=\"flip_card\">\n\t\t\t\t<div class=\"flip_card_inner\">\n\t\t\t\t\t<div class=\"flip_card_front\">\n\t\t\t\t\t\t<img src=img/12.png>\n\t\t\t\t\t</div>\n\t\t\t\t\t<div class=\"flip_card_back\">\n\t\t\t\t\t\t<h2>How many constellations are there?</h2>\n\t\t\t\t\t\t<br>\n\t\t\t\t\t\t<p>Answer: <strong>88</strong></p>\n\t\t\t\t\t</div>\n\t\t\t\t</div>\n\t\t\t</div>\n\t\t\t","response":null,"trial_type":"html-keyboard-response","trial_index":8,"time_elapsed":51952,"internal_node_id":"0.0-3.0-2.0","prolific_id":"5765c0fcf2e23200017ded5e","session_id":"643c369803eb612768e312a7","study_id":"64370a36d30bfa807bc7e43c"},{"rt":1426,"stimulus":"\n\t\t\t\t\t<div>\n\t\t\t\t\t<h2>Trial 1 is over</h2>\n\t\t\t\t\t<p>Press <span style=\"color: red\"><strong>any key</strong></span> to continue to the next trial</p>\n\t\t\t\t\t</div>\n\t\t\t\t","response":"arrowup","trial_type":"html-keyboard-response","trial_index":9,"time_elapsed":53378,"internal_node_id":"0.0-3.0-3.0","prolific_id":"5765c0fcf2e23200017ded5e","session_id":"643c369803eb612768e312a7","study_id":"64370a36d30bfa807bc7e43c"},{"rt":4831,"response":{"prediction":"1"},"trial_type":"survey-text","trial_index":10,"time_elapsed":58212,"internal_node_id":"0.0-3.0-0.1","prolific_id":"5765c0fcf2e23200017ded5e","session_id":"643c369803eb612768e312a7","study_id":"64370a36d30bfa807bc7e43c"},{"rt":4028,"response":{"prior knowledge":0,"curiosity":4},"accuracy":[],"trial_type":"survey","trial_index":11,"time_elapsed":62250,"internal_node_id":"0.0-3.0-1.1","prolific_id":"5765c0fcf2e23200017ded5e","session_id":"643c369803eb612768e312a7","study_id":"64370a36d30bfa807bc7e43c"},{"rt":null,"stimulus":"\n\t\t\t<div class=\"flip_card\">\n\t\t\t\t<div class=\"flip_card_inner\">\n\t\t\t\t\t<div class=\"flip_card_front\">\n\t\t\t\t\t\t<img src=img/28.png>\n\t\t\t\t\t</div>\n\t\t\t\t\t<div class=\"flip_card_back\">\n\t\t\t\t\t\t<h2>How many books are in the Catholic Bible?</h2>\n\t\t\t\t\t\t<br>\n\t\t\t\t\t\t<p>Answer: <strong>73</strong></p>\n\t\t\t\t\t</div>\n\t\t\t\t</div>\n\t\t\t</div>\n\t\t\t","response":null,"trial_type":"html-keyboard-response","trial_index":12,"time_elapsed":67258,"internal_node_id":"0.0-3.0-2.1","prolific_id":"5765c0fcf2e23200017ded5e","session_id":"643c369803eb612768e312a7","study_id":"64370a36d30bfa807bc7e43c"},{"rt":1783,"stimulus":"\n\t\t\t\t\t<div>\n\t\t\t\t\t<h2>Trial 2 is over</h2>\n\t\t\t\t\t<p>Press <span style=\"color: red\"><strong>any key</strong></span> to continue to the next trial</p>\n\t\t\t\t\t</div>\n\t\t\t\t","response":"arrowup","trial_type":"html-keyboard-response","trial_index":13,"time_elapsed":69043,"internal_node_id":"0.0-3.0-3.1","prolific_id":"5765c0fcf2e23200017ded5e","session_id":"643c369803eb612768e312a7","study_id":"64370a36d30bfa807bc7e43c"},{"rt":7828,"response":{"prediction":"78"},"trial_type":"survey-text","trial_index":14,"time_elapsed":76873,"internal_node_id":"0.0-3.0-0.2","prolific_id":"5765c0fcf2e23200017ded5e","session_id":"643c369803eb612768e312a7","study_id":"64370a36d30bfa807bc7e43c"},{"rt":7700,"response":{"prior knowledge":0,"curiosity":2},"accuracy":[],"trial_type":"survey","trial_index":15,"time_elapsed":84589,"internal_node_id":"0.0-3.0-1.2","prolific_id":"5765c0fcf2e23200017ded5e","session_id":"643c369803eb612768e312a7","study_id":"64370a36d30bfa807bc7e43c"},{"rt":null,"stimulus":"\n\t\t\t<div class=\"flip_card\">\n\t\t\t\t<div class=\"flip_card_inner\">\n\t\t\t\t\t<div class=\"flip_card_front\">\n\t\t\t\t\t\t<img src=img/22.png>\n\t\t\t\t\t</div>\n\t\t\t\t\t<div class=\"flip_card_back\">\n\t\t\t\t\t\t<h2>How many floors are in the Burj Khalifa, the tallest building in the world?</h2>\n\t\t\t\t\t\t<br>\n\t\t\t\t\t\t<p>Answer: <strong>163</strong></p>\n\t\t\t\t\t</div>\n\t\t\t\t</div>\n\t\t\t</div>\n\t\t\t","response":null,"trial_type":"html-keyboard-response","trial_index":16,"time_elapsed":89590,"internal_node_id":"0.0-3.0-2.2","prolific_id":"5765c0fcf2e23200017ded5e","session_id":"643c369803eb612768e312a7","study_id":"64370a36d30bfa807bc7e43c"},{"rt":1580,"stimulus":"\n\t\t\t\t\t<div>\n\t\t\t\t\t<h2>Trial 3 is over</h2>\n\t\t\t\t\t<p>Press <span style=\"color: red\"><strong>any key</strong></span> to continue to the next trial</p>\n\t\t\t\t\t</div>\n\t\t\t\t","response":"arrowup","trial_type":"html-keyboard-response","trial_index":17,"time_elapsed":91170,"internal_node_id":"0.0-3.0-3.2","prolific_id":"5765c0fcf2e23200017ded5e","session_id":"643c369803eb612768e312a7","study_id":"64370a36d30bfa807bc7e43c"},{"rt":10648,"response":{"prediction":"3"},"trial_type":"survey-text","trial_index":18,"time_elapsed":101819,"internal_node_id":"0.0-3.0-0.3","prolific_id":"5765c0fcf2e23200017ded5e","session_id":"643c369803eb612768e312a7","study_id":"64370a36d30bfa807bc7e43c"},{"rt":2451,"response":{"prior knowledge":0,"curiosity":3},"accuracy":[],"trial_type":"survey","trial_index":19,"time_elapsed":104283,"internal_node_id":"0.0-3.0-1.3","prolific_id":"5765c0fcf2e23200017ded5e","session_id":"643c369803eb612768e312a7","study_id":"64370a36d30bfa807bc7e43c"},{"rt":null,"stimulus":"\n\t\t\t<div class=\"flip_card\">\n\t\t\t\t<div class=\"flip_card_inner\">\n\t\t\t\t\t<div class=\"flip_card_front\">\n\t\t\t\t\t\t<img src=img/4.png>\n\t\t\t\t\t</div>\n\t\t\t\t\t<div class=\"flip_card_back\">\n\t\t\t\t\t\t<h2>How many tones are in the Vietnamese language?</h2>\n\t\t\t\t\t\t<br>\n\t\t\t\t\t\t<p>Answer: <strong>6</strong></p>\n\t\t\t\t\t</div>\n\t\t\t\t</div>\n\t\t\t</div>\n\t\t\t","response":null,"trial_type":"html-keyboard-response","trial_index":20,"time_elapsed":109286,"internal_node_id":"0.0-3.0-2.3","prolific_id":"5765c0fcf2e23200017ded5e","session_id":"643c369803eb612768e312a7","study_id":"64370a36d30bfa807bc7e43c"},{"rt":627,"stimulus":"\n\t\t\t\t\t<div>\n\t\t\t\t\t<h2>Trial 4 is over</h2>\n\t\t\t\t\t<p>Press <span style=\"color: red\"><strong>any key</strong></span> to continue to the next trial</p>\n\t\t\t\t\t</div>\n\t\t\t\t","response":"arrowup","trial_type":"html-keyboard-response","trial_index":21,"time_elapsed":109914,"internal_node_id":"0.0-3.0-3.3","prolific_id":"5765c0fcf2e23200017ded5e","session_id":"643c369803eb612768e312a7","study_id":"64370a36d30bfa807bc7e43c"},{"rt":4772,"response":{"prediction":"2"},"trial_type":"survey-text","trial_index":22,"time_elapsed":114687,"internal_node_id":"0.0-3.0-0.4","prolific_id":"5765c0fcf2e23200017ded5e","session_id":"643c369803eb612768e312a7","study_id":"64370a36d30bfa807bc7e43c"},{"rt":3805,"response":{"prior knowledge":0,"curiosity":0},"accuracy":[],"trial_type":"survey","trial_index":23,"time_elapsed":118505,"internal_node_id":"0.0-3.0-1.4","prolific_id":"5765c0fcf2e23200017ded5e","session_id":"643c369803eb612768e312a7","study_id":"64370a36d30bfa807bc7e43c"},{"rt":null,"stimulus":"\n\t\t\t<div class=\"flip_card\">\n\t\t\t\t<div class=\"flip_card_inner\">\n\t\t\t\t\t<div class=\"flip_card_front\">\n\t\t\t\t\t\t<img src=img/30.png>\n\t\t\t\t\t</div>\n\t\t\t\t\t<div class=\"flip_card_back\">\n\t\t\t\t\t\t<h2>How many countries have territory in the Arctic Circle?</h2>\n\t\t\t\t\t\t<br>\n\t\t\t\t\t\t<p>Answer: <strong>8</strong></p>\n\t\t\t\t\t</div>\n\t\t\t\t</div>\n\t\t\t</div>\n\t\t\t","response":null,"trial_type":"html-keyboard-response","trial_index":24,"time_elapsed":123518,"internal_node_id":"0.0-3.0-2.4","prolific_id":"5765c0fcf2e23200017ded5e","session_id":"643c369803eb612768e312a7","study_id":"64370a36d30bfa807bc7e43c"},{"rt":316,"stimulus":"\n\t\t\t\t\t<div>\n\t\t\t\t\t<h2>Trial 5 is over</h2>\n\t\t\t\t\t<p>Press <span style=\"color: red\"><strong>any key</strong></span> to continue to the next trial</p>\n\t\t\t\t\t</div>\n\t\t\t\t","response":"arrowup","trial_type":"html-keyboard-response","trial_index":25,"time_elapsed":123834,"internal_node_id":"0.0-3.0-3.4","prolific_id":"5765c0fcf2e23200017ded5e","session_id":"643c369803eb612768e312a7","study_id":"64370a36d30bfa807bc7e43c"},{"rt":4146,"response":{"prediction":"4"},"trial_type":"survey-text","trial_index":26,"time_elapsed":127981,"internal_node_id":"0.0-3.0-0.5","prolific_id":"5765c0fcf2e23200017ded5e","session_id":"643c369803eb612768e312a7","study_id":"64370a36d30bfa807bc7e43c"},{"rt":2837,"response":{"prior knowledge":0,"curiosity":2},"accuracy":[],"trial_type":"survey","trial_index":27,"time_elapsed":130829,"internal_node_id":"0.0-3.0-1.5","prolific_id":"5765c0fcf2e23200017ded5e","session_id":"643c369803eb612768e312a7","study_id":"64370a36d30bfa807bc7e43c"},{"rt":null,"stimulus":"\n\t\t\t<div class=\"flip_card\">\n\t\t\t\t<div class=\"flip_card_inner\">\n\t\t\t\t\t<div class=\"flip_card_front\">\n\t\t\t\t\t\t<img src=img/26.png>\n\t\t\t\t\t</div>\n\t\t\t\t\t<div class=\"flip_card_back\">\n\t\t\t\t\t\t<h2>How many main islands make up Japan?</h2>\n\t\t\t\t\t\t<br>\n\t\t\t\t\t\t<p>Answer: <strong>4</strong></p>\n\t\t\t\t\t</div>\n\t\t\t\t</div>\n\t\t\t</div>\n\t\t\t","response":null,"trial_type":"html-keyboard-response","trial_index":28,"time_elapsed":135834,"internal_node_id":"0.0-3.0-2.5","prolific_id":"5765c0fcf2e23200017ded5e","session_id":"643c369803eb612768e312a7","study_id":"64370a36d30bfa807bc7e43c"},{"rt":1423,"stimulus":"\n\t\t\t\t\t<div>\n\t\t\t\t\t<h2>Trial 6 is over</h2>\n\t\t\t\t\t<p>Press <span style=\"color: red\"><strong>any key</strong></span> to continue to the next trial</p>\n\t\t\t\t\t</div>\n\t\t\t\t","response":"arrowup","trial_type":"html-keyboard-response","trial_index":29,"time_elapsed":137258,"internal_node_id":"0.0-3.0-3.5","prolific_id":"5765c0fcf2e23200017ded5e","session_id":"643c369803eb612768e312a7","study_id":"64370a36d30bfa807bc7e43c"},{"rt":5146,"response":{"prediction":"1882"},"trial_type":"survey-text","trial_index":30,"time_elapsed":142405,"internal_node_id":"0.0-3.0-0.6","prolific_id":"5765c0fcf2e23200017ded5e","session_id":"643c369803eb612768e312a7","study_id":"64370a36d30bfa807bc7e43c"},{"rt":3075,"response":{"prior knowledge":0,"curiosity":5},"accuracy":[],"trial_type":"survey","trial_index":31,"time_elapsed":145491,"internal_node_id":"0.0-3.0-1.6","prolific_id":"5765c0fcf2e23200017ded5e","session_id":"643c369803eb612768e312a7","study_id":"64370a36d30bfa807bc7e43c"},{"rt":null,"stimulus":"\n\t\t\t<div class=\"flip_card\">\n\t\t\t\t<div class=\"flip_card_inner\">\n\t\t\t\t\t<div class=\"flip_card_front\">\n\t\t\t\t\t\t<img src=img/13.png>\n\t\t\t\t\t</div>\n\t\t\t\t\t<div class=\"flip_card_back\">\n\t\t\t\t\t\t<h2>In what year was the first Nobel Prize awarded?</h2>\n\t\t\t\t\t\t<br>\n\t\t\t\t\t\t<p>Answer: <strong>1901</strong></p>\n\t\t\t\t\t</div>\n\t\t\t\t</div>\n\t\t\t</div>\n\t\t\t","response":null,"trial_type":"html-keyboard-response","trial_index":32,"time_elapsed":150492,"internal_node_id":"0.0-3.0-2.6","prolific_id":"5765c0fcf2e23200017ded5e","session_id":"643c369803eb612768e312a7","study_id":"64370a36d30bfa807bc7e43c"},{"rt":1078,"stimulus":"\n\t\t\t\t\t<div>\n\t\t\t\t\t<h2>Trial 7 is over</h2>\n\t\t\t\t\t<p>Press <span style=\"color: red\"><strong>any key</strong></span> to continue to the next trial</p>\n\t\t\t\t\t</div>\n\t\t\t\t","response":"arrowleft","trial_type":"html-keyboard-response","trial_index":33,"time_elapsed":151570,"internal_node_id":"0.0-3.0-3.6","prolific_id":"5765c0fcf2e23200017ded5e","session_id":"643c369803eb612768e312a7","study_id":"64370a36d30bfa807bc7e43c"},{"rt":3249,"response":{"prediction":"13"},"trial_type":"survey-text","trial_index":34,"time_elapsed":154821,"internal_node_id":"0.0-3.0-0.7","prolific_id":"5765c0fcf2e23200017ded5e","session_id":"643c369803eb612768e312a7","study_id":"64370a36d30bfa807bc7e43c"},{"rt":3271,"response":{"prior knowledge":2,"curiosity":5},"accuracy":[],"trial_type":"survey","trial_index":35,"time_elapsed":158105,"internal_node_id":"0.0-3.0-1.7","prolific_id":"5765c0fcf2e23200017ded5e","session_id":"643c369803eb612768e312a7","study_id":"64370a36d30bfa807bc7e43c"},{"rt":null,"stimulus":"\n\t\t\t<div class=\"flip_card\">\n\t\t\t\t<div class=\"flip_card_inner\">\n\t\t\t\t\t<div class=\"flip_card_front\">\n\t\t\t\t\t\t<img src=img/6.png>\n\t\t\t\t\t</div>\n\t\t\t\t\t<div class=\"flip_card_back\">\n\t\t\t\t\t\t<h2>A bar mitzvah is traditionally celebrated when Jewish males turn what age?</h2>\n\t\t\t\t\t\t<br>\n\t\t\t\t\t\t<p>Answer: <strong>13</strong></p>\n\t\t\t\t\t</div>\n\t\t\t\t</div>\n\t\t\t</div>\n\t\t\t","response":null,"trial_type":"html-keyboard-response","trial_index":36,"time_elapsed":163119,"internal_node_id":"0.0-3.0-2.7","prolific_id":"5765c0fcf2e23200017ded5e","session_id":"643c369803eb612768e312a7","study_id":"64370a36d30bfa807bc7e43c"},{"rt":1171,"stimulus":"\n\t\t\t\t\t<div>\n\t\t\t\t\t<h2>Trial 8 is over</h2>\n\t\t\t\t\t<p>Press <span style=\"color: red\"><strong>any key</strong></span> to continue to the next trial</p>\n\t\t\t\t\t</div>\n\t\t\t\t","response":"arrowleft","trial_type":"html-keyboard-response","trial_index":37,"time_elapsed":164290,"internal_node_id":"0.0-3.0-3.7","prolific_id":"5765c0fcf2e23200017ded5e","session_id":"643c369803eb612768e312a7","study_id":"64370a36d30bfa807bc7e43c"},{"rt":7987,"response":{"prediction":"1782"},"trial_type":"survey-text","trial_index":38,"time_elapsed":172279,"internal_node_id":"0.0-3.0-0.8","prolific_id":"5765c0fcf2e23200017ded5e","session_id":"643c369803eb612768e312a7","study_id":"64370a36d30bfa807bc7e43c"},{"rt":2595,"response":{"prior knowledge":0,"curiosity":1},"accuracy":[],"trial_type":"survey","trial_index":39,"time_elapsed":174887,"internal_node_id":"0.0-3.0-1.8","prolific_id":"5765c0fcf2e23200017ded5e","session_id":"643c369803eb612768e312a7","study_id":"64370a36d30bfa807bc7e43c"},{"rt":null,"stimulus":"\n\t\t\t<div class=\"flip_card\">\n\t\t\t\t<div class=\"flip_card_inner\">\n\t\t\t\t\t<div class=\"flip_card_front\">\n\t\t\t\t\t\t<img src=img/18.png>\n\t\t\t\t\t</div>\n\t\t\t\t\t<div class=\"flip_card_back\">\n\t\t\t\t\t\t<h2>What year did the Berlin Wall fall?</h2>\n\t\t\t\t\t\t<br>\n\t\t\t\t\t\t<p>Answer: <strong>1989</strong></p>\n\t\t\t\t\t</div>\n\t\t\t\t</div>\n\t\t\t</div>\n\t\t\t","response":null,"trial_type":"html-keyboard-response","trial_index":40,"time_elapsed":179893,"internal_node_id":"0.0-3.0-2.8","prolific_id":"5765c0fcf2e23200017ded5e","session_id":"643c369803eb612768e312a7","study_id":"64370a36d30bfa807bc7e43c"},{"rt":1221,"stimulus":"\n\t\t\t\t\t<div>\n\t\t\t\t\t<h2>Trial 9 is over</h2>\n\t\t\t\t\t<p>Press <span style=\"color: red\"><strong>any key</strong></span> to continue to the next trial</p>\n\t\t\t\t\t</div>\n\t\t\t\t","response":"arrowleft","trial_type":"html-keyboard-response","trial_index":41,"time_elapsed":181114,"internal_node_id":"0.0-3.0-3.8","prolific_id":"5765c0fcf2e23200017ded5e","session_id":"643c369803eb612768e312a7","study_id":"64370a36d30bfa807bc7e43c"},{"rt":4875,"response":{"prediction":"7"},"trial_type":"survey-text","trial_index":42,"time_elapsed":185989,"internal_node_id":"0.0-3.0-0.9","prolific_id":"5765c0fcf2e23200017ded5e","session_id":"643c369803eb612768e312a7","study_id":"64370a36d30bfa807bc7e43c"},{"rt":2646,"response":{"prior knowledge":0,"curiosity":1},"accuracy":[],"trial_type":"survey","trial_index":43,"time_elapsed":188647,"internal_node_id":"0.0-3.0-1.9","prolific_id":"5765c0fcf2e23200017ded5e","session_id":"643c369803eb612768e312a7","study_id":"64370a36d30bfa807bc7e43c"},{"rt":null,"stimulus":"\n\t\t\t<div class=\"flip_card\">\n\t\t\t\t<div class=\"flip_card_inner\">\n\t\t\t\t\t<div class=\"flip_card_front\">\n\t\t\t\t\t\t<img src=img/3.png>\n\t\t\t\t\t</div>\n\t\t\t\t\t<div class=\"flip_card_back\">\n\t\t\t\t\t\t<h2>How many soccer players should each team have on the field at the start of each match?</h2>\n\t\t\t\t\t\t<br>\n\t\t\t\t\t\t<p>Answer: <strong>11</strong></p>\n\t\t\t\t\t</div>\n\t\t\t\t</div>\n\t\t\t</div>\n\t\t\t","response":null,"trial_type":"html-keyboard-response","trial_index":44,"time_elapsed":193650,"internal_node_id":"0.0-3.0-2.9","prolific_id":"5765c0fcf2e23200017ded5e","session_id":"643c369803eb612768e312a7","study_id":"64370a36d30bfa807bc7e43c"},{"rt":1207,"stimulus":"\n\t\t\t\t\t<div>\n\t\t\t\t\t<h2>Trial 10 is over</h2>\n\t\t\t\t\t<p>Press <span style=\"color: red\"><strong>any key</strong></span> to continue to the next trial</p>\n\t\t\t\t\t</div>\n\t\t\t\t","response":"arrowleft","trial_type":"html-keyboard-response","trial_index":45,"time_elapsed":194857,"internal_node_id":"0.0-3.0-3.9","prolific_id":"5765c0fcf2e23200017ded5e","session_id":"643c369803eb612768e312a7","study_id":"64370a36d30bfa807bc7e43c"},{"rt":11180,"response":{"prediction":"41"},"trial_type":"survey-text","trial_index":46,"time_elapsed":206039,"internal_node_id":"0.0-3.0-0.10","prolific_id":"5765c0fcf2e23200017ded5e","session_id":"643c369803eb612768e312a7","study_id":"64370a36d30bfa807bc7e43c"},{"rt":3666,"response":{"prior knowledge":0,"curiosity":1},"accuracy":[],"trial_type":"survey","trial_index":47,"time_elapsed":209716,"internal_node_id":"0.0-3.0-1.10","prolific_id":"5765c0fcf2e23200017ded5e","session_id":"643c369803eb612768e312a7","study_id":"64370a36d30bfa807bc7e43c"},{"rt":null,"stimulus":"\n\t\t\t<div class=\"flip_card\">\n\t\t\t\t<div class=\"flip_card_inner\">\n\t\t\t\t\t<div class=\"flip_card_front\">\n\t\t\t\t\t\t<img src=img/5.png>\n\t\t\t\t\t</div>\n\t\t\t\t\t<div class=\"flip_card_back\">\n\t\t\t\t\t\t<h2>How many books has Stephen King published?</h2>\n\t\t\t\t\t\t<br>\n\t\t\t\t\t\t<p>Answer: <strong>65</strong></p>\n\t\t\t\t\t</div>\n\t\t\t\t</div>\n\t\t\t</div>\n\t\t\t","response":null,"trial_type":"html-keyboard-response","trial_index":48,"time_elapsed":214718,"internal_node_id":"0.0-3.0-2.10","prolific_id":"5765c0fcf2e23200017ded5e","session_id":"643c369803eb612768e312a7","study_id":"64370a36d30bfa807bc7e43c"},{"rt":1131,"stimulus":"\n\t\t\t\t\t<div>\n\t\t\t\t\t<h2>Trial 11 is over</h2>\n\t\t\t\t\t<p>Press <span style=\"color: red\"><strong>any key</strong></span> to continue to the next trial</p>\n\t\t\t\t\t</div>\n\t\t\t\t","response":"arrowleft","trial_type":"html-keyboard-response","trial_index":49,"time_elapsed":215850,"internal_node_id":"0.0-3.0-3.10","prolific_id":"5765c0fcf2e23200017ded5e","session_id":"643c369803eb612768e312a7","study_id":"64370a36d30bfa807bc7e43c"},{"rt":4741,"response":{"prediction":"2009"},"trial_type":"survey-text","trial_index":50,"time_elapsed":220593,"internal_node_id":"0.0-3.0-0.11","prolific_id":"5765c0fcf2e23200017ded5e","session_id":"643c369803eb612768e312a7","study_id":"64370a36d30bfa807bc7e43c"},{"rt":3116,"response":{"prior knowledge":2,"curiosity":5},"accuracy":[],"trial_type":"survey","trial_index":51,"time_elapsed":223720,"internal_node_id":"0.0-3.0-1.11","prolific_id":"5765c0fcf2e23200017ded5e","session_id":"643c369803eb612768e312a7","study_id":"64370a36d30bfa807bc7e43c"},{"rt":null,"stimulus":"\n\t\t\t<div class=\"flip_card\">\n\t\t\t\t<div class=\"flip_card_inner\">\n\t\t\t\t\t<div class=\"flip_card_front\">\n\t\t\t\t\t\t<img src=img/25.png>\n\t\t\t\t\t</div>\n\t\t\t\t\t<div class=\"flip_card_back\">\n\t\t\t\t\t\t<h2>What year was the very first model of the iPhone released?</h2>\n\t\t\t\t\t\t<br>\n\t\t\t\t\t\t<p>Answer: <strong>2007</strong></p>\n\t\t\t\t\t</div>\n\t\t\t\t</div>\n\t\t\t</div>\n\t\t\t","response":null,"trial_type":"html-keyboard-response","trial_index":52,"time_elapsed":228721,"internal_node_id":"0.0-3.0-2.11","prolific_id":"5765c0fcf2e23200017ded5e","session_id":"643c369803eb612768e312a7","study_id":"64370a36d30bfa807bc7e43c"},{"rt":1039,"stimulus":"\n\t\t\t\t\t<div>\n\t\t\t\t\t<h2>Trial 12 is over</h2>\n\t\t\t\t\t<p>Press <span style=\"color: red\"><strong>any key</strong></span> to continue to the next trial</p>\n\t\t\t\t\t</div>\n\t\t\t\t","response":"arrowleft","trial_type":"html-keyboard-response","trial_index":53,"time_elapsed":229762,"internal_node_id":"0.0-3.0-3.11","prolific_id":"5765c0fcf2e23200017ded5e","session_id":"643c369803eb612768e312a7","study_id":"64370a36d30bfa807bc7e43c"},{"rt":2805,"response":{"prediction":"6"},"trial_type":"survey-text","trial_index":54,"time_elapsed":232569,"internal_node_id":"0.0-3.0-0.12","prolific_id":"5765c0fcf2e23200017ded5e","session_id":"643c369803eb612768e312a7","study_id":"64370a36d30bfa807bc7e43c"},{"rt":2635,"response":{"prior knowledge":0,"curiosity":2},"accuracy":[],"trial_type":"survey","trial_index":55,"time_elapsed":235220,"internal_node_id":"0.0-3.0-1.12","prolific_id":"5765c0fcf2e23200017ded5e","session_id":"643c369803eb612768e312a7","study_id":"64370a36d30bfa807bc7e43c"},{"rt":null,"stimulus":"\n\t\t\t<div class=\"flip_card\">\n\t\t\t\t<div class=\"flip_card_inner\">\n\t\t\t\t\t<div class=\"flip_card_front\">\n\t\t\t\t\t\t<img src=img/10.png>\n\t\t\t\t\t</div>\n\t\t\t\t\t<div class=\"flip_card_back\">\n\t\t\t\t\t\t<h2>How many moons does Neptune have?</h2>\n\t\t\t\t\t\t<br>\n\t\t\t\t\t\t<p>Answer: <strong>14</strong></p>\n\t\t\t\t\t</div>\n\t\t\t\t</div>\n\t\t\t</div>\n\t\t\t","response":null,"trial_type":"html-keyboard-response","trial_index":56,"time_elapsed":240229,"internal_node_id":"0.0-3.0-2.12","prolific_id":"5765c0fcf2e23200017ded5e","session_id":"643c369803eb612768e312a7","study_id":"64370a36d30bfa807bc7e43c"},{"rt":309,"stimulus":"\n\t\t\t\t\t<div>\n\t\t\t\t\t<h2>Trial 13 is over</h2>\n\t\t\t\t\t<p>Press <span style=\"color: red\"><strong>any key</strong></span> to continue to the next trial</p>\n\t\t\t\t\t</div>\n\t\t\t\t","response":"arrowup","trial_type":"html-keyboard-response","trial_index":57,"time_elapsed":240538,"internal_node_id":"0.0-3.0-3.12","prolific_id":"5765c0fcf2e23200017ded5e","session_id":"643c369803eb612768e312a7","study_id":"64370a36d30bfa807bc7e43c"},{"rt":6537,"response":{"prediction":"1931"},"trial_type":"survey-text","trial_index":58,"time_elapsed":247077,"internal_node_id":"0.0-3.0-0.13","prolific_id":"5765c0fcf2e23200017ded5e","session_id":"643c369803eb612768e312a7","study_id":"64370a36d30bfa807bc7e43c"},{"rt":4260,"response":{"prior knowledge":0,"curiosity":5},"accuracy":[],"trial_type":"survey","trial_index":59,"time_elapsed":251349,"internal_node_id":"0.0-3.0-1.13","prolific_id":"5765c0fcf2e23200017ded5e","session_id":"643c369803eb612768e312a7","study_id":"64370a36d30bfa807bc7e43c"},{"rt":null,"stimulus":"\n\t\t\t<div class=\"flip_card\">\n\t\t\t\t<div class=\"flip_card_inner\">\n\t\t\t\t\t<div class=\"flip_card_front\">\n\t\t\t\t\t\t<img src=img/16.png>\n\t\t\t\t\t</div>\n\t\t\t\t\t<div class=\"flip_card_back\">\n\t\t\t\t\t\t<h2>In what year did the first Modern Olympic Games take place?</h2>\n\t\t\t\t\t\t<br>\n\t\t\t\t\t\t<p>Answer: <strong>1896</strong></p>\n\t\t\t\t\t</div>\n\t\t\t\t</div>\n\t\t\t</div>\n\t\t\t","response":null,"trial_type":"html-keyboard-response","trial_index":60,"time_elapsed":256353,"internal_node_id":"0.0-3.0-2.13","prolific_id":"5765c0fcf2e23200017ded5e","session_id":"643c369803eb612768e312a7","study_id":"64370a36d30bfa807bc7e43c"},{"rt":1359,"stimulus":"\n\t\t\t\t\t<div>\n\t\t\t\t\t<h2>Trial 14 is over</h2>\n\t\t\t\t\t<p>Press <span style=\"color: red\"><strong>any key</strong></span> to continue to the next trial</p>\n\t\t\t\t\t</div>\n\t\t\t\t","response":"arrowleft","trial_type":"html-keyboard-response","trial_index":61,"time_elapsed":257713,"internal_node_id":"0.0-3.0-3.13","prolific_id":"5765c0fcf2e23200017ded5e","session_id":"643c369803eb612768e312a7","study_id":"64370a36d30bfa807bc7e43c"},{"rt":3643,"response":{"prediction":"661"},"trial_type":"survey-text","trial_index":62,"time_elapsed":261357,"internal_node_id":"0.0-3.0-0.14","prolific_id":"5765c0fcf2e23200017ded5e","session_id":"643c369803eb612768e312a7","study_id":"64370a36d30bfa807bc7e43c"},{"rt":4211,"response":{"prior knowledge":0,"curiosity":3},"accuracy":[],"trial_type":"survey","trial_index":63,"time_elapsed":265578,"internal_node_id":"0.0-3.0-1.14","prolific_id":"5765c0fcf2e23200017ded5e","session_id":"643c369803eb612768e312a7","study_id":"64370a36d30bfa807bc7e43c"},{"rt":null,"stimulus":"\n\t\t\t<div class=\"flip_card\">\n\t\t\t\t<div class=\"flip_card_inner\">\n\t\t\t\t\t<div class=\"flip_card_front\">\n\t\t\t\t\t\t<img src=img/23.png>\n\t\t\t\t\t</div>\n\t\t\t\t\t<div class=\"flip_card_back\">\n\t\t\t\t\t\t<h2>How long is the Great Wall of China (in miles)?</h2>\n\t\t\t\t\t\t<br>\n\t\t\t\t\t\t<p>Answer: <strong>13171</strong></p>\n\t\t\t\t\t</div>\n\t\t\t\t</div>\n\t\t\t</div>\n\t\t\t","response":null,"trial_type":"html-keyboard-response","trial_index":64,"time_elapsed":270580,"internal_node_id":"0.0-3.0-2.14","prolific_id":"5765c0fcf2e23200017ded5e","session_id":"643c369803eb612768e312a7","study_id":"64370a36d30bfa807bc7e43c"},{"rt":1398,"stimulus":"\n\t\t\t\t\t<div>\n\t\t\t\t\t<h2>Trial 15 is over</h2>\n\t\t\t\t\t<p>Press <span style=\"color: red\"><strong>any key</strong></span> to continue to the next trial</p>\n\t\t\t\t\t</div>\n\t\t\t\t","response":"arrowleft","trial_type":"html-keyboard-response","trial_index":65,"time_elapsed":271977,"internal_node_id":"0.0-3.0-3.14","prolific_id":"5765c0fcf2e23200017ded5e","session_id":"643c369803eb612768e312a7","study_id":"64370a36d30bfa807bc7e43c"},{"rt":4843,"response":{"prediction":"2"},"trial_type":"survey-text","trial_index":66,"time_elapsed":276820,"internal_node_id":"0.0-3.0-0.15","prolific_id":"5765c0fcf2e23200017ded5e","session_id":"643c369803eb612768e312a7","study_id":"64370a36d30bfa807bc7e43c"},{"rt":2592,"response":{"prior knowledge":0,"curiosity":4},"accuracy":[],"trial_type":"survey","trial_index":67,"time_elapsed":279424,"internal_node_id":"0.0-3.0-1.15","prolific_id":"5765c0fcf2e23200017ded5e","session_id":"643c369803eb612768e312a7","study_id":"64370a36d30bfa807bc7e43c"},{"rt":null,"stimulus":"\n\t\t\t<div class=\"flip_card\">\n\t\t\t\t<div class=\"flip_card_inner\">\n\t\t\t\t\t<div class=\"flip_card_front\">\n\t\t\t\t\t\t<img src=img/15.png>\n\t\t\t\t\t</div>\n\t\t\t\t\t<div class=\"flip_card_back\">\n\t\t\t\t\t\t<h2>How many double stitches does a baseball have?</h2>\n\t\t\t\t\t\t<br>\n\t\t\t\t\t\t<p>Answer: <strong>108</strong></p>\n\t\t\t\t\t</div>\n\t\t\t\t</div>\n\t\t\t</div>\n\t\t\t","response":null,"trial_type":"html-keyboard-response","trial_index":68,"time_elapsed":284426,"internal_node_id":"0.0-3.0-2.15","prolific_id":"5765c0fcf2e23200017ded5e","session_id":"643c369803eb612768e312a7","study_id":"64370a36d30bfa807bc7e43c"},{"rt":1352,"stimulus":"\n\t\t\t\t\t<div>\n\t\t\t\t\t<h2>Trial 16 is over</h2>\n\t\t\t\t\t<p>Press <span style=\"color: red\"><strong>any key</strong></span> to continue to the next trial</p>\n\t\t\t\t\t</div>\n\t\t\t\t","response":"arrowup","trial_type":"html-keyboard-response","trial_index":69,"time_elapsed":285778,"internal_node_id":"0.0-3.0-3.15","prolific_id":"5765c0fcf2e23200017ded5e","session_id":"643c369803eb612768e312a7","study_id":"64370a36d30bfa807bc7e43c"},{"rt":5389,"response":{"prediction":"3"},"trial_type":"survey-text","trial_index":70,"time_elapsed":291168,"internal_node_id":"0.0-3.0-0.16","prolific_id":"5765c0fcf2e23200017ded5e","session_id":"643c369803eb612768e312a7","study_id":"64370a36d30bfa807bc7e43c"},{"rt":3027,"response":{"prior knowledge":0,"curiosity":0},"accuracy":[],"trial_type":"survey","trial_index":71,"time_elapsed":294206,"internal_node_id":"0.0-3.0-1.16","prolific_id":"5765c0fcf2e23200017ded5e","session_id":"643c369803eb612768e312a7","study_id":"64370a36d30bfa807bc7e43c"},{"rt":null,"stimulus":"\n\t\t\t<div class=\"flip_card\">\n\t\t\t\t<div class=\"flip_card_inner\">\n\t\t\t\t\t<div class=\"flip_card_front\">\n\t\t\t\t\t\t<img src=img/14.png>\n\t\t\t\t\t</div>\n\t\t\t\t\t<div class=\"flip_card_back\">\n\t\t\t\t\t\t<h2>How many countries in Africa have French as the official language?</h2>\n\t\t\t\t\t\t<br>\n\t\t\t\t\t\t<p>Answer: <strong>21</strong></p>\n\t\t\t\t\t</div>\n\t\t\t\t</div>\n\t\t\t</div>\n\t\t\t","response":null,"trial_type":"html-keyboard-response","trial_index":72,"time_elapsed":299207,"internal_node_id":"0.0-3.0-2.16","prolific_id":"5765c0fcf2e23200017ded5e","session_id":"643c369803eb612768e312a7","study_id":"64370a36d30bfa807bc7e43c"},{"rt":1186,"stimulus":"\n\t\t\t\t\t<div>\n\t\t\t\t\t<h2>Trial 17 is over</h2>\n\t\t\t\t\t<p>Press <span style=\"color: red\"><strong>any key</strong></span> to continue to the next trial</p>\n\t\t\t\t\t</div>\n\t\t\t\t","response":"arrowleft","trial_type":"html-keyboard-response","trial_index":73,"time_elapsed":300394,"internal_node_id":"0.0-3.0-3.16","prolific_id":"5765c0fcf2e23200017ded5e","session_id":"643c369803eb612768e312a7","study_id":"64370a36d30bfa807bc7e43c"},{"rt":3976,"response":{"prediction":"5000"},"trial_type":"survey-text","trial_index":74,"time_elapsed":304370,"internal_node_id":"0.0-3.0-0.17","prolific_id":"5765c0fcf2e23200017ded5e","session_id":"643c369803eb612768e312a7","study_id":"64370a36d30bfa807bc7e43c"},{"rt":2430,"response":{"prior knowledge":0,"curiosity":3},"accuracy":[],"trial_type":"survey","trial_index":75,"time_elapsed":306812,"internal_node_id":"0.0-3.0-1.17","prolific_id":"5765c0fcf2e23200017ded5e","session_id":"643c369803eb612768e312a7","study_id":"64370a36d30bfa807bc7e43c"},{"rt":null,"stimulus":"\n\t\t\t<div class=\"flip_card\">\n\t\t\t\t<div class=\"flip_card_inner\">\n\t\t\t\t\t<div class=\"flip_card_front\">\n\t\t\t\t\t\t<img src=img/11.png>\n\t\t\t\t\t</div>\n\t\t\t\t\t<div class=\"flip_card_back\">\n\t\t\t\t\t\t<h2>What is the diameter of Earth in miles?</h2>\n\t\t\t\t\t\t<br>\n\t\t\t\t\t\t<p>Answer: <strong>7917.5</strong></p>\n\t\t\t\t\t</div>\n\t\t\t\t</div>\n\t\t\t</div>\n\t\t\t","response":null,"trial_type":"html-keyboard-response","trial_index":76,"time_elapsed":311826,"internal_node_id":"0.0-3.0-2.17","prolific_id":"5765c0fcf2e23200017ded5e","session_id":"643c369803eb612768e312a7","study_id":"64370a36d30bfa807bc7e43c"},{"rt":1015,"stimulus":"\n\t\t\t\t\t<div>\n\t\t\t\t\t<h2>Trial 18 is over</h2>\n\t\t\t\t\t<p>Press <span style=\"color: red\"><strong>any key</strong></span> to continue to the next trial</p>\n\t\t\t\t\t</div>\n\t\t\t\t","response":"arrowleft","trial_type":"html-keyboard-response","trial_index":77,"time_elapsed":312842,"internal_node_id":"0.0-3.0-3.17","prolific_id":"5765c0fcf2e23200017ded5e","session_id":"643c369803eb612768e312a7","study_id":"64370a36d30bfa807bc7e43c"},{"rt":3123,"response":{"prediction":"81"},"trial_type":"survey-text","trial_index":78,"time_elapsed":315966,"internal_node_id":"0.0-3.0-0.18","prolific_id":"5765c0fcf2e23200017ded5e","session_id":"643c369803eb612768e312a7","study_id":"64370a36d30bfa807bc7e43c"},{"rt":2691,"response":{"prior knowledge":0,"curiosity":2},"accuracy":[],"trial_type":"survey","trial_index":79,"time_elapsed":318668,"internal_node_id":"0.0-3.0-1.18","prolific_id":"5765c0fcf2e23200017ded5e","session_id":"643c369803eb612768e312a7","study_id":"64370a36d30bfa807bc7e43c"},{"rt":null,"stimulus":"\n\t\t\t<div class=\"flip_card\">\n\t\t\t\t<div class=\"flip_card_inner\">\n\t\t\t\t\t<div class=\"flip_card_front\">\n\t\t\t\t\t\t<img src=img/29.png>\n\t\t\t\t\t</div>\n\t\t\t\t\t<div class=\"flip_card_back\">\n\t\t\t\t\t\t<h2>How old was King Tut when he died?</h2>\n\t\t\t\t\t\t<br>\n\t\t\t\t\t\t<p>Answer: <strong>19</strong></p>\n\t\t\t\t\t</div>\n\t\t\t\t</div>\n\t\t\t</div>\n\t\t\t","response":null,"trial_type":"html-keyboard-response","trial_index":80,"time_elapsed":323673,"internal_node_id":"0.0-3.0-2.18","prolific_id":"5765c0fcf2e23200017ded5e","session_id":"643c369803eb612768e312a7","study_id":"64370a36d30bfa807bc7e43c"},{"rt":280,"stimulus":"\n\t\t\t\t\t<div>\n\t\t\t\t\t<h2>Trial 19 is over</h2>\n\t\t\t\t\t<p>Press <span style=\"color: red\"><strong>any key</strong></span> to continue to the next trial</p>\n\t\t\t\t\t</div>\n\t\t\t\t","response":"arrowup","trial_type":"html-keyboard-response","trial_index":81,"time_elapsed":323953,"internal_node_id":"0.0-3.0-3.18","prolific_id":"5765c0fcf2e23200017ded5e","session_id":"643c369803eb612768e312a7","study_id":"64370a36d30bfa807bc7e43c"},{"rt":4089,"response":{"prediction":"1"},"trial_type":"survey-text","trial_index":82,"time_elapsed":328044,"internal_node_id":"0.0-3.0-0.19","prolific_id":"5765c0fcf2e23200017ded5e","session_id":"643c369803eb612768e312a7","study_id":"64370a36d30bfa807bc7e43c"},{"rt":2525,"response":{"prior knowledge":0,"curiosity":0},"accuracy":[],"trial_type":"survey","trial_index":83,"time_elapsed":330581,"internal_node_id":"0.0-3.0-1.19","prolific_id":"5765c0fcf2e23200017ded5e","session_id":"643c369803eb612768e312a7","study_id":"64370a36d30bfa807bc7e43c"},{"rt":null,"stimulus":"\n\t\t\t<div class=\"flip_card\">\n\t\t\t\t<div class=\"flip_card_inner\">\n\t\t\t\t\t<div class=\"flip_card_front\">\n\t\t\t\t\t\t<img src=img/2.png>\n\t\t\t\t\t</div>\n\t\t\t\t\t<div class=\"flip_card_back\">\n\t\t\t\t\t\t<h2>How many times a day do Muslims pray?</h2>\n\t\t\t\t\t\t<br>\n\t\t\t\t\t\t<p>Answer: <strong>5</strong></p>\n\t\t\t\t\t</div>\n\t\t\t\t</div>\n\t\t\t</div>\n\t\t\t","response":null,"trial_type":"html-keyboard-response","trial_index":84,"time_elapsed":335584,"internal_node_id":"0.0-3.0-2.19","prolific_id":"5765c0fcf2e23200017ded5e","session_id":"643c369803eb612768e312a7","study_id":"64370a36d30bfa807bc7e43c"},{"rt":320,"stimulus":"\n\t\t\t\t\t<div>\n\t\t\t\t\t<h2>Trial 20 is over</h2>\n\t\t\t\t\t<p>Press <span style=\"color: red\"><strong>any key</strong></span> to continue to the next trial</p>\n\t\t\t\t\t</div>\n\t\t\t\t","response":"arrowup","trial_type":"html-keyboard-response","trial_index":85,"time_elapsed":335905,"internal_node_id":"0.0-3.0-3.19","prolific_id":"5765c0fcf2e23200017ded5e","session_id":"643c369803eb612768e312a7","study_id":"64370a36d30bfa807bc7e43c"},{"rt":6026,"response":{"prediction":"26"},"trial_type":"survey-text","trial_index":86,"time_elapsed":341932,"internal_node_id":"0.0-3.0-0.20","prolific_id":"5765c0fcf2e23200017ded5e","session_id":"643c369803eb612768e312a7","study_id":"64370a36d30bfa807bc7e43c"},{"rt":1926,"response":{"prior knowledge":0,"curiosity":5},"accuracy":[],"trial_type":"survey","trial_index":87,"time_elapsed":343868,"internal_node_id":"0.0-3.0-1.20","prolific_id":"5765c0fcf2e23200017ded5e","session_id":"643c369803eb612768e312a7","study_id":"64370a36d30bfa807bc7e43c"},{"rt":null,"stimulus":"\n\t\t\t<div class=\"flip_card\">\n\t\t\t\t<div class=\"flip_card_inner\">\n\t\t\t\t\t<div class=\"flip_card_front\">\n\t\t\t\t\t\t<img src=img/7.png>\n\t\t\t\t\t</div>\n\t\t\t\t\t<div class=\"flip_card_back\">\n\t\t\t\t\t\t<h2>How many countries are in Africa?</h2>\n\t\t\t\t\t\t<br>\n\t\t\t\t\t\t<p>Answer: <strong>54</strong></p>\n\t\t\t\t\t</div>\n\t\t\t\t</div>\n\t\t\t</div>\n\t\t\t","response":null,"trial_type":"html-keyboard-response","trial_index":88,"time_elapsed":348869,"internal_node_id":"0.0-3.0-2.20","prolific_id":"5765c0fcf2e23200017ded5e","session_id":"643c369803eb612768e312a7","study_id":"64370a36d30bfa807bc7e43c"},{"rt":1092,"stimulus":"\n\t\t\t\t\t<div>\n\t\t\t\t\t<h2>Trial 21 is over</h2>\n\t\t\t\t\t<p>Press <span style=\"color: red\"><strong>any key</strong></span> to continue to the next trial</p>\n\t\t\t\t\t</div>\n\t\t\t\t","response":"arrowleft","trial_type":"html-keyboard-response","trial_index":89,"time_elapsed":349961,"internal_node_id":"0.0-3.0-3.20","prolific_id":"5765c0fcf2e23200017ded5e","session_id":"643c369803eb612768e312a7","study_id":"64370a36d30bfa807bc7e43c"},{"rt":4464,"response":{"prediction":"3"},"trial_type":"survey-text","trial_index":90,"time_elapsed":354426,"internal_node_id":"0.0-3.0-0.21","prolific_id":"5765c0fcf2e23200017ded5e","session_id":"643c369803eb612768e312a7","study_id":"64370a36d30bfa807bc7e43c"},{"rt":2263,"response":{"prior knowledge":0,"curiosity":5},"accuracy":[],"trial_type":"survey","trial_index":91,"time_elapsed":356700,"internal_node_id":"0.0-3.0-1.21","prolific_id":"5765c0fcf2e23200017ded5e","session_id":"643c369803eb612768e312a7","study_id":"64370a36d30bfa807bc7e43c"},{"rt":null,"stimulus":"\n\t\t\t<div class=\"flip_card\">\n\t\t\t\t<div class=\"flip_card_inner\">\n\t\t\t\t\t<div class=\"flip_card_front\">\n\t\t\t\t\t\t<img src=img/8.png>\n\t\t\t\t\t</div>\n\t\t\t\t\t<div class=\"flip_card_back\">\n\t\t\t\t\t\t<h2>How many native species of kangaroos are found in Australia?</h2>\n\t\t\t\t\t\t<br>\n\t\t\t\t\t\t<p>Answer: <strong>4</strong></p>\n\t\t\t\t\t</div>\n\t\t\t\t</div>\n\t\t\t</div>\n\t\t\t","response":null,"trial_type":"html-keyboard-response","trial_index":92,"time_elapsed":361713,"internal_node_id":"0.0-3.0-2.21","prolific_id":"5765c0fcf2e23200017ded5e","session_id":"643c369803eb612768e312a7","study_id":"64370a36d30bfa807bc7e43c"},{"rt":519,"stimulus":"\n\t\t\t\t\t<div>\n\t\t\t\t\t<h2>Trial 22 is over</h2>\n\t\t\t\t\t<p>Press <span style=\"color: red\"><strong>any key</strong></span> to continue to the next trial</p>\n\t\t\t\t\t</div>\n\t\t\t\t","response":"arrowleft","trial_type":"html-keyboard-response","trial_index":93,"time_elapsed":362233,"internal_node_id":"0.0-3.0-3.21","prolific_id":"5765c0fcf2e23200017ded5e","session_id":"643c369803eb612768e312a7","study_id":"64370a36d30bfa807bc7e43c"},{"rt":4355,"response":{"prediction":"291"},"trial_type":"survey-text","trial_index":94,"time_elapsed":366590,"internal_node_id":"0.0-3.0-0.22","prolific_id":"5765c0fcf2e23200017ded5e","session_id":"643c369803eb612768e312a7","study_id":"64370a36d30bfa807bc7e43c"},{"rt":2071,"response":{"prior knowledge":0,"curiosity":5},"accuracy":[],"trial_type":"survey","trial_index":95,"time_elapsed":368672,"internal_node_id":"0.0-3.0-1.22","prolific_id":"5765c0fcf2e23200017ded5e","session_id":"643c369803eb612768e312a7","study_id":"64370a36d30bfa807bc7e43c"},{"rt":null,"stimulus":"\n\t\t\t<div class=\"flip_card\">\n\t\t\t\t<div class=\"flip_card_inner\">\n\t\t\t\t\t<div class=\"flip_card_front\">\n\t\t\t\t\t\t<img src=img/20.png>\n\t\t\t\t\t</div>\n\t\t\t\t\t<div class=\"flip_card_back\">\n\t\t\t\t\t\t<h2>How many bones is a human baby born with?</h2>\n\t\t\t\t\t\t<br>\n\t\t\t\t\t\t<p>Answer: <strong>300</strong></p>\n\t\t\t\t\t</div>\n\t\t\t\t</div>\n\t\t\t</div>\n\t\t\t","response":null,"trial_type":"html-keyboard-response","trial_index":96,"time_elapsed":373676,"internal_node_id":"0.0-3.0-2.22","prolific_id":"5765c0fcf2e23200017ded5e","session_id":"643c369803eb612768e312a7","study_id":"64370a36d30bfa807bc7e43c"},{"rt":1076,"stimulus":"\n\t\t\t\t\t<div>\n\t\t\t\t\t<h2>Trial 23 is over</h2>\n\t\t\t\t\t<p>Press <span style=\"color: red\"><strong>any key</strong></span> to continue to the next trial</p>\n\t\t\t\t\t</div>\n\t\t\t\t","response":"arrowleft","trial_type":"html-keyboard-response","trial_index":97,"time_elapsed":374753,"internal_node_id":"0.0-3.0-3.22","prolific_id":"5765c0fcf2e23200017ded5e","session_id":"643c369803eb612768e312a7","study_id":"64370a36d30bfa807bc7e43c"},{"rt":3794,"response":{"prediction":"12"},"trial_type":"survey-text","trial_index":98,"time_elapsed":378548,"internal_node_id":"0.0-3.0-0.23","prolific_id":"5765c0fcf2e23200017ded5e","session_id":"643c369803eb612768e312a7","study_id":"64370a36d30bfa807bc7e43c"},{"rt":2283,"response":{"prior knowledge":0,"curiosity":5},"accuracy":[],"trial_type":"survey","trial_index":99,"time_elapsed":380842,"internal_node_id":"0.0-3.0-1.23","prolific_id":"5765c0fcf2e23200017ded5e","session_id":"643c369803eb612768e312a7","study_id":"64370a36d30bfa807bc7e43c"},{"rt":null,"stimulus":"\n\t\t\t<div class=\"flip_card\">\n\t\t\t\t<div class=\"flip_card_inner\">\n\t\t\t\t\t<div class=\"flip_card_front\">\n\t\t\t\t\t\t<img src=img/24.png>\n\t\t\t\t\t</div>\n\t\t\t\t\t<div class=\"flip_card_back\">\n\t\t\t\t\t\t<h2>How many single hand gestures, or mudras, are used in Indian classical dance?</h2>\n\t\t\t\t\t\t<br>\n\t\t\t\t\t\t<p>Answer: <strong>28</strong></p>\n\t\t\t\t\t</div>\n\t\t\t\t</div>\n\t\t\t</div>\n\t\t\t","response":null,"trial_type":"html-keyboard-response","trial_index":100,"time_elapsed":385855,"internal_node_id":"0.0-3.0-2.23","prolific_id":"5765c0fcf2e23200017ded5e","session_id":"643c369803eb612768e312a7","study_id":"64370a36d30bfa807bc7e43c"},{"rt":362,"stimulus":"\n\t\t\t\t\t<div>\n\t\t\t\t\t<h2>Trial 24 is over</h2>\n\t\t\t\t\t<p>Press <span style=\"color: red\"><strong>any key</strong></span> to continue to the next trial</p>\n\t\t\t\t\t</div>\n\t\t\t\t","response":"arrowup","trial_type":"html-keyboard-response","trial_index":101,"time_elapsed":386217,"internal_node_id":"0.0-3.0-3.23","prolific_id":"5765c0fcf2e23200017ded5e","session_id":"643c369803eb612768e312a7","study_id":"64370a36d30bfa807bc7e43c"},{"rt":2680,"response":{"prediction":"5"},"trial_type":"survey-text","trial_index":102,"time_elapsed":388898,"internal_node_id":"0.0-3.0-0.24","prolific_id":"5765c0fcf2e23200017ded5e","session_id":"643c369803eb612768e312a7","study_id":"64370a36d30bfa807bc7e43c"},{"rt":2759,"response":{"prior knowledge":0,"curiosity":0},"accuracy":[],"trial_type":"survey","trial_index":103,"time_elapsed":391668,"internal_node_id":"0.0-3.0-1.24","prolific_id":"5765c0fcf2e23200017ded5e","session_id":"643c369803eb612768e312a7","study_id":"64370a36d30bfa807bc7e43c"},{"rt":null,"stimulus":"\n\t\t\t<div class=\"flip_card\">\n\t\t\t\t<div class=\"flip_card_inner\">\n\t\t\t\t\t<div class=\"flip_card_front\">\n\t\t\t\t\t\t<img src=img/17.png>\n\t\t\t\t\t</div>\n\t\t\t\t\t<div class=\"flip_card_back\">\n\t\t\t\t\t\t<h2>How many lines are in a sonnet?</h2>\n\t\t\t\t\t\t<br>\n\t\t\t\t\t\t<p>Answer: <strong>14</strong></p>\n\t\t\t\t\t</div>\n\t\t\t\t</div>\n\t\t\t</div>\n\t\t\t","response":null,"trial_type":"html-keyboard-response","trial_index":104,"time_elapsed":396670,"internal_node_id":"0.0-3.0-2.24","prolific_id":"5765c0fcf2e23200017ded5e","session_id":"643c369803eb612768e312a7","study_id":"64370a36d30bfa807bc7e43c"},{"rt":1051,"stimulus":"\n\t\t\t\t\t<div>\n\t\t\t\t\t<h2>Trial 25 is over</h2>\n\t\t\t\t\t<p>Press <span style=\"color: red\"><strong>any key</strong></span> to continue to the next trial</p>\n\t\t\t\t\t</div>\n\t\t\t\t","response":"arrowleft","trial_type":"html-keyboard-response","trial_index":105,"time_elapsed":397721,"internal_node_id":"0.0-3.0-3.24","prolific_id":"5765c0fcf2e23200017ded5e","session_id":"643c369803eb612768e312a7","study_id":"64370a36d30bfa807bc7e43c"},{"rt":4749,"response":{"prediction":"12"},"trial_type":"survey-text","trial_index":106,"time_elapsed":402472,"internal_node_id":"0.0-3.0-0.25","prolific_id":"5765c0fcf2e23200017ded5e","session_id":"643c369803eb612768e312a7","study_id":"64370a36d30bfa807bc7e43c"},{"rt":2049,"response":{"prior knowledge":0,"curiosity":5},"accuracy":[],"trial_type":"survey","trial_index":107,"time_elapsed":404532,"internal_node_id":"0.0-3.0-1.25","prolific_id":"5765c0fcf2e23200017ded5e","session_id":"643c369803eb612768e312a7","study_id":"64370a36d30bfa807bc7e43c"},{"rt":null,"stimulus":"\n\t\t\t<div class=\"flip_card\">\n\t\t\t\t<div class=\"flip_card_inner\">\n\t\t\t\t\t<div class=\"flip_card_front\">\n\t\t\t\t\t\t<img src=img/9.png>\n\t\t\t\t\t</div>\n\t\t\t\t\t<div class=\"flip_card_back\">\n\t\t\t\t\t\t<h2>How many people are vegan globally (in millions)?</h2>\n\t\t\t\t\t\t<br>\n\t\t\t\t\t\t<p>Answer: <strong>79</strong></p>\n\t\t\t\t\t</div>\n\t\t\t\t</div>\n\t\t\t</div>\n\t\t\t","response":null,"trial_type":"html-keyboard-response","trial_index":108,"time_elapsed":409533,"internal_node_id":"0.0-3.0-2.25","prolific_id":"5765c0fcf2e23200017ded5e","session_id":"643c369803eb612768e312a7","study_id":"64370a36d30bfa807bc7e43c"},{"rt":1091,"stimulus":"\n\t\t\t\t\t<div>\n\t\t\t\t\t<h2>Trial 26 is over</h2>\n\t\t\t\t\t<p>Press <span style=\"color: red\"><strong>any key</strong></span> to continue to the next trial</p>\n\t\t\t\t\t</div>\n\t\t\t\t","response":"arrowleft","trial_type":"html-keyboard-response","trial_index":109,"time_elapsed":410625,"internal_node_id":"0.0-3.0-3.25","prolific_id":"5765c0fcf2e23200017ded5e","session_id":"643c369803eb612768e312a7","study_id":"64370a36d30bfa807bc7e43c"},{"rt":5815,"response":{"prediction":"1952"},"trial_type":"survey-text","trial_index":110,"time_elapsed":416442,"internal_node_id":"0.0-3.0-0.26","prolific_id":"5765c0fcf2e23200017ded5e","session_id":"643c369803eb612768e312a7","study_id":"64370a36d30bfa807bc7e43c"},{"rt":3099,"response":{"prior knowledge":0,"curiosity":3},"accuracy":[],"trial_type":"survey","trial_index":111,"time_elapsed":419551,"internal_node_id":"0.0-3.0-1.26","prolific_id":"5765c0fcf2e23200017ded5e","session_id":"643c369803eb612768e312a7","study_id":"64370a36d30bfa807bc7e43c"},{"rt":null,"stimulus":"\n\t\t\t<div class=\"flip_card\">\n\t\t\t\t<div class=\"flip_card_inner\">\n\t\t\t\t\t<div class=\"flip_card_front\">\n\t\t\t\t\t\t<img src=img/27.png>\n\t\t\t\t\t</div>\n\t\t\t\t\t<div class=\"flip_card_back\">\n\t\t\t\t\t\t<h2>What year did the titanic sink?</h2>\n\t\t\t\t\t\t<br>\n\t\t\t\t\t\t<p>Answer: <strong>1912</strong></p>\n\t\t\t\t\t</div>\n\t\t\t\t</div>\n\t\t\t</div>\n\t\t\t","response":null,"trial_type":"html-keyboard-response","trial_index":112,"time_elapsed":424557,"internal_node_id":"0.0-3.0-2.26","prolific_id":"5765c0fcf2e23200017ded5e","session_id":"643c369803eb612768e312a7","study_id":"64370a36d30bfa807bc7e43c"},{"rt":1011,"stimulus":"\n\t\t\t\t\t<div>\n\t\t\t\t\t<h2>Trial 27 is over</h2>\n\t\t\t\t\t<p>Press <span style=\"color: red\"><strong>any key</strong></span> to continue to the next trial</p>\n\t\t\t\t\t</div>\n\t\t\t\t","response":"arrowup","trial_type":"html-keyboard-response","trial_index":113,"time_elapsed":425568,"internal_node_id":"0.0-3.0-3.26","prolific_id":"5765c0fcf2e23200017ded5e","session_id":"643c369803eb612768e312a7","study_id":"64370a36d30bfa807bc7e43c"},{"rt":4742,"response":{"prediction":"12"},"trial_type":"survey-text","trial_index":114,"time_elapsed":430313,"internal_node_id":"0.0-3.0-0.27","prolific_id":"5765c0fcf2e23200017ded5e","session_id":"643c369803eb612768e312a7","study_id":"64370a36d30bfa807bc7e43c"},{"rt":5222,"response":{"prior knowledge":2,"curiosity":5},"accuracy":[],"trial_type":"survey","trial_index":115,"time_elapsed":435545,"internal_node_id":"0.0-3.0-1.27","prolific_id":"5765c0fcf2e23200017ded5e","session_id":"643c369803eb612768e312a7","study_id":"64370a36d30bfa807bc7e43c"},{"rt":null,"stimulus":"\n\t\t\t<div class=\"flip_card\">\n\t\t\t\t<div class=\"flip_card_inner\">\n\t\t\t\t\t<div class=\"flip_card_front\">\n\t\t\t\t\t\t<img src=img/19.png>\n\t\t\t\t\t</div>\n\t\t\t\t\t<div class=\"flip_card_back\">\n\t\t\t\t\t\t<h2>How many different animals (real or imaginary) are represented in the Chinese calendar?</h2>\n\t\t\t\t\t\t<br>\n\t\t\t\t\t\t<p>Answer: <strong>12</strong></p>\n\t\t\t\t\t</div>\n\t\t\t\t</div>\n\t\t\t</div>\n\t\t\t","response":null,"trial_type":"html-keyboard-response","trial_index":116,"time_elapsed":440547,"internal_node_id":"0.0-3.0-2.27","prolific_id":"5765c0fcf2e23200017ded5e","session_id":"643c369803eb612768e312a7","study_id":"64370a36d30bfa807bc7e43c"},{"rt":1228,"stimulus":"\n\t\t\t\t\t<div>\n\t\t\t\t\t<h2>Trial 28 is over</h2>\n\t\t\t\t\t<p>Press <span style=\"color: red\"><strong>any key</strong></span> to continue to the next trial</p>\n\t\t\t\t\t</div>\n\t\t\t\t","response":"arrowup","trial_type":"html-keyboard-response","trial_index":117,"time_elapsed":441776,"internal_node_id":"0.0-3.0-3.27","prolific_id":"5765c0fcf2e23200017ded5e","session_id":"643c369803eb612768e312a7","study_id":"64370a36d30bfa807bc7e43c"},{"rt":2237,"response":{"prediction":"13"},"trial_type":"survey-text","trial_index":118,"time_elapsed":444015,"internal_node_id":"0.0-3.0-0.28","prolific_id":"5765c0fcf2e23200017ded5e","session_id":"643c369803eb612768e312a7","study_id":"64370a36d30bfa807bc7e43c"},{"rt":3931,"response":{"prior knowledge":5,"curiosity":5},"accuracy":[],"trial_type":"survey","trial_index":119,"time_elapsed":447957,"internal_node_id":"0.0-3.0-1.28","prolific_id":"5765c0fcf2e23200017ded5e","session_id":"643c369803eb612768e312a7","study_id":"64370a36d30bfa807bc7e43c"},{"rt":null,"stimulus":"\n\t\t\t<div class=\"flip_card\">\n\t\t\t\t<div class=\"flip_card_inner\">\n\t\t\t\t\t<div class=\"flip_card_front\">\n\t\t\t\t\t\t<img src=img/21.png>\n\t\t\t\t\t</div>\n\t\t\t\t\t<div class=\"flip_card_back\">\n\t\t\t\t\t\t<h2>How much is in a Baker's Dozen?</h2>\n\t\t\t\t\t\t<br>\n\t\t\t\t\t\t<p>Answer: <strong>13</strong></p>\n\t\t\t\t\t</div>\n\t\t\t\t</div>\n\t\t\t</div>\n\t\t\t","response":null,"trial_type":"html-keyboard-response","trial_index":120,"time_elapsed":452969,"internal_node_id":"0.0-3.0-2.28","prolific_id":"5765c0fcf2e23200017ded5e","session_id":"643c369803eb612768e312a7","study_id":"64370a36d30bfa807bc7e43c"},{"rt":1846,"stimulus":"\n\t\t\t\t\t<div>\n\t\t\t\t\t<h2>Trial 29 is over</h2>\n\t\t\t\t\t<p>Press <span style=\"color: red\"><strong>any key</strong></span> to continue to the next trial</p>\n\t\t\t\t\t</div>\n\t\t\t\t","response":"arrowleft","trial_type":"html-keyboard-response","trial_index":121,"time_elapsed":454816,"internal_node_id":"0.0-3.0-3.28","prolific_id":"5765c0fcf2e23200017ded5e","session_id":"643c369803eb612768e312a7","study_id":"64370a36d30bfa807bc7e43c"},{"rt":3895,"response":{"prediction":"1867"},"trial_type":"survey-text","trial_index":122,"time_elapsed":458713,"internal_node_id":"0.0-3.0-0.29","prolific_id":"5765c0fcf2e23200017ded5e","session_id":"643c369803eb612768e312a7","study_id":"64370a36d30bfa807bc7e43c"},{"rt":3433,"response":{"prior knowledge":0,"curiosity":3},"accuracy":[],"trial_type":"survey","trial_index":123,"time_elapsed":462161,"internal_node_id":"0.0-3.0-1.29","prolific_id":"5765c0fcf2e23200017ded5e","session_id":"643c369803eb612768e312a7","study_id":"64370a36d30bfa807bc7e43c"},{"rt":null,"stimulus":"\n\t\t\t<div class=\"flip_card\">\n\t\t\t\t<div class=\"flip_card_inner\">\n\t\t\t\t\t<div class=\"flip_card_front\">\n\t\t\t\t\t\t<img src=img/1.png>\n\t\t\t\t\t</div>\n\t\t\t\t\t<div class=\"flip_card_back\">\n\t\t\t\t\t\t<h2>In what year was the Mexican artist Frida Kahlo born?</h2>\n\t\t\t\t\t\t<br>\n\t\t\t\t\t\t<p>Answer: <strong>1907</strong></p>\n\t\t\t\t\t</div>\n\t\t\t\t</div>\n\t\t\t</div>\n\t\t\t","response":null,"trial_type":"html-keyboard-response","trial_index":124,"time_elapsed":467961,"internal_node_id":"0.0-3.0-2.29","prolific_id":"5765c0fcf2e23200017ded5e","session_id":"643c369803eb612768e312a7","study_id":"64370a36d30bfa807bc7e43c"},{"rt":1238,"stimulus":"\n\t\t\t\t\t<div>\n\t\t\t\t\t<h2>Trial 30 is over</h2>\n\t\t\t\t\t<p>Press <span style=\"color: red\"><strong>any key</strong></span> to continue to the next trial</p>\n\t\t\t\t\t</div>\n\t\t\t\t","response":"arrowleft","trial_type":"html-keyboard-response","trial_index":125,"time_elapsed":469200,"internal_node_id":"0.0-3.0-3.29","prolific_id":"5765c0fcf2e23200017ded5e","session_id":"643c369803eb612768e312a7","study_id":"64370a36d30bfa807bc7e43c"},{"rt":null,"stimulus":"\n\t\t\t<h2>Good job! You've finished the 30 trials:p</h2>\n\t\t\t<p>In the next session, you will see two cards on the screen in each trial.</p>\n\t\t\t<p>On one card is a pattern that you have seen before in the experiment,\n\t\t\t\tand on the other card is one you have not seen.</p><br>\n\t\t\t<p>Your task is to choose the one you think you <em>have</em> seen before for every trial.</p>\n\t\t\t<p>Press '<span style=\"color: red;\"><strong>F</strong></span>' to choose the card on the left,\n\t\t\t\tand '<span style=\"color: red;\"><strong>J</strong></span>' to choose the card on the right.</p>\n\t\t\t<p>Have fun!</p>\n\t\t\t<br>\n\t\t\t<p>The trials will begin in 30 seconds</p>\n\t\t\t","response":null,"trial_type":"html-keyboard-response","trial_index":126,"time_elapsed":499216,"internal_node_id":"0.0-4.0","prolific_id":"5765c0fcf2e23200017ded5e","session_id":"643c369803eb612768e312a7","study_id":"64370a36d30bfa807bc7e43c"},{"rt":1728,"stimulus":"\n\t\t\t\t\t\t<div class=\"two_card_container\">\n\t\t\t\t\t\t<div class=\"card_container\">\n\t\t\t\t\t\t<img src=img/22.png>\n\t\t\t\t\t\t</div>\n\n\t\t\t\t\t\t<div class=\"card_container\">\n\t\t\t\t\t\t<img src=img/33.png>\n\t\t\t\t\t\t</div>","response":"f","task":"response","correct_response":"f","trial_type":"html-keyboard-response","trial_index":127,"time_elapsed":500945,"internal_node_id":"0.0-5.0-0.0","prolific_id":"5765c0fcf2e23200017ded5e","session_id":"643c369803eb612768e312a7","study_id":"64370a36d30bfa807bc7e43c","correct":true},{"rt":null,"stimulus":"\n\t\t\t\t\t<p>Correct!</p>\n\t\t\t\t\t","response":null,"trial_type":"html-keyboard-response","trial_index":128,"time_elapsed":501950,"internal_node_id":"0.0-5.0-1.0","prolific_id":"5765c0fcf2e23200017ded5e","session_id":"643c369803eb612768e312a7","study_id":"64370a36d30bfa807bc7e43c"},{"rt":1433,"stimulus":"\n\t\t\t\t\t\t<div class=\"two_card_container\">\n\t\t\t\t\t\t<div class=\"card_container\">\n\t\t\t\t\t\t<img src=img/36.png>\n\t\t\t\t\t\t</div>\n\n\t\t\t\t\t\t<div class=\"card_container\">\n\t\t\t\t\t\t<img src=img/28.png>\n\t\t\t\t\t\t</div>","response":"f","task":"response","correct_response":"j","trial_type":"html-keyboard-response","trial_index":129,"time_elapsed":503384,"internal_node_id":"0.0-5.0-0.1","prolific_id":"5765c0fcf2e23200017ded5e","session_id":"643c369803eb612768e312a7","study_id":"64370a36d30bfa807bc7e43c","correct":false},{"rt":null,"stimulus":"\n\t\t\t\t\t<p>Wrong answer</p>\n\t\t\t\t\t","response":null,"trial_type":"html-keyboard-response","trial_index":130,"time_elapsed":504389,"internal_node_id":"0.0-5.0-1.1","prolific_id":"5765c0fcf2e23200017ded5e","session_id":"643c369803eb612768e312a7","study_id":"64370a36d30bfa807bc7e43c"},{"rt":1122,"stimulus":"\n\t\t\t\t\t\t<div class=\"two_card_container\">\n\t\t\t\t\t\t<div class=\"card_container\">\n\t\t\t\t\t\t<img src=img/24.png>\n\t\t\t\t\t\t</div>\n\n\t\t\t\t\t\t<div class=\"card_container\">\n\t\t\t\t\t\t<img src=img/39.png>\n\t\t\t\t\t\t</div>","response":"f","task":"response","correct_response":"f","trial_type":"html-keyboard-response","trial_index":131,"time_elapsed":505512,"internal_node_id":"0.0-5.0-0.2","prolific_id":"5765c0fcf2e23200017ded5e","session_id":"643c369803eb612768e312a7","study_id":"64370a36d30bfa807bc7e43c","correct":true},{"rt":null,"stimulus":"\n\t\t\t\t\t<p>Correct!</p>\n\t\t\t\t\t","response":null,"trial_type":"html-keyboard-response","trial_index":132,"time_elapsed":506517,"internal_node_id":"0.0-5.0-1.2","prolific_id":"5765c0fcf2e23200017ded5e","session_id":"643c369803eb612768e312a7","study_id":"64370a36d30bfa807bc7e43c"},{"rt":1595,"stimulus":"\n\t\t\t\t\t\t<div class=\"two_card_container\">\n\t\t\t\t\t\t<div class=\"card_container\">\n\t\t\t\t\t\t<img src=img/35.png>\n\t\t\t\t\t\t</div>\n\n\t\t\t\t\t\t<div class=\"card_container\">\n\t\t\t\t\t\t<img src=img/26.png>\n\t\t\t\t\t\t</div>","response":"j","task":"response","correct_response":"j","trial_type":"html-keyboard-response","trial_index":133,"time_elapsed":508112,"internal_node_id":"0.0-5.0-0.3","prolific_id":"5765c0fcf2e23200017ded5e","session_id":"643c369803eb612768e312a7","study_id":"64370a36d30bfa807bc7e43c","correct":true},{"rt":null,"stimulus":"\n\t\t\t\t\t<p>Correct!</p>\n\t\t\t\t\t","response":null,"trial_type":"html-keyboard-response","trial_index":134,"time_elapsed":509116,"internal_node_id":"0.0-5.0-1.3","prolific_id":"5765c0fcf2e23200017ded5e","session_id":"643c369803eb612768e312a7","study_id":"64370a36d30bfa807bc7e43c"},{"rt":1116,"stimulus":"\n\t\t\t\t\t\t<div class=\"two_card_container\">\n\t\t\t\t\t\t<div class=\"card_container\">\n\t\t\t\t\t\t<img src=img/32.png>\n\t\t\t\t\t\t</div>\n\n\t\t\t\t\t\t<div class=\"card_container\">\n\t\t\t\t\t\t<img src=img/29.png>\n\t\t\t\t\t\t</div>","response":"j","task":"response","correct_response":"j","trial_type":"html-keyboard-response","trial_index":135,"time_elapsed":510232,"internal_node_id":"0.0-5.0-0.4","prolific_id":"5765c0fcf2e23200017ded5e","session_id":"643c369803eb612768e312a7","study_id":"64370a36d30bfa807bc7e43c","correct":true},{"rt":null,"stimulus":"\n\t\t\t\t\t<p>Correct!</p>\n\t\t\t\t\t","response":null,"trial_type":"html-keyboard-response","trial_index":136,"time_elapsed":511248,"internal_node_id":"0.0-5.0-1.4","prolific_id":"5765c0fcf2e23200017ded5e","session_id":"643c369803eb612768e312a7","study_id":"64370a36d30bfa807bc7e43c"},{"rt":889,"stimulus":"\n\t\t\t\t\t\t<div class=\"two_card_container\">\n\t\t\t\t\t\t<div class=\"card_container\">\n\t\t\t\t\t\t<img src=img/19.png>\n\t\t\t\t\t\t</div>\n\n\t\t\t\t\t\t<div class=\"card_container\">\n\t\t\t\t\t\t<img src=img/34.png>\n\t\t\t\t\t\t</div>","response":"f","task":"response","correct_response":"f","trial_type":"html-keyboard-response","trial_index":137,"time_elapsed":512137,"internal_node_id":"0.0-5.0-0.5","prolific_id":"5765c0fcf2e23200017ded5e","session_id":"643c369803eb612768e312a7","study_id":"64370a36d30bfa807bc7e43c","correct":true},{"rt":null,"stimulus":"\n\t\t\t\t\t<p>Correct!</p>\n\t\t\t\t\t","response":null,"trial_type":"html-keyboard-response","trial_index":138,"time_elapsed":513144,"internal_node_id":"0.0-5.0-1.5","prolific_id":"5765c0fcf2e23200017ded5e","session_id":"643c369803eb612768e312a7","study_id":"64370a36d30bfa807bc7e43c"},{"rt":926,"stimulus":"\n\t\t\t\t\t\t<div class=\"two_card_container\">\n\t\t\t\t\t\t<div class=\"card_container\">\n\t\t\t\t\t\t<img src=img/14.png>\n\t\t\t\t\t\t</div>\n\n\t\t\t\t\t\t<div class=\"card_container\">\n\t\t\t\t\t\t<img src=img/38.png>\n\t\t\t\t\t\t</div>","response":"f","task":"response","correct_response":"f","trial_type":"html-keyboard-response","trial_index":139,"time_elapsed":514072,"internal_node_id":"0.0-5.0-0.6","prolific_id":"5765c0fcf2e23200017ded5e","session_id":"643c369803eb612768e312a7","study_id":"64370a36d30bfa807bc7e43c","correct":true},{"rt":null,"stimulus":"\n\t\t\t\t\t<p>Correct!</p>\n\t\t\t\t\t","response":null,"trial_type":"html-keyboard-response","trial_index":140,"time_elapsed":515081,"internal_node_id":"0.0-5.0-1.6","prolific_id":"5765c0fcf2e23200017ded5e","session_id":"643c369803eb612768e312a7","study_id":"64370a36d30bfa807bc7e43c"},{"rt":1087,"stimulus":"\n\t\t\t\t\t\t<div class=\"two_card_container\">\n\t\t\t\t\t\t<div class=\"card_container\">\n\t\t\t\t\t\t<img src=img/37.png>\n\t\t\t\t\t\t</div>\n\n\t\t\t\t\t\t<div class=\"card_container\">\n\t\t\t\t\t\t<img src=img/2.png>\n\t\t\t\t\t\t</div>","response":"f","task":"response","correct_response":"j","trial_type":"html-keyboard-response","trial_index":141,"time_elapsed":516168,"internal_node_id":"0.0-5.0-0.7","prolific_id":"5765c0fcf2e23200017ded5e","session_id":"643c369803eb612768e312a7","study_id":"64370a36d30bfa807bc7e43c","correct":false},{"rt":null,"stimulus":"\n\t\t\t\t\t<p>Wrong answer</p>\n\t\t\t\t\t","response":null,"trial_type":"html-keyboard-response","trial_index":142,"time_elapsed":517181,"internal_node_id":"0.0-5.0-1.7","prolific_id":"5765c0fcf2e23200017ded5e","session_id":"643c369803eb612768e312a7","study_id":"64370a36d30bfa807bc7e43c"},{"rt":1377,"stimulus":"\n\t\t\t\t\t\t<div class=\"two_card_container\">\n\t\t\t\t\t\t<div class=\"card_container\">\n\t\t\t\t\t\t<img src=img/31.png>\n\t\t\t\t\t\t</div>\n\n\t\t\t\t\t\t<div class=\"card_container\">\n\t\t\t\t\t\t<img src=img/7.png>\n\t\t\t\t\t\t</div>","response":"j","task":"response","correct_response":"j","trial_type":"html-keyboard-response","trial_index":143,"time_elapsed":518560,"internal_node_id":"0.0-5.0-0.8","prolific_id":"5765c0fcf2e23200017ded5e","session_id":"643c369803eb612768e312a7","study_id":"64370a36d30bfa807bc7e43c","correct":true},{"rt":null,"stimulus":"\n\t\t\t\t\t<p>Correct!</p>\n\t\t\t\t\t","response":null,"trial_type":"html-keyboard-response","trial_index":144,"time_elapsed":519566,"internal_node_id":"0.0-5.0-1.8","prolific_id":"5765c0fcf2e23200017ded5e","session_id":"643c369803eb612768e312a7","study_id":"64370a36d30bfa807bc7e43c"},{"rt":1481,"stimulus":"\n\t\t\t\t\t\t<div class=\"two_card_container\">\n\t\t\t\t\t\t<div class=\"card_container\">\n\t\t\t\t\t\t<img src=img/13.png>\n\t\t\t\t\t\t</div>\n\n\t\t\t\t\t\t<div class=\"card_container\">\n\t\t\t\t\t\t<img src=img/40.png>\n\t\t\t\t\t\t</div>","response":"f","task":"response","correct_response":"f","trial_type":"html-keyboard-response","trial_index":145,"time_elapsed":521048,"internal_node_id":"0.0-5.0-0.9","prolific_id":"5765c0fcf2e23200017ded5e","session_id":"643c369803eb612768e312a7","study_id":"64370a36d30bfa807bc7e43c","correct":true},{"rt":null,"stimulus":"\n\t\t\t\t\t<p>Correct!</p>\n\t\t\t\t\t","response":null,"trial_type":"html-keyboard-response","trial_index":146,"time_elapsed":522049,"internal_node_id":"0.0-5.0-1.9","prolific_id":"5765c0fcf2e23200017ded5e","session_id":"643c369803eb612768e312a7","study_id":"64370a36d30bfa807bc7e43c"},{"rt":null,"stimulus":"\n\t\t\t<h2>Good job :p</h2>\n\t\t\t<p>In the next session, you will see a trivia question on the screen in each trial.</p>\n\t\t\t<p>Each of these trivia questions is chosen from the questions you have already seen in the first session of the experiment.</p><br>\n\t\t\t<p>Your task is to answer the trivia question based on what you remember as accurately as you can.</p>\n\t\t\t<p>Have fun!</p>\n\t\t\t<br>\n\t\t\t<p>The trials will begin in 30 seconds</p>\n\t\t\t","response":null,"trial_type":"html-keyboard-response","trial_index":147,"time_elapsed":552054,"internal_node_id":"0.0-6.0","prolific_id":"5765c0fcf2e23200017ded5e","session_id":"643c369803eb612768e312a7","study_id":"64370a36d30bfa807bc7e43c"},{"rt":3942,"response":{"answer":"300"},"task":"response","correct_response":"300","trial_type":"survey-text","trial_index":148,"time_elapsed":555998,"internal_node_id":"0.0-7.0-0.0","prolific_id":"5765c0fcf2e23200017ded5e","session_id":"643c369803eb612768e312a7","study_id":"64370a36d30bfa807bc7e43c","difference":0},{"rt":null,"stimulus":"<h2>The correct answer is 300.</h2><p>Your answer was different from the answer by 0.</p><p>You got the right answer. Amazing work!</p>","response":null,"trial_type":"html-keyboard-response","trial_index":149,"time_elapsed":558502,"internal_node_id":"0.0-7.0-1.0","prolific_id":"5765c0fcf2e23200017ded5e","session_id":"643c369803eb612768e312a7","study_id":"64370a36d30bfa807bc7e43c"},{"rt":2287,"response":{"answer":"4"},"task":"response","correct_response":"4","trial_type":"survey-text","trial_index":150,"time_elapsed":560789,"internal_node_id":"0.0-7.0-0.1","prolific_id":"5765c0fcf2e23200017ded5e","session_id":"643c369803eb612768e312a7","study_id":"64370a36d30bfa807bc7e43c","difference":0},{"rt":null,"stimulus":"<h2>The correct answer is 4.</h2><p>Your answer was different from the answer by 0.</p><p>You got the right answer. Amazing work!</p>","response":null,"trial_type":"html-keyboard-response","trial_index":151,"time_elapsed":563290,"internal_node_id":"0.0-7.0-1.1","prolific_id":"5765c0fcf2e23200017ded5e","session_id":"643c369803eb612768e312a7","study_id":"64370a36d30bfa807bc7e43c"},{"rt":1906,"response":{"answer":"13"},"task":"response","correct_response":"13","trial_type":"survey-text","trial_index":152,"time_elapsed":565197,"internal_node_id":"0.0-7.0-0.2","prolific_id":"5765c0fcf2e23200017ded5e","session_id":"643c369803eb612768e312a7","study_id":"64370a36d30bfa807bc7e43c","difference":0},{"rt":null,"stimulus":"<h2>The correct answer is 13.</h2><p>Your answer was different from the answer by 0.</p><p>You got the right answer. Amazing work!</p>","response":null,"trial_type":"html-keyboard-response","trial_index":153,"time_elapsed":567701,"internal_node_id":"0.0-7.0-1.2","prolific_id":"5765c0fcf2e23200017ded5e","session_id":"643c369803eb612768e312a7","study_id":"64370a36d30bfa807bc7e43c"},{"rt":2515,"response":{"answer":"15"},"task":"response","correct_response":"28","trial_type":"survey-text","trial_index":154,"time_elapsed":570217,"internal_node_id":"0.0-7.0-0.3","prolific_id":"5765c0fcf2e23200017ded5e","session_id":"643c369803eb612768e312a7","study_id":"64370a36d30bfa807bc7e43c","difference":46},{"rt":null,"stimulus":"<h2>The correct answer is 28.</h2><p>Your answer was different from the answer by 13.</p><p>Not the worst. Can you do better on the next?</p>","response":null,"trial_type":"html-keyboard-response","trial_index":155,"time_elapsed":572719,"internal_node_id":"0.0-7.0-1.3","prolific_id":"5765c0fcf2e23200017ded5e","session_id":"643c369803eb612768e312a7","study_id":"64370a36d30bfa807bc7e43c"},{"rt":2255,"response":{"answer":"11"},"task":"response","correct_response":"11","trial_type":"survey-text","trial_index":156,"time_elapsed":574975,"internal_node_id":"0.0-7.0-0.4","prolific_id":"5765c0fcf2e23200017ded5e","session_id":"643c369803eb612768e312a7","study_id":"64370a36d30bfa807bc7e43c","difference":0},{"rt":null,"stimulus":"<h2>The correct answer is 11.</h2><p>Your answer was different from the answer by 0.</p><p>You got the right answer. Amazing work!</p>","response":null,"trial_type":"html-keyboard-response","trial_index":157,"time_elapsed":577477,"internal_node_id":"0.0-7.0-1.4","prolific_id":"5765c0fcf2e23200017ded5e","session_id":"643c369803eb612768e312a7","study_id":"64370a36d30bfa807bc7e43c"},{"rt":1979,"response":{"answer":"19"},"task":"response","correct_response":"19","trial_type":"survey-text","trial_index":158,"time_elapsed":579457,"internal_node_id":"0.0-7.0-0.5","prolific_id":"5765c0fcf2e23200017ded5e","session_id":"643c369803eb612768e312a7","study_id":"64370a36d30bfa807bc7e43c","difference":0},{"rt":null,"stimulus":"<h2>The correct answer is 19.</h2><p>Your answer was different from the answer by 0.</p><p>You got the right answer. Amazing work!</p>","response":null,"trial_type":"html-keyboard-response","trial_index":159,"time_elapsed":581961,"internal_node_id":"0.0-7.0-1.5","prolific_id":"5765c0fcf2e23200017ded5e","session_id":"643c369803eb612768e312a7","study_id":"64370a36d30bfa807bc7e43c"},{"rt":2134,"response":{"answer":"12"},"task":"response","correct_response":"14","trial_type":"survey-text","trial_index":160,"time_elapsed":584097,"internal_node_id":"0.0-7.0-0.6","prolific_id":"5765c0fcf2e23200017ded5e","session_id":"643c369803eb612768e312a7","study_id":"64370a36d30bfa807bc7e43c","difference":14},{"rt":null,"stimulus":"<h2>The correct answer is 14.</h2><p>Your answer was different from the answer by 2.</p><p>A pretty good job indeed.</p>","response":null,"trial_type":"html-keyboard-response","trial_index":161,"time_elapsed":586598,"internal_node_id":"0.0-7.0-1.6","prolific_id":"5765c0fcf2e23200017ded5e","session_id":"643c369803eb612768e312a7","study_id":"64370a36d30bfa807bc7e43c"},{"rt":2967,"response":{"answer":"4"},"task":"response","correct_response":"4","trial_type":"survey-text","trial_index":162,"time_elapsed":589567,"internal_node_id":"0.0-7.0-0.7","prolific_id":"5765c0fcf2e23200017ded5e","session_id":"643c369803eb612768e312a7","study_id":"64370a36d30bfa807bc7e43c","difference":0},{"rt":null,"stimulus":"<h2>The correct answer is 4.</h2><p>Your answer was different from the answer by 0.</p><p>You got the right answer. Amazing work!</p>","response":null,"trial_type":"html-keyboard-response","trial_index":163,"time_elapsed":592074,"internal_node_id":"0.0-7.0-1.7","prolific_id":"5765c0fcf2e23200017ded5e","session_id":"643c369803eb612768e312a7","study_id":"64370a36d30bfa807bc7e43c"},{"rt":2842,"response":{"answer":"1892"},"task":"response","correct_response":"1901","trial_type":"survey-text","trial_index":164,"time_elapsed":594917,"internal_node_id":"0.0-7.0-0.8","prolific_id":"5765c0fcf2e23200017ded5e","session_id":"643c369803eb612768e312a7","study_id":"64370a36d30bfa807bc7e43c","difference":0},{"rt":null,"stimulus":"<h2>The correct answer is 1901.</h2><p>Your answer was different from the answer by 9.</p><p>Excellent. Kudos to you!</p>","response":null,"trial_type":"html-keyboard-response","trial_index":165,"time_elapsed":597419,"internal_node_id":"0.0-7.0-1.8","prolific_id":"5765c0fcf2e23200017ded5e","session_id":"643c369803eb612768e312a7","study_id":"64370a36d30bfa807bc7e43c"},{"rt":2871,"response":{"answer":"1989"},"task":"response","correct_response":"1989","trial_type":"survey-text","trial_index":166,"time_elapsed":600291,"internal_node_id":"0.0-7.0-0.9","prolific_id":"5765c0fcf2e23200017ded5e","session_id":"643c369803eb612768e312a7","study_id":"64370a36d30bfa807bc7e43c","difference":0},{"rt":null,"stimulus":"<h2>The correct answer is 1989.</h2><p>Your answer was different from the answer by 0.</p><p>You got the right answer. Amazing work!</p>","response":null,"trial_type":"html-keyboard-response","trial_index":167,"time_elapsed":602801,"internal_node_id":"0.0-7.0-1.9","prolific_id":"5765c0fcf2e23200017ded5e","session_id":"643c369803eb612768e312a7","study_id":"64370a36d30bfa807bc7e43c"}]