[{"success":true,"timeout":false,"failed_images":[],"failed_audio":[],"failed_video":[],"trial_type":"preload","trial_index":0,"time_elapsed":13435,"internal_node_id":"0.0-0.0","prolific_id":"589fc07f1521230001ebf494","session_id":"643c1bdd9d50d3197c95f7eb","study_id":"64370a36d30bfa807bc7e43c"},{"rt":44435,"stimulus":"\n\t\t\t\t\t<p>Welcome and thank you for participating in this study!</p>\n\t\t\t\t\t<p>In each trial, you will be given a trivia question and then be asked to:</p><br>\n\t\t\t\t\t<div class=\"list\">\n\t\t\t\t\t<p>1) Predict the answer</p>\n\t\t\t\t\t<p>2) Rate how much you already know about the topic</p>\n\t\t\t\t\t<p>3) Rate how much you want to know the answer</p>\n\t\t\t\t\t</div>\n\t\t\t\t\t<br>\n\t\t\t\t\t<p>Then, you will see a card that flips over to reveal the answer.</p>\n\t\t\t\t\t<br>\n\t\t\t\t\t<p>Let's try a practice round. Press <span style=\"color: red\"><strong>any key</strong></span> to move to the next slide</p>\n\t\t\t\t\t","response":" ","trial_type":"html-keyboard-response","trial_index":1,"time_elapsed":57870,"internal_node_id":"0.0-1.0","prolific_id":"589fc07f1521230001ebf494","session_id":"643c1bdd9d50d3197c95f7eb","study_id":"64370a36d30bfa807bc7e43c"},{"rt":15076,"response":{"practice prediction":"0"},"task":"practice","trial_type":"survey-text","trial_index":2,"time_elapsed":72959,"internal_node_id":"0.0-2.0-0.0","prolific_id":"589fc07f1521230001ebf494","session_id":"643c1bdd9d50d3197c95f7eb","study_id":"64370a36d30bfa807bc7e43c"},{"rt":6025,"response":{"practice":5},"accuracy":[],"trial_type":"survey","trial_index":3,"time_elapsed":79080,"internal_node_id":"0.0-2.0-1.0","prolific_id":"589fc07f1521230001ebf494","session_id":"643c1bdd9d50d3197c95f7eb","study_id":"64370a36d30bfa807bc7e43c"},{"rt":null,"stimulus":"\n\t\t\t\t<div class=\"flip_card\">\n\t\t\t\t\t<div class=\"flip_card_inner\">\n\t\t\t\t\t\t<div class=\"flip_card_front\">\n\t\t\t\t\t\t\t<img src=img/practice.png>\n\t\t\t\t\t\t</div>\n\t\t\t\t\t\t<div class=\"flip_card_back\">\n\t\t\t\t\t\t\t<h2>\"How many legs does a lobster have?\"</h2>\n\t\t\t\t\t\t    <br>\n\t\t\t\t\t\t    <p>Answer: <strong>\"10\"</strong></p>\n\t\t\t\t\t    </div>\n\t\t\t\t    </div>\n\t\t\t    </div>\n\t\t\t\t","response":null,"trial_type":"html-keyboard-response","trial_index":4,"time_elapsed":84087,"internal_node_id":"0.0-2.0-2.0","prolific_id":"589fc07f1521230001ebf494","session_id":"643c1bdd9d50d3197c95f7eb","study_id":"64370a36d30bfa807bc7e43c"},{"rt":5180,"stimulus":"\n\t\t\t\t\t<div>\n\t\t\t\t\t<h2>The practice round is over</h2>\n\t\t\t\t\t<p>Press <span style=\"color: red\"><strong>any key</strong></span> to continue to the actual trials</p>\n\t\t\t\t\t<p>Good Luck!</p>\n\t\t\t\t\t</div>\n\t\t\t\t\t","response":" ","trial_type":"html-keyboard-response","trial_index":5,"time_elapsed":89268,"internal_node_id":"0.0-2.0-3.0","prolific_id":"589fc07f1521230001ebf494","session_id":"643c1bdd9d50d3197c95f7eb","study_id":"64370a36d30bfa807bc7e43c"},{"rt":8008,"response":{"prediction":"1000000000"},"trial_type":"survey-text","trial_index":6,"time_elapsed":97280,"internal_node_id":"0.0-3.0-0.0","prolific_id":"589fc07f1521230001ebf494","session_id":"643c1bdd9d50d3197c95f7eb","study_id":"64370a36d30bfa807bc7e43c"},{"rt":3574,"response":{"prior knowledge":0,"curiosity":0},"accuracy":[],"trial_type":"survey","trial_index":7,"time_elapsed":100890,"internal_node_id":"0.0-3.0-1.0","prolific_id":"589fc07f1521230001ebf494","session_id":"643c1bdd9d50d3197c95f7eb","study_id":"64370a36d30bfa807bc7e43c"},{"rt":null,"stimulus":"\n\t\t\t<div class=\"flip_card\">\n\t\t\t\t<div class=\"flip_card_inner\">\n\t\t\t\t\t<div class=\"flip_card_front\">\n\t\t\t\t\t\t<img src=img/10.png>\n\t\t\t\t\t</div>\n\t\t\t\t\t<div class=\"flip_card_back\">\n\t\t\t\t\t\t<h2>What is the diameter of Earth in miles?</h2>\n\t\t\t\t\t\t<br>\n\t\t\t\t\t\t<p>Answer: <strong>7917.5</strong></p>\n\t\t\t\t\t</div>\n\t\t\t\t</div>\n\t\t\t</div>\n\t\t\t","response":null,"trial_type":"html-keyboard-response","trial_index":8,"time_elapsed":105899,"internal_node_id":"0.0-3.0-2.0","prolific_id":"589fc07f1521230001ebf494","session_id":"643c1bdd9d50d3197c95f7eb","study_id":"64370a36d30bfa807bc7e43c"},{"rt":4021,"stimulus":"\n\t\t\t\t\t<div>\n\t\t\t\t\t<h2>Trial 1 is over</h2>\n\t\t\t\t\t<p>Press <span style=\"color: red\"><strong>any key</strong></span> to continue to the next trial</p>\n\t\t\t\t\t</div>\n\t\t\t\t","response":" ","trial_type":"html-keyboard-response","trial_index":9,"time_elapsed":109921,"internal_node_id":"0.0-3.0-3.0","prolific_id":"589fc07f1521230001ebf494","session_id":"643c1bdd9d50d3197c95f7eb","study_id":"64370a36d30bfa807bc7e43c"},{"rt":5451,"response":{"prediction":"88"},"trial_type":"survey-text","trial_index":10,"time_elapsed":115388,"internal_node_id":"0.0-3.0-0.1","prolific_id":"589fc07f1521230001ebf494","session_id":"643c1bdd9d50d3197c95f7eb","study_id":"64370a36d30bfa807bc7e43c"},{"rt":12120,"response":{"prior knowledge":1,"curiosity":4},"accuracy":[],"trial_type":"survey","trial_index":11,"time_elapsed":127560,"internal_node_id":"0.0-3.0-1.1","prolific_id":"589fc07f1521230001ebf494","session_id":"643c1bdd9d50d3197c95f7eb","study_id":"64370a36d30bfa807bc7e43c"},{"rt":null,"stimulus":"\n\t\t\t<div class=\"flip_card\">\n\t\t\t\t<div class=\"flip_card_inner\">\n\t\t\t\t\t<div class=\"flip_card_front\">\n\t\t\t\t\t\t<img src=img/2.png>\n\t\t\t\t\t</div>\n\t\t\t\t\t<div class=\"flip_card_back\">\n\t\t\t\t\t\t<h2>How many floors are in the Burj Khalifa, the tallest building in the world?</h2>\n\t\t\t\t\t\t<br>\n\t\t\t\t\t\t<p>Answer: <strong>163</strong></p>\n\t\t\t\t\t</div>\n\t\t\t\t</div>\n\t\t\t</div>\n\t\t\t","response":null,"trial_type":"html-keyboard-response","trial_index":12,"time_elapsed":132574,"internal_node_id":"0.0-3.0-2.1","prolific_id":"589fc07f1521230001ebf494","session_id":"643c1bdd9d50d3197c95f7eb","study_id":"64370a36d30bfa807bc7e43c"},{"rt":35693,"stimulus":"\n\t\t\t\t\t<div>\n\t\t\t\t\t<h2>Trial 2 is over</h2>\n\t\t\t\t\t<p>Press <span style=\"color: red\"><strong>any key</strong></span> to continue to the next trial</p>\n\t\t\t\t\t</div>\n\t\t\t\t","response":" ","trial_type":"html-keyboard-response","trial_index":13,"time_elapsed":168280,"internal_node_id":"0.0-3.0-3.1","prolific_id":"589fc07f1521230001ebf494","session_id":"643c1bdd9d50d3197c95f7eb","study_id":"64370a36d30bfa807bc7e43c"},{"rt":5623,"response":{"prediction":"12"},"trial_type":"survey-text","trial_index":14,"time_elapsed":173907,"internal_node_id":"0.0-3.0-0.2","prolific_id":"589fc07f1521230001ebf494","session_id":"643c1bdd9d50d3197c95f7eb","study_id":"64370a36d30bfa807bc7e43c"},{"rt":5906,"response":{"prior knowledge":1,"curiosity":2},"accuracy":[],"trial_type":"survey","trial_index":15,"time_elapsed":179849,"internal_node_id":"0.0-3.0-1.2","prolific_id":"589fc07f1521230001ebf494","session_id":"643c1bdd9d50d3197c95f7eb","study_id":"64370a36d30bfa807bc7e43c"},{"rt":null,"stimulus":"\n\t\t\t<div class=\"flip_card\">\n\t\t\t\t<div class=\"flip_card_inner\">\n\t\t\t\t\t<div class=\"flip_card_front\">\n\t\t\t\t\t\t<img src=img/18.png>\n\t\t\t\t\t</div>\n\t\t\t\t\t<div class=\"flip_card_back\">\n\t\t\t\t\t\t<h2>How many different animals (real or imaginary) are represented in the Chinese calendar?</h2>\n\t\t\t\t\t\t<br>\n\t\t\t\t\t\t<p>Answer: <strong>12</strong></p>\n\t\t\t\t\t</div>\n\t\t\t\t</div>\n\t\t\t</div>\n\t\t\t","response":null,"trial_type":"html-keyboard-response","trial_index":16,"time_elapsed":185039,"internal_node_id":"0.0-3.0-2.2","prolific_id":"589fc07f1521230001ebf494","session_id":"643c1bdd9d50d3197c95f7eb","study_id":"64370a36d30bfa807bc7e43c"},{"rt":37098,"stimulus":"\n\t\t\t\t\t<div>\n\t\t\t\t\t<h2>Trial 3 is over</h2>\n\t\t\t\t\t<p>Press <span style=\"color: red\"><strong>any key</strong></span> to continue to the next trial</p>\n\t\t\t\t\t</div>\n\t\t\t\t","response":" ","trial_type":"html-keyboard-response","trial_index":17,"time_elapsed":222139,"internal_node_id":"0.0-3.0-3.2","prolific_id":"589fc07f1521230001ebf494","session_id":"643c1bdd9d50d3197c95f7eb","study_id":"64370a36d30bfa807bc7e43c"},{"rt":2829,"response":{"prediction":"3"},"trial_type":"survey-text","trial_index":18,"time_elapsed":224972,"internal_node_id":"0.0-3.0-0.3","prolific_id":"589fc07f1521230001ebf494","session_id":"643c1bdd9d50d3197c95f7eb","study_id":"64370a36d30bfa807bc7e43c"},{"rt":3725,"response":{"prior knowledge":2,"curiosity":4},"accuracy":[],"trial_type":"survey","trial_index":19,"time_elapsed":228725,"internal_node_id":"0.0-3.0-1.3","prolific_id":"589fc07f1521230001ebf494","session_id":"643c1bdd9d50d3197c95f7eb","study_id":"64370a36d30bfa807bc7e43c"},{"rt":null,"stimulus":"\n\t\t\t<div class=\"flip_card\">\n\t\t\t\t<div class=\"flip_card_inner\">\n\t\t\t\t\t<div class=\"flip_card_front\">\n\t\t\t\t\t\t<img src=img/6.png>\n\t\t\t\t\t</div>\n\t\t\t\t\t<div class=\"flip_card_back\">\n\t\t\t\t\t\t<h2>How many native species of kangaroos are found in Australia?</h2>\n\t\t\t\t\t\t<br>\n\t\t\t\t\t\t<p>Answer: <strong>4</strong></p>\n\t\t\t\t\t</div>\n\t\t\t\t</div>\n\t\t\t</div>\n\t\t\t","response":null,"trial_type":"html-keyboard-response","trial_index":20,"time_elapsed":233731,"internal_node_id":"0.0-3.0-2.3","prolific_id":"589fc07f1521230001ebf494","session_id":"643c1bdd9d50d3197c95f7eb","study_id":"64370a36d30bfa807bc7e43c"},{"rt":1126,"stimulus":"\n\t\t\t\t\t<div>\n\t\t\t\t\t<h2>Trial 4 is over</h2>\n\t\t\t\t\t<p>Press <span style=\"color: red\"><strong>any key</strong></span> to continue to the next trial</p>\n\t\t\t\t\t</div>\n\t\t\t\t","response":" ","trial_type":"html-keyboard-response","trial_index":21,"time_elapsed":234859,"internal_node_id":"0.0-3.0-3.3","prolific_id":"589fc07f1521230001ebf494","session_id":"643c1bdd9d50d3197c95f7eb","study_id":"64370a36d30bfa807bc7e43c"},{"rt":10495,"response":{"prediction":"25"},"trial_type":"survey-text","trial_index":22,"time_elapsed":245357,"internal_node_id":"0.0-3.0-0.4","prolific_id":"589fc07f1521230001ebf494","session_id":"643c1bdd9d50d3197c95f7eb","study_id":"64370a36d30bfa807bc7e43c"},{"rt":36455,"response":{"prior knowledge":0,"curiosity":1},"accuracy":[],"trial_type":"survey","trial_index":23,"time_elapsed":281846,"internal_node_id":"0.0-3.0-1.4","prolific_id":"589fc07f1521230001ebf494","session_id":"643c1bdd9d50d3197c95f7eb","study_id":"64370a36d30bfa807bc7e43c"},{"rt":null,"stimulus":"\n\t\t\t<div class=\"flip_card\">\n\t\t\t\t<div class=\"flip_card_inner\">\n\t\t\t\t\t<div class=\"flip_card_front\">\n\t\t\t\t\t\t<img src=img/8.png>\n\t\t\t\t\t</div>\n\t\t\t\t\t<div class=\"flip_card_back\">\n\t\t\t\t\t\t<h2>How many constellations are there?</h2>\n\t\t\t\t\t\t<br>\n\t\t\t\t\t\t<p>Answer: <strong>88</strong></p>\n\t\t\t\t\t</div>\n\t\t\t\t</div>\n\t\t\t</div>\n\t\t\t","response":null,"trial_type":"html-keyboard-response","trial_index":24,"time_elapsed":286852,"internal_node_id":"0.0-3.0-2.4","prolific_id":"589fc07f1521230001ebf494","session_id":"643c1bdd9d50d3197c95f7eb","study_id":"64370a36d30bfa807bc7e43c"},{"rt":3736,"stimulus":"\n\t\t\t\t\t<div>\n\t\t\t\t\t<h2>Trial 5 is over</h2>\n\t\t\t\t\t<p>Press <span style=\"color: red\"><strong>any key</strong></span> to continue to the next trial</p>\n\t\t\t\t\t</div>\n\t\t\t\t","response":" ","trial_type":"html-keyboard-response","trial_index":25,"time_elapsed":290589,"internal_node_id":"0.0-3.0-3.4","prolific_id":"589fc07f1521230001ebf494","session_id":"643c1bdd9d50d3197c95f7eb","study_id":"64370a36d30bfa807bc7e43c"},{"rt":11789,"response":{"prediction":"1945"},"trial_type":"survey-text","trial_index":26,"time_elapsed":302381,"internal_node_id":"0.0-3.0-0.5","prolific_id":"589fc07f1521230001ebf494","session_id":"643c1bdd9d50d3197c95f7eb","study_id":"64370a36d30bfa807bc7e43c"},{"rt":3912,"response":{"prior knowledge":2,"curiosity":4},"accuracy":[],"trial_type":"survey","trial_index":27,"time_elapsed":306323,"internal_node_id":"0.0-3.0-1.5","prolific_id":"589fc07f1521230001ebf494","session_id":"643c1bdd9d50d3197c95f7eb","study_id":"64370a36d30bfa807bc7e43c"},{"rt":null,"stimulus":"\n\t\t\t<div class=\"flip_card\">\n\t\t\t\t<div class=\"flip_card_inner\">\n\t\t\t\t\t<div class=\"flip_card_front\">\n\t\t\t\t\t\t<img src=img/12.png>\n\t\t\t\t\t</div>\n\t\t\t\t\t<div class=\"flip_card_back\">\n\t\t\t\t\t\t<h2>In what year was the Mexican artist Frida Kahlo born?</h2>\n\t\t\t\t\t\t<br>\n\t\t\t\t\t\t<p>Answer: <strong>1907</strong></p>\n\t\t\t\t\t</div>\n\t\t\t\t</div>\n\t\t\t</div>\n\t\t\t","response":null,"trial_type":"html-keyboard-response","trial_index":28,"time_elapsed":311330,"internal_node_id":"0.0-3.0-2.5","prolific_id":"589fc07f1521230001ebf494","session_id":"643c1bdd9d50d3197c95f7eb","study_id":"64370a36d30bfa807bc7e43c"},{"rt":934,"stimulus":"\n\t\t\t\t\t<div>\n\t\t\t\t\t<h2>Trial 6 is over</h2>\n\t\t\t\t\t<p>Press <span style=\"color: red\"><strong>any key</strong></span> to continue to the next trial</p>\n\t\t\t\t\t</div>\n\t\t\t\t","response":" ","trial_type":"html-keyboard-response","trial_index":29,"time_elapsed":312265,"internal_node_id":"0.0-3.0-3.5","prolific_id":"589fc07f1521230001ebf494","session_id":"643c1bdd9d50d3197c95f7eb","study_id":"64370a36d30bfa807bc7e43c"},{"rt":3845,"response":{"prediction":"38"},"trial_type":"survey-text","trial_index":30,"time_elapsed":316113,"internal_node_id":"0.0-3.0-0.6","prolific_id":"589fc07f1521230001ebf494","session_id":"643c1bdd9d50d3197c95f7eb","study_id":"64370a36d30bfa807bc7e43c"},{"rt":4387,"response":{"prior knowledge":2,"curiosity":4},"accuracy":[],"trial_type":"survey","trial_index":31,"time_elapsed":320523,"internal_node_id":"0.0-3.0-1.6","prolific_id":"589fc07f1521230001ebf494","session_id":"643c1bdd9d50d3197c95f7eb","study_id":"64370a36d30bfa807bc7e43c"},{"rt":null,"stimulus":"\n\t\t\t<div class=\"flip_card\">\n\t\t\t\t<div class=\"flip_card_inner\">\n\t\t\t\t\t<div class=\"flip_card_front\">\n\t\t\t\t\t\t<img src=img/27.png>\n\t\t\t\t\t</div>\n\t\t\t\t\t<div class=\"flip_card_back\">\n\t\t\t\t\t\t<h2>How many countries are in Africa?</h2>\n\t\t\t\t\t\t<br>\n\t\t\t\t\t\t<p>Answer: <strong>54</strong></p>\n\t\t\t\t\t</div>\n\t\t\t\t</div>\n\t\t\t</div>\n\t\t\t","response":null,"trial_type":"html-keyboard-response","trial_index":32,"time_elapsed":325536,"internal_node_id":"0.0-3.0-2.6","prolific_id":"589fc07f1521230001ebf494","session_id":"643c1bdd9d50d3197c95f7eb","study_id":"64370a36d30bfa807bc7e43c"},{"rt":5179,"stimulus":"\n\t\t\t\t\t<div>\n\t\t\t\t\t<h2>Trial 7 is over</h2>\n\t\t\t\t\t<p>Press <span style=\"color: red\"><strong>any key</strong></span> to continue to the next trial</p>\n\t\t\t\t\t</div>\n\t\t\t\t","response":" ","trial_type":"html-keyboard-response","trial_index":33,"time_elapsed":330716,"internal_node_id":"0.0-3.0-3.6","prolific_id":"589fc07f1521230001ebf494","session_id":"643c1bdd9d50d3197c95f7eb","study_id":"64370a36d30bfa807bc7e43c"},{"rt":9275,"response":{"prediction":"8"},"trial_type":"survey-text","trial_index":34,"time_elapsed":339994,"internal_node_id":"0.0-3.0-0.7","prolific_id":"589fc07f1521230001ebf494","session_id":"643c1bdd9d50d3197c95f7eb","study_id":"64370a36d30bfa807bc7e43c"},{"rt":11307,"response":{"prior knowledge":2,"curiosity":1},"accuracy":[],"trial_type":"survey","trial_index":35,"time_elapsed":351327,"internal_node_id":"0.0-3.0-1.7","prolific_id":"589fc07f1521230001ebf494","session_id":"643c1bdd9d50d3197c95f7eb","study_id":"64370a36d30bfa807bc7e43c"},{"rt":null,"stimulus":"\n\t\t\t<div class=\"flip_card\">\n\t\t\t\t<div class=\"flip_card_inner\">\n\t\t\t\t\t<div class=\"flip_card_front\">\n\t\t\t\t\t\t<img src=img/25.png>\n\t\t\t\t\t</div>\n\t\t\t\t\t<div class=\"flip_card_back\">\n\t\t\t\t\t\t<h2>How many soccer players should each team have on the field at the start of each match?</h2>\n\t\t\t\t\t\t<br>\n\t\t\t\t\t\t<p>Answer: <strong>11</strong></p>\n\t\t\t\t\t</div>\n\t\t\t\t</div>\n\t\t\t</div>\n\t\t\t","response":null,"trial_type":"html-keyboard-response","trial_index":36,"time_elapsed":356336,"internal_node_id":"0.0-3.0-2.7","prolific_id":"589fc07f1521230001ebf494","session_id":"643c1bdd9d50d3197c95f7eb","study_id":"64370a36d30bfa807bc7e43c"},{"rt":270,"stimulus":"\n\t\t\t\t\t<div>\n\t\t\t\t\t<h2>Trial 8 is over</h2>\n\t\t\t\t\t<p>Press <span style=\"color: red\"><strong>any key</strong></span> to continue to the next trial</p>\n\t\t\t\t\t</div>\n\t\t\t\t","response":" ","trial_type":"html-keyboard-response","trial_index":37,"time_elapsed":356608,"internal_node_id":"0.0-3.0-3.7","prolific_id":"589fc07f1521230001ebf494","session_id":"643c1bdd9d50d3197c95f7eb","study_id":"64370a36d30bfa807bc7e43c"},{"rt":7142,"response":{"prediction":"1900"},"trial_type":"survey-text","trial_index":38,"time_elapsed":363753,"internal_node_id":"0.0-3.0-0.8","prolific_id":"589fc07f1521230001ebf494","session_id":"643c1bdd9d50d3197c95f7eb","study_id":"64370a36d30bfa807bc7e43c"},{"rt":14140,"response":{"prior knowledge":0,"curiosity":2},"accuracy":[],"trial_type":"survey","trial_index":39,"time_elapsed":377921,"internal_node_id":"0.0-3.0-1.8","prolific_id":"589fc07f1521230001ebf494","session_id":"643c1bdd9d50d3197c95f7eb","study_id":"64370a36d30bfa807bc7e43c"},{"rt":null,"stimulus":"\n\t\t\t<div class=\"flip_card\">\n\t\t\t\t<div class=\"flip_card_inner\">\n\t\t\t\t\t<div class=\"flip_card_front\">\n\t\t\t\t\t\t<img src=img/19.png>\n\t\t\t\t\t</div>\n\t\t\t\t\t<div class=\"flip_card_back\">\n\t\t\t\t\t\t<h2>In what year did the first Modern Olympic Games take place?</h2>\n\t\t\t\t\t\t<br>\n\t\t\t\t\t\t<p>Answer: <strong>1896</strong></p>\n\t\t\t\t\t</div>\n\t\t\t\t</div>\n\t\t\t</div>\n\t\t\t","response":null,"trial_type":"html-keyboard-response","trial_index":40,"time_elapsed":382927,"internal_node_id":"0.0-3.0-2.8","prolific_id":"589fc07f1521230001ebf494","session_id":"643c1bdd9d50d3197c95f7eb","study_id":"64370a36d30bfa807bc7e43c"},{"rt":5093,"stimulus":"\n\t\t\t\t\t<div>\n\t\t\t\t\t<h2>Trial 9 is over</h2>\n\t\t\t\t\t<p>Press <span style=\"color: red\"><strong>any key</strong></span> to continue to the next trial</p>\n\t\t\t\t\t</div>\n\t\t\t\t","response":" ","trial_type":"html-keyboard-response","trial_index":41,"time_elapsed":388021,"internal_node_id":"0.0-3.0-3.8","prolific_id":"589fc07f1521230001ebf494","session_id":"643c1bdd9d50d3197c95f7eb","study_id":"64370a36d30bfa807bc7e43c"},{"rt":12710,"response":{"prediction":"1921"},"trial_type":"survey-text","trial_index":42,"time_elapsed":400734,"internal_node_id":"0.0-3.0-0.9","prolific_id":"589fc07f1521230001ebf494","session_id":"643c1bdd9d50d3197c95f7eb","study_id":"64370a36d30bfa807bc7e43c"},{"rt":8726,"response":{"prior knowledge":1,"curiosity":1},"accuracy":[],"trial_type":"survey","trial_index":43,"time_elapsed":409485,"internal_node_id":"0.0-3.0-1.9","prolific_id":"589fc07f1521230001ebf494","session_id":"643c1bdd9d50d3197c95f7eb","study_id":"64370a36d30bfa807bc7e43c"},{"rt":null,"stimulus":"\n\t\t\t<div class=\"flip_card\">\n\t\t\t\t<div class=\"flip_card_inner\">\n\t\t\t\t\t<div class=\"flip_card_front\">\n\t\t\t\t\t\t<img src=img/9.png>\n\t\t\t\t\t</div>\n\t\t\t\t\t<div class=\"flip_card_back\">\n\t\t\t\t\t\t<h2>What year did the titanic sink?</h2>\n\t\t\t\t\t\t<br>\n\t\t\t\t\t\t<p>Answer: <strong>1912</strong></p>\n\t\t\t\t\t</div>\n\t\t\t\t</div>\n\t\t\t</div>\n\t\t\t","response":null,"trial_type":"html-keyboard-response","trial_index":44,"time_elapsed":414497,"internal_node_id":"0.0-3.0-2.9","prolific_id":"589fc07f1521230001ebf494","session_id":"643c1bdd9d50d3197c95f7eb","study_id":"64370a36d30bfa807bc7e43c"},{"rt":2595,"stimulus":"\n\t\t\t\t\t<div>\n\t\t\t\t\t<h2>Trial 10 is over</h2>\n\t\t\t\t\t<p>Press <span style=\"color: red\"><strong>any key</strong></span> to continue to the next trial</p>\n\t\t\t\t\t</div>\n\t\t\t\t","response":" ","trial_type":"html-keyboard-response","trial_index":45,"time_elapsed":417092,"internal_node_id":"0.0-3.0-3.9","prolific_id":"589fc07f1521230001ebf494","session_id":"643c1bdd9d50d3197c95f7eb","study_id":"64370a36d30bfa807bc7e43c"},{"rt":14312,"response":{"prediction":"45"},"trial_type":"survey-text","trial_index":46,"time_elapsed":431410,"internal_node_id":"0.0-3.0-0.10","prolific_id":"589fc07f1521230001ebf494","session_id":"643c1bdd9d50d3197c95f7eb","study_id":"64370a36d30bfa807bc7e43c"},{"rt":9093,"response":{"prior knowledge":1,"curiosity":3},"accuracy":[],"trial_type":"survey","trial_index":47,"time_elapsed":440530,"internal_node_id":"0.0-3.0-1.10","prolific_id":"589fc07f1521230001ebf494","session_id":"643c1bdd9d50d3197c95f7eb","study_id":"64370a36d30bfa807bc7e43c"},{"rt":null,"stimulus":"\n\t\t\t<div class=\"flip_card\">\n\t\t\t\t<div class=\"flip_card_inner\">\n\t\t\t\t\t<div class=\"flip_card_front\">\n\t\t\t\t\t\t<img src=img/21.png>\n\t\t\t\t\t</div>\n\t\t\t\t\t<div class=\"flip_card_back\">\n\t\t\t\t\t\t<h2>How many double stitches does a baseball have?</h2>\n\t\t\t\t\t\t<br>\n\t\t\t\t\t\t<p>Answer: <strong>108</strong></p>\n\t\t\t\t\t</div>\n\t\t\t\t</div>\n\t\t\t</div>\n\t\t\t","response":null,"trial_type":"html-keyboard-response","trial_index":48,"time_elapsed":445538,"internal_node_id":"0.0-3.0-2.10","prolific_id":"589fc07f1521230001ebf494","session_id":"643c1bdd9d50d3197c95f7eb","study_id":"64370a36d30bfa807bc7e43c"},{"rt":3941,"stimulus":"\n\t\t\t\t\t<div>\n\t\t\t\t\t<h2>Trial 11 is over</h2>\n\t\t\t\t\t<p>Press <span style=\"color: red\"><strong>any key</strong></span> to continue to the next trial</p>\n\t\t\t\t\t</div>\n\t\t\t\t","response":" ","trial_type":"html-keyboard-response","trial_index":49,"time_elapsed":449480,"internal_node_id":"0.0-3.0-3.10","prolific_id":"589fc07f1521230001ebf494","session_id":"643c1bdd9d50d3197c95f7eb","study_id":"64370a36d30bfa807bc7e43c"},{"rt":4011,"response":{"prediction":"14"},"trial_type":"survey-text","trial_index":50,"time_elapsed":453495,"internal_node_id":"0.0-3.0-0.11","prolific_id":"589fc07f1521230001ebf494","session_id":"643c1bdd9d50d3197c95f7eb","study_id":"64370a36d30bfa807bc7e43c"},{"rt":12037,"response":{"prior knowledge":1,"curiosity":3},"accuracy":[],"trial_type":"survey","trial_index":51,"time_elapsed":465557,"internal_node_id":"0.0-3.0-1.11","prolific_id":"589fc07f1521230001ebf494","session_id":"643c1bdd9d50d3197c95f7eb","study_id":"64370a36d30bfa807bc7e43c"},{"rt":null,"stimulus":"\n\t\t\t<div class=\"flip_card\">\n\t\t\t\t<div class=\"flip_card_inner\">\n\t\t\t\t\t<div class=\"flip_card_front\">\n\t\t\t\t\t\t<img src=img/26.png>\n\t\t\t\t\t</div>\n\t\t\t\t\t<div class=\"flip_card_back\">\n\t\t\t\t\t\t<h2>A bar mitzvah is traditionally celebrated when Jewish males turn what age?</h2>\n\t\t\t\t\t\t<br>\n\t\t\t\t\t\t<p>Answer: <strong>13</strong></p>\n\t\t\t\t\t</div>\n\t\t\t\t</div>\n\t\t\t</div>\n\t\t\t","response":null,"trial_type":"html-keyboard-response","trial_index":52,"time_elapsed":470568,"internal_node_id":"0.0-3.0-2.11","prolific_id":"589fc07f1521230001ebf494","session_id":"643c1bdd9d50d3197c95f7eb","study_id":"64370a36d30bfa807bc7e43c"},{"rt":4926,"stimulus":"\n\t\t\t\t\t<div>\n\t\t\t\t\t<h2>Trial 12 is over</h2>\n\t\t\t\t\t<p>Press <span style=\"color: red\"><strong>any key</strong></span> to continue to the next trial</p>\n\t\t\t\t\t</div>\n\t\t\t\t","response":" ","trial_type":"html-keyboard-response","trial_index":53,"time_elapsed":475495,"internal_node_id":"0.0-3.0-3.11","prolific_id":"589fc07f1521230001ebf494","session_id":"643c1bdd9d50d3197c95f7eb","study_id":"64370a36d30bfa807bc7e43c"},{"rt":10469,"response":{"prediction":"4"},"trial_type":"survey-text","trial_index":54,"time_elapsed":485968,"internal_node_id":"0.0-3.0-0.12","prolific_id":"589fc07f1521230001ebf494","session_id":"643c1bdd9d50d3197c95f7eb","study_id":"64370a36d30bfa807bc7e43c"},{"rt":14616,"response":{"prior knowledge":0,"curiosity":1},"accuracy":[],"trial_type":"survey","trial_index":55,"time_elapsed":500609,"internal_node_id":"0.0-3.0-1.12","prolific_id":"589fc07f1521230001ebf494","session_id":"643c1bdd9d50d3197c95f7eb","study_id":"64370a36d30bfa807bc7e43c"},{"rt":null,"stimulus":"\n\t\t\t<div class=\"flip_card\">\n\t\t\t\t<div class=\"flip_card_inner\">\n\t\t\t\t\t<div class=\"flip_card_front\">\n\t\t\t\t\t\t<img src=img/30.png>\n\t\t\t\t\t</div>\n\t\t\t\t\t<div class=\"flip_card_back\">\n\t\t\t\t\t\t<h2>How many moons does Neptune have?</h2>\n\t\t\t\t\t\t<br>\n\t\t\t\t\t\t<p>Answer: <strong>14</strong></p>\n\t\t\t\t\t</div>\n\t\t\t\t</div>\n\t\t\t</div>\n\t\t\t","response":null,"trial_type":"html-keyboard-response","trial_index":56,"time_elapsed":505615,"internal_node_id":"0.0-3.0-2.12","prolific_id":"589fc07f1521230001ebf494","session_id":"643c1bdd9d50d3197c95f7eb","study_id":"64370a36d30bfa807bc7e43c"},{"rt":1598,"stimulus":"\n\t\t\t\t\t<div>\n\t\t\t\t\t<h2>Trial 13 is over</h2>\n\t\t\t\t\t<p>Press <span style=\"color: red\"><strong>any key</strong></span> to continue to the next trial</p>\n\t\t\t\t\t</div>\n\t\t\t\t","response":" ","trial_type":"html-keyboard-response","trial_index":57,"time_elapsed":507214,"internal_node_id":"0.0-3.0-3.12","prolific_id":"589fc07f1521230001ebf494","session_id":"643c1bdd9d50d3197c95f7eb","study_id":"64370a36d30bfa807bc7e43c"},{"rt":5382,"response":{"prediction":"1900"},"trial_type":"survey-text","trial_index":58,"time_elapsed":512599,"internal_node_id":"0.0-3.0-0.13","prolific_id":"589fc07f1521230001ebf494","session_id":"643c1bdd9d50d3197c95f7eb","study_id":"64370a36d30bfa807bc7e43c"},{"rt":10408,"response":{"prior knowledge":1,"curiosity":3},"accuracy":[],"trial_type":"survey","trial_index":59,"time_elapsed":523032,"internal_node_id":"0.0-3.0-1.13","prolific_id":"589fc07f1521230001ebf494","session_id":"643c1bdd9d50d3197c95f7eb","study_id":"64370a36d30bfa807bc7e43c"},{"rt":null,"stimulus":"\n\t\t\t<div class=\"flip_card\">\n\t\t\t\t<div class=\"flip_card_inner\">\n\t\t\t\t\t<div class=\"flip_card_front\">\n\t\t\t\t\t\t<img src=img/20.png>\n\t\t\t\t\t</div>\n\t\t\t\t\t<div class=\"flip_card_back\">\n\t\t\t\t\t\t<h2>In what year was the first Nobel Prize awarded?</h2>\n\t\t\t\t\t\t<br>\n\t\t\t\t\t\t<p>Answer: <strong>1901</strong></p>\n\t\t\t\t\t</div>\n\t\t\t\t</div>\n\t\t\t</div>\n\t\t\t","response":null,"trial_type":"html-keyboard-response","trial_index":60,"time_elapsed":528039,"internal_node_id":"0.0-3.0-2.13","prolific_id":"589fc07f1521230001ebf494","session_id":"643c1bdd9d50d3197c95f7eb","study_id":"64370a36d30bfa807bc7e43c"},{"rt":10180,"stimulus":"\n\t\t\t\t\t<div>\n\t\t\t\t\t<h2>Trial 14 is over</h2>\n\t\t\t\t\t<p>Press <span style=\"color: red\"><strong>any key</strong></span> to continue to the next trial</p>\n\t\t\t\t\t</div>\n\t\t\t\t","response":" ","trial_type":"html-keyboard-response","trial_index":61,"time_elapsed":538220,"internal_node_id":"0.0-3.0-3.13","prolific_id":"589fc07f1521230001ebf494","session_id":"643c1bdd9d50d3197c95f7eb","study_id":"64370a36d30bfa807bc7e43c"},{"rt":3826,"response":{"prediction":"5"},"trial_type":"survey-text","trial_index":62,"time_elapsed":542050,"internal_node_id":"0.0-3.0-0.14","prolific_id":"589fc07f1521230001ebf494","session_id":"643c1bdd9d50d3197c95f7eb","study_id":"64370a36d30bfa807bc7e43c"},{"rt":6093,"response":{"prior knowledge":3,"curiosity":2},"accuracy":[],"trial_type":"survey","trial_index":63,"time_elapsed":548165,"internal_node_id":"0.0-3.0-1.14","prolific_id":"589fc07f1521230001ebf494","session_id":"643c1bdd9d50d3197c95f7eb","study_id":"64370a36d30bfa807bc7e43c"},{"rt":null,"stimulus":"\n\t\t\t<div class=\"flip_card\">\n\t\t\t\t<div class=\"flip_card_inner\">\n\t\t\t\t\t<div class=\"flip_card_front\">\n\t\t\t\t\t\t<img src=img/28.png>\n\t\t\t\t\t</div>\n\t\t\t\t\t<div class=\"flip_card_back\">\n\t\t\t\t\t\t<h2>How many times a day do Muslims pray?</h2>\n\t\t\t\t\t\t<br>\n\t\t\t\t\t\t<p>Answer: <strong>5</strong></p>\n\t\t\t\t\t</div>\n\t\t\t\t</div>\n\t\t\t</div>\n\t\t\t","response":null,"trial_type":"html-keyboard-response","trial_index":64,"time_elapsed":553172,"internal_node_id":"0.0-3.0-2.14","prolific_id":"589fc07f1521230001ebf494","session_id":"643c1bdd9d50d3197c95f7eb","study_id":"64370a36d30bfa807bc7e43c"},{"rt":6275,"stimulus":"\n\t\t\t\t\t<div>\n\t\t\t\t\t<h2>Trial 15 is over</h2>\n\t\t\t\t\t<p>Press <span style=\"color: red\"><strong>any key</strong></span> to continue to the next trial</p>\n\t\t\t\t\t</div>\n\t\t\t\t","response":" ","trial_type":"html-keyboard-response","trial_index":65,"time_elapsed":559448,"internal_node_id":"0.0-3.0-3.14","prolific_id":"589fc07f1521230001ebf494","session_id":"643c1bdd9d50d3197c95f7eb","study_id":"64370a36d30bfa807bc7e43c"},{"rt":7662,"response":{"prediction":"21"},"trial_type":"survey-text","trial_index":66,"time_elapsed":567114,"internal_node_id":"0.0-3.0-0.15","prolific_id":"589fc07f1521230001ebf494","session_id":"643c1bdd9d50d3197c95f7eb","study_id":"64370a36d30bfa807bc7e43c"},{"rt":7443,"response":{"prior knowledge":0,"curiosity":3},"accuracy":[],"trial_type":"survey","trial_index":67,"time_elapsed":574592,"internal_node_id":"0.0-3.0-1.15","prolific_id":"589fc07f1521230001ebf494","session_id":"643c1bdd9d50d3197c95f7eb","study_id":"64370a36d30bfa807bc7e43c"},{"rt":null,"stimulus":"\n\t\t\t<div class=\"flip_card\">\n\t\t\t\t<div class=\"flip_card_inner\">\n\t\t\t\t\t<div class=\"flip_card_front\">\n\t\t\t\t\t\t<img src=img/17.png>\n\t\t\t\t\t</div>\n\t\t\t\t\t<div class=\"flip_card_back\">\n\t\t\t\t\t\t<h2>How many single hand gestures, or mudras, are used in Indian classical dance?</h2>\n\t\t\t\t\t\t<br>\n\t\t\t\t\t\t<p>Answer: <strong>28</strong></p>\n\t\t\t\t\t</div>\n\t\t\t\t</div>\n\t\t\t</div>\n\t\t\t","response":null,"trial_type":"html-keyboard-response","trial_index":68,"time_elapsed":579605,"internal_node_id":"0.0-3.0-2.15","prolific_id":"589fc07f1521230001ebf494","session_id":"643c1bdd9d50d3197c95f7eb","study_id":"64370a36d30bfa807bc7e43c"},{"rt":5753,"stimulus":"\n\t\t\t\t\t<div>\n\t\t\t\t\t<h2>Trial 16 is over</h2>\n\t\t\t\t\t<p>Press <span style=\"color: red\"><strong>any key</strong></span> to continue to the next trial</p>\n\t\t\t\t\t</div>\n\t\t\t\t","response":" ","trial_type":"html-keyboard-response","trial_index":69,"time_elapsed":585359,"internal_node_id":"0.0-3.0-3.15","prolific_id":"589fc07f1521230001ebf494","session_id":"643c1bdd9d50d3197c95f7eb","study_id":"64370a36d30bfa807bc7e43c"},{"rt":7979,"response":{"prediction":"2007"},"trial_type":"survey-text","trial_index":70,"time_elapsed":593341,"internal_node_id":"0.0-3.0-0.16","prolific_id":"589fc07f1521230001ebf494","session_id":"643c1bdd9d50d3197c95f7eb","study_id":"64370a36d30bfa807bc7e43c"},{"rt":11481,"response":{"prior knowledge":1,"curiosity":3},"accuracy":[],"trial_type":"survey","trial_index":71,"time_elapsed":604845,"internal_node_id":"0.0-3.0-1.16","prolific_id":"589fc07f1521230001ebf494","session_id":"643c1bdd9d50d3197c95f7eb","study_id":"64370a36d30bfa807bc7e43c"},{"rt":null,"stimulus":"\n\t\t\t<div class=\"flip_card\">\n\t\t\t\t<div class=\"flip_card_inner\">\n\t\t\t\t\t<div class=\"flip_card_front\">\n\t\t\t\t\t\t<img src=img/29.png>\n\t\t\t\t\t</div>\n\t\t\t\t\t<div class=\"flip_card_back\">\n\t\t\t\t\t\t<h2>What year was the very first model of the iPhone released?</h2>\n\t\t\t\t\t\t<br>\n\t\t\t\t\t\t<p>Answer: <strong>2007</strong></p>\n\t\t\t\t\t</div>\n\t\t\t\t</div>\n\t\t\t</div>\n\t\t\t","response":null,"trial_type":"html-keyboard-response","trial_index":72,"time_elapsed":609848,"internal_node_id":"0.0-3.0-2.16","prolific_id":"589fc07f1521230001ebf494","session_id":"643c1bdd9d50d3197c95f7eb","study_id":"64370a36d30bfa807bc7e43c"},{"rt":6095,"stimulus":"\n\t\t\t\t\t<div>\n\t\t\t\t\t<h2>Trial 17 is over</h2>\n\t\t\t\t\t<p>Press <span style=\"color: red\"><strong>any key</strong></span> to continue to the next trial</p>\n\t\t\t\t\t</div>\n\t\t\t\t","response":" ","trial_type":"html-keyboard-response","trial_index":73,"time_elapsed":615945,"internal_node_id":"0.0-3.0-3.16","prolific_id":"589fc07f1521230001ebf494","session_id":"643c1bdd9d50d3197c95f7eb","study_id":"64370a36d30bfa807bc7e43c"},{"rt":3214,"response":{"prediction":"13"},"trial_type":"survey-text","trial_index":74,"time_elapsed":619163,"internal_node_id":"0.0-3.0-0.17","prolific_id":"589fc07f1521230001ebf494","session_id":"643c1bdd9d50d3197c95f7eb","study_id":"64370a36d30bfa807bc7e43c"},{"rt":5040,"response":{"prior knowledge":1,"curiosity":0},"accuracy":[],"trial_type":"survey","trial_index":75,"time_elapsed":624226,"internal_node_id":"0.0-3.0-1.17","prolific_id":"589fc07f1521230001ebf494","session_id":"643c1bdd9d50d3197c95f7eb","study_id":"64370a36d30bfa807bc7e43c"},{"rt":null,"stimulus":"\n\t\t\t<div class=\"flip_card\">\n\t\t\t\t<div class=\"flip_card_inner\">\n\t\t\t\t\t<div class=\"flip_card_front\">\n\t\t\t\t\t\t<img src=img/16.png>\n\t\t\t\t\t</div>\n\t\t\t\t\t<div class=\"flip_card_back\">\n\t\t\t\t\t\t<h2>How much is in a Baker's Dozen?</h2>\n\t\t\t\t\t\t<br>\n\t\t\t\t\t\t<p>Answer: <strong>13</strong></p>\n\t\t\t\t\t</div>\n\t\t\t\t</div>\n\t\t\t</div>\n\t\t\t","response":null,"trial_type":"html-keyboard-response","trial_index":76,"time_elapsed":629233,"internal_node_id":"0.0-3.0-2.17","prolific_id":"589fc07f1521230001ebf494","session_id":"643c1bdd9d50d3197c95f7eb","study_id":"64370a36d30bfa807bc7e43c"},{"rt":3487,"stimulus":"\n\t\t\t\t\t<div>\n\t\t\t\t\t<h2>Trial 18 is over</h2>\n\t\t\t\t\t<p>Press <span style=\"color: red\"><strong>any key</strong></span> to continue to the next trial</p>\n\t\t\t\t\t</div>\n\t\t\t\t","response":" ","trial_type":"html-keyboard-response","trial_index":77,"time_elapsed":632721,"internal_node_id":"0.0-3.0-3.17","prolific_id":"589fc07f1521230001ebf494","session_id":"643c1bdd9d50d3197c95f7eb","study_id":"64370a36d30bfa807bc7e43c"},{"rt":4235,"response":{"prediction":"27"},"trial_type":"survey-text","trial_index":78,"time_elapsed":636959,"internal_node_id":"0.0-3.0-0.18","prolific_id":"589fc07f1521230001ebf494","session_id":"643c1bdd9d50d3197c95f7eb","study_id":"64370a36d30bfa807bc7e43c"},{"rt":16507,"response":{"prior knowledge":0,"curiosity":0},"accuracy":[],"trial_type":"survey","trial_index":79,"time_elapsed":653492,"internal_node_id":"0.0-3.0-1.18","prolific_id":"589fc07f1521230001ebf494","session_id":"643c1bdd9d50d3197c95f7eb","study_id":"64370a36d30bfa807bc7e43c"},{"rt":null,"stimulus":"\n\t\t\t<div class=\"flip_card\">\n\t\t\t\t<div class=\"flip_card_inner\">\n\t\t\t\t\t<div class=\"flip_card_front\">\n\t\t\t\t\t\t<img src=img/11.png>\n\t\t\t\t\t</div>\n\t\t\t\t\t<div class=\"flip_card_back\">\n\t\t\t\t\t\t<h2>How many lines are in a sonnet?</h2>\n\t\t\t\t\t\t<br>\n\t\t\t\t\t\t<p>Answer: <strong>14</strong></p>\n\t\t\t\t\t</div>\n\t\t\t\t</div>\n\t\t\t</div>\n\t\t\t","response":null,"trial_type":"html-keyboard-response","trial_index":80,"time_elapsed":658502,"internal_node_id":"0.0-3.0-2.18","prolific_id":"589fc07f1521230001ebf494","session_id":"643c1bdd9d50d3197c95f7eb","study_id":"64370a36d30bfa807bc7e43c"},{"rt":6221,"stimulus":"\n\t\t\t\t\t<div>\n\t\t\t\t\t<h2>Trial 19 is over</h2>\n\t\t\t\t\t<p>Press <span style=\"color: red\"><strong>any key</strong></span> to continue to the next trial</p>\n\t\t\t\t\t</div>\n\t\t\t\t","response":" ","trial_type":"html-keyboard-response","trial_index":81,"time_elapsed":664724,"internal_node_id":"0.0-3.0-3.18","prolific_id":"589fc07f1521230001ebf494","session_id":"643c1bdd9d50d3197c95f7eb","study_id":"64370a36d30bfa807bc7e43c"},{"rt":3380,"response":{"prediction":"4"},"trial_type":"survey-text","trial_index":82,"time_elapsed":668108,"internal_node_id":"0.0-3.0-0.19","prolific_id":"589fc07f1521230001ebf494","session_id":"643c1bdd9d50d3197c95f7eb","study_id":"64370a36d30bfa807bc7e43c"},{"rt":5111,"response":{"prior knowledge":0,"curiosity":5},"accuracy":[],"trial_type":"survey","trial_index":83,"time_elapsed":673243,"internal_node_id":"0.0-3.0-1.19","prolific_id":"589fc07f1521230001ebf494","session_id":"643c1bdd9d50d3197c95f7eb","study_id":"64370a36d30bfa807bc7e43c"},{"rt":null,"stimulus":"\n\t\t\t<div class=\"flip_card\">\n\t\t\t\t<div class=\"flip_card_inner\">\n\t\t\t\t\t<div class=\"flip_card_front\">\n\t\t\t\t\t\t<img src=img/23.png>\n\t\t\t\t\t</div>\n\t\t\t\t\t<div class=\"flip_card_back\">\n\t\t\t\t\t\t<h2>How many countries have territory in the Arctic Circle?</h2>\n\t\t\t\t\t\t<br>\n\t\t\t\t\t\t<p>Answer: <strong>8</strong></p>\n\t\t\t\t\t</div>\n\t\t\t\t</div>\n\t\t\t</div>\n\t\t\t","response":null,"trial_type":"html-keyboard-response","trial_index":84,"time_elapsed":678254,"internal_node_id":"0.0-3.0-2.19","prolific_id":"589fc07f1521230001ebf494","session_id":"643c1bdd9d50d3197c95f7eb","study_id":"64370a36d30bfa807bc7e43c"},{"rt":3829,"stimulus":"\n\t\t\t\t\t<div>\n\t\t\t\t\t<h2>Trial 20 is over</h2>\n\t\t\t\t\t<p>Press <span style=\"color: red\"><strong>any key</strong></span> to continue to the next trial</p>\n\t\t\t\t\t</div>\n\t\t\t\t","response":" ","trial_type":"html-keyboard-response","trial_index":85,"time_elapsed":682085,"internal_node_id":"0.0-3.0-3.19","prolific_id":"589fc07f1521230001ebf494","session_id":"643c1bdd9d50d3197c95f7eb","study_id":"64370a36d30bfa807bc7e43c"},{"rt":4406,"response":{"prediction":"3"},"trial_type":"survey-text","trial_index":86,"time_elapsed":686494,"internal_node_id":"0.0-3.0-0.20","prolific_id":"589fc07f1521230001ebf494","session_id":"643c1bdd9d50d3197c95f7eb","study_id":"64370a36d30bfa807bc7e43c"},{"rt":3581,"response":{"prior knowledge":1,"curiosity":5},"accuracy":[],"trial_type":"survey","trial_index":87,"time_elapsed":690100,"internal_node_id":"0.0-3.0-1.20","prolific_id":"589fc07f1521230001ebf494","session_id":"643c1bdd9d50d3197c95f7eb","study_id":"64370a36d30bfa807bc7e43c"},{"rt":null,"stimulus":"\n\t\t\t<div class=\"flip_card\">\n\t\t\t\t<div class=\"flip_card_inner\">\n\t\t\t\t\t<div class=\"flip_card_front\">\n\t\t\t\t\t\t<img src=img/22.png>\n\t\t\t\t\t</div>\n\t\t\t\t\t<div class=\"flip_card_back\">\n\t\t\t\t\t\t<h2>How many main islands make up Japan?</h2>\n\t\t\t\t\t\t<br>\n\t\t\t\t\t\t<p>Answer: <strong>4</strong></p>\n\t\t\t\t\t</div>\n\t\t\t\t</div>\n\t\t\t</div>\n\t\t\t","response":null,"trial_type":"html-keyboard-response","trial_index":88,"time_elapsed":695108,"internal_node_id":"0.0-3.0-2.20","prolific_id":"589fc07f1521230001ebf494","session_id":"643c1bdd9d50d3197c95f7eb","study_id":"64370a36d30bfa807bc7e43c"},{"rt":1896,"stimulus":"\n\t\t\t\t\t<div>\n\t\t\t\t\t<h2>Trial 21 is over</h2>\n\t\t\t\t\t<p>Press <span style=\"color: red\"><strong>any key</strong></span> to continue to the next trial</p>\n\t\t\t\t\t</div>\n\t\t\t\t","response":" ","trial_type":"html-keyboard-response","trial_index":89,"time_elapsed":697005,"internal_node_id":"0.0-3.0-3.20","prolific_id":"589fc07f1521230001ebf494","session_id":"643c1bdd9d50d3197c95f7eb","study_id":"64370a36d30bfa807bc7e43c"},{"rt":3551,"response":{"prediction":"5"},"trial_type":"survey-text","trial_index":90,"time_elapsed":700559,"internal_node_id":"0.0-3.0-0.21","prolific_id":"589fc07f1521230001ebf494","session_id":"643c1bdd9d50d3197c95f7eb","study_id":"64370a36d30bfa807bc7e43c"},{"rt":7247,"response":{"prior knowledge":0,"curiosity":5},"accuracy":[],"trial_type":"survey","trial_index":91,"time_elapsed":707832,"internal_node_id":"0.0-3.0-1.21","prolific_id":"589fc07f1521230001ebf494","session_id":"643c1bdd9d50d3197c95f7eb","study_id":"64370a36d30bfa807bc7e43c"},{"rt":null,"stimulus":"\n\t\t\t<div class=\"flip_card\">\n\t\t\t\t<div class=\"flip_card_inner\">\n\t\t\t\t\t<div class=\"flip_card_front\">\n\t\t\t\t\t\t<img src=img/3.png>\n\t\t\t\t\t</div>\n\t\t\t\t\t<div class=\"flip_card_back\">\n\t\t\t\t\t\t<h2>How many countries in Africa have French as the official language?</h2>\n\t\t\t\t\t\t<br>\n\t\t\t\t\t\t<p>Answer: <strong>21</strong></p>\n\t\t\t\t\t</div>\n\t\t\t\t</div>\n\t\t\t</div>\n\t\t\t","response":null,"trial_type":"html-keyboard-response","trial_index":92,"time_elapsed":712847,"internal_node_id":"0.0-3.0-2.21","prolific_id":"589fc07f1521230001ebf494","session_id":"643c1bdd9d50d3197c95f7eb","study_id":"64370a36d30bfa807bc7e43c"},{"rt":1509,"stimulus":"\n\t\t\t\t\t<div>\n\t\t\t\t\t<h2>Trial 22 is over</h2>\n\t\t\t\t\t<p>Press <span style=\"color: red\"><strong>any key</strong></span> to continue to the next trial</p>\n\t\t\t\t\t</div>\n\t\t\t\t","response":" ","trial_type":"html-keyboard-response","trial_index":93,"time_elapsed":714357,"internal_node_id":"0.0-3.0-3.21","prolific_id":"589fc07f1521230001ebf494","session_id":"643c1bdd9d50d3197c95f7eb","study_id":"64370a36d30bfa807bc7e43c"},{"rt":3494,"response":{"prediction":"5"},"trial_type":"survey-text","trial_index":94,"time_elapsed":717854,"internal_node_id":"0.0-3.0-0.22","prolific_id":"589fc07f1521230001ebf494","session_id":"643c1bdd9d50d3197c95f7eb","study_id":"64370a36d30bfa807bc7e43c"},{"rt":7323,"response":{"prior knowledge":0,"curiosity":5},"accuracy":[],"trial_type":"survey","trial_index":95,"time_elapsed":725201,"internal_node_id":"0.0-3.0-1.22","prolific_id":"589fc07f1521230001ebf494","session_id":"643c1bdd9d50d3197c95f7eb","study_id":"64370a36d30bfa807bc7e43c"},{"rt":null,"stimulus":"\n\t\t\t<div class=\"flip_card\">\n\t\t\t\t<div class=\"flip_card_inner\">\n\t\t\t\t\t<div class=\"flip_card_front\">\n\t\t\t\t\t\t<img src=img/4.png>\n\t\t\t\t\t</div>\n\t\t\t\t\t<div class=\"flip_card_back\">\n\t\t\t\t\t\t<h2>How many tones are in the Vietnamese language?</h2>\n\t\t\t\t\t\t<br>\n\t\t\t\t\t\t<p>Answer: <strong>6</strong></p>\n\t\t\t\t\t</div>\n\t\t\t\t</div>\n\t\t\t</div>\n\t\t\t","response":null,"trial_type":"html-keyboard-response","trial_index":96,"time_elapsed":730215,"internal_node_id":"0.0-3.0-2.22","prolific_id":"589fc07f1521230001ebf494","session_id":"643c1bdd9d50d3197c95f7eb","study_id":"64370a36d30bfa807bc7e43c"},{"rt":3947,"stimulus":"\n\t\t\t\t\t<div>\n\t\t\t\t\t<h2>Trial 23 is over</h2>\n\t\t\t\t\t<p>Press <span style=\"color: red\"><strong>any key</strong></span> to continue to the next trial</p>\n\t\t\t\t\t</div>\n\t\t\t\t","response":" ","trial_type":"html-keyboard-response","trial_index":97,"time_elapsed":734163,"internal_node_id":"0.0-3.0-3.22","prolific_id":"589fc07f1521230001ebf494","session_id":"643c1bdd9d50d3197c95f7eb","study_id":"64370a36d30bfa807bc7e43c"},{"rt":16625,"response":{"prediction":"40"},"trial_type":"survey-text","trial_index":98,"time_elapsed":750791,"internal_node_id":"0.0-3.0-0.23","prolific_id":"589fc07f1521230001ebf494","session_id":"643c1bdd9d50d3197c95f7eb","study_id":"64370a36d30bfa807bc7e43c"},{"rt":3736,"response":{"prior knowledge":0,"curiosity":5},"accuracy":[],"trial_type":"survey","trial_index":99,"time_elapsed":754550,"internal_node_id":"0.0-3.0-1.23","prolific_id":"589fc07f1521230001ebf494","session_id":"643c1bdd9d50d3197c95f7eb","study_id":"64370a36d30bfa807bc7e43c"},{"rt":null,"stimulus":"\n\t\t\t<div class=\"flip_card\">\n\t\t\t\t<div class=\"flip_card_inner\">\n\t\t\t\t\t<div class=\"flip_card_front\">\n\t\t\t\t\t\t<img src=img/1.png>\n\t\t\t\t\t</div>\n\t\t\t\t\t<div class=\"flip_card_back\">\n\t\t\t\t\t\t<h2>How many books are in the Catholic Bible?</h2>\n\t\t\t\t\t\t<br>\n\t\t\t\t\t\t<p>Answer: <strong>73</strong></p>\n\t\t\t\t\t</div>\n\t\t\t\t</div>\n\t\t\t</div>\n\t\t\t","response":null,"trial_type":"html-keyboard-response","trial_index":100,"time_elapsed":759556,"internal_node_id":"0.0-3.0-2.23","prolific_id":"589fc07f1521230001ebf494","session_id":"643c1bdd9d50d3197c95f7eb","study_id":"64370a36d30bfa807bc7e43c"},{"rt":191,"stimulus":"\n\t\t\t\t\t<div>\n\t\t\t\t\t<h2>Trial 24 is over</h2>\n\t\t\t\t\t<p>Press <span style=\"color: red\"><strong>any key</strong></span> to continue to the next trial</p>\n\t\t\t\t\t</div>\n\t\t\t\t","response":" ","trial_type":"html-keyboard-response","trial_index":101,"time_elapsed":759748,"internal_node_id":"0.0-3.0-3.23","prolific_id":"589fc07f1521230001ebf494","session_id":"643c1bdd9d50d3197c95f7eb","study_id":"64370a36d30bfa807bc7e43c"},{"rt":5710,"response":{"prediction":"1000"},"trial_type":"survey-text","trial_index":102,"time_elapsed":765461,"internal_node_id":"0.0-3.0-0.24","prolific_id":"589fc07f1521230001ebf494","session_id":"643c1bdd9d50d3197c95f7eb","study_id":"64370a36d30bfa807bc7e43c"},{"rt":3812,"response":{"prior knowledge":0,"curiosity":3},"accuracy":[],"trial_type":"survey","trial_index":103,"time_elapsed":769296,"internal_node_id":"0.0-3.0-1.24","prolific_id":"589fc07f1521230001ebf494","session_id":"643c1bdd9d50d3197c95f7eb","study_id":"64370a36d30bfa807bc7e43c"},{"rt":null,"stimulus":"\n\t\t\t<div class=\"flip_card\">\n\t\t\t\t<div class=\"flip_card_inner\">\n\t\t\t\t\t<div class=\"flip_card_front\">\n\t\t\t\t\t\t<img src=img/14.png>\n\t\t\t\t\t</div>\n\t\t\t\t\t<div class=\"flip_card_back\">\n\t\t\t\t\t\t<h2>How long is the Great Wall of China (in miles)?</h2>\n\t\t\t\t\t\t<br>\n\t\t\t\t\t\t<p>Answer: <strong>13171</strong></p>\n\t\t\t\t\t</div>\n\t\t\t\t</div>\n\t\t\t</div>\n\t\t\t","response":null,"trial_type":"html-keyboard-response","trial_index":104,"time_elapsed":774300,"internal_node_id":"0.0-3.0-2.24","prolific_id":"589fc07f1521230001ebf494","session_id":"643c1bdd9d50d3197c95f7eb","study_id":"64370a36d30bfa807bc7e43c"},{"rt":1104,"stimulus":"\n\t\t\t\t\t<div>\n\t\t\t\t\t<h2>Trial 25 is over</h2>\n\t\t\t\t\t<p>Press <span style=\"color: red\"><strong>any key</strong></span> to continue to the next trial</p>\n\t\t\t\t\t</div>\n\t\t\t\t","response":" ","trial_type":"html-keyboard-response","trial_index":105,"time_elapsed":775405,"internal_node_id":"0.0-3.0-3.24","prolific_id":"589fc07f1521230001ebf494","session_id":"643c1bdd9d50d3197c95f7eb","study_id":"64370a36d30bfa807bc7e43c"},{"rt":4372,"response":{"prediction":"49"},"trial_type":"survey-text","trial_index":106,"time_elapsed":779781,"internal_node_id":"0.0-3.0-0.25","prolific_id":"589fc07f1521230001ebf494","session_id":"643c1bdd9d50d3197c95f7eb","study_id":"64370a36d30bfa807bc7e43c"},{"rt":4102,"response":{"prior knowledge":0,"curiosity":5},"accuracy":[],"trial_type":"survey","trial_index":107,"time_elapsed":783910,"internal_node_id":"0.0-3.0-1.25","prolific_id":"589fc07f1521230001ebf494","session_id":"643c1bdd9d50d3197c95f7eb","study_id":"64370a36d30bfa807bc7e43c"},{"rt":null,"stimulus":"\n\t\t\t<div class=\"flip_card\">\n\t\t\t\t<div class=\"flip_card_inner\">\n\t\t\t\t\t<div class=\"flip_card_front\">\n\t\t\t\t\t\t<img src=img/15.png>\n\t\t\t\t\t</div>\n\t\t\t\t\t<div class=\"flip_card_back\">\n\t\t\t\t\t\t<h2>How many books has Stephen King published?</h2>\n\t\t\t\t\t\t<br>\n\t\t\t\t\t\t<p>Answer: <strong>65</strong></p>\n\t\t\t\t\t</div>\n\t\t\t\t</div>\n\t\t\t</div>\n\t\t\t","response":null,"trial_type":"html-keyboard-response","trial_index":108,"time_elapsed":788921,"internal_node_id":"0.0-3.0-2.25","prolific_id":"589fc07f1521230001ebf494","session_id":"643c1bdd9d50d3197c95f7eb","study_id":"64370a36d30bfa807bc7e43c"},{"rt":18509,"stimulus":"\n\t\t\t\t\t<div>\n\t\t\t\t\t<h2>Trial 26 is over</h2>\n\t\t\t\t\t<p>Press <span style=\"color: red\"><strong>any key</strong></span> to continue to the next trial</p>\n\t\t\t\t\t</div>\n\t\t\t\t","response":" ","trial_type":"html-keyboard-response","trial_index":109,"time_elapsed":807431,"internal_node_id":"0.0-3.0-3.25","prolific_id":"589fc07f1521230001ebf494","session_id":"643c1bdd9d50d3197c95f7eb","study_id":"64370a36d30bfa807bc7e43c"},{"rt":3921,"response":{"prediction":"19"},"trial_type":"survey-text","trial_index":110,"time_elapsed":811355,"internal_node_id":"0.0-3.0-0.26","prolific_id":"589fc07f1521230001ebf494","session_id":"643c1bdd9d50d3197c95f7eb","study_id":"64370a36d30bfa807bc7e43c"},{"rt":3964,"response":{"prior knowledge":2,"curiosity":5},"accuracy":[],"trial_type":"survey","trial_index":111,"time_elapsed":815344,"internal_node_id":"0.0-3.0-1.26","prolific_id":"589fc07f1521230001ebf494","session_id":"643c1bdd9d50d3197c95f7eb","study_id":"64370a36d30bfa807bc7e43c"},{"rt":null,"stimulus":"\n\t\t\t<div class=\"flip_card\">\n\t\t\t\t<div class=\"flip_card_inner\">\n\t\t\t\t\t<div class=\"flip_card_front\">\n\t\t\t\t\t\t<img src=img/5.png>\n\t\t\t\t\t</div>\n\t\t\t\t\t<div class=\"flip_card_back\">\n\t\t\t\t\t\t<h2>How old was King Tut when he died?</h2>\n\t\t\t\t\t\t<br>\n\t\t\t\t\t\t<p>Answer: <strong>19</strong></p>\n\t\t\t\t\t</div>\n\t\t\t\t</div>\n\t\t\t</div>\n\t\t\t","response":null,"trial_type":"html-keyboard-response","trial_index":112,"time_elapsed":820350,"internal_node_id":"0.0-3.0-2.26","prolific_id":"589fc07f1521230001ebf494","session_id":"643c1bdd9d50d3197c95f7eb","study_id":"64370a36d30bfa807bc7e43c"},{"rt":1207,"stimulus":"\n\t\t\t\t\t<div>\n\t\t\t\t\t<h2>Trial 27 is over</h2>\n\t\t\t\t\t<p>Press <span style=\"color: red\"><strong>any key</strong></span> to continue to the next trial</p>\n\t\t\t\t\t</div>\n\t\t\t\t","response":" ","trial_type":"html-keyboard-response","trial_index":113,"time_elapsed":821558,"internal_node_id":"0.0-3.0-3.26","prolific_id":"589fc07f1521230001ebf494","session_id":"643c1bdd9d50d3197c95f7eb","study_id":"64370a36d30bfa807bc7e43c"},{"rt":5940,"response":{"prediction":"40"},"trial_type":"survey-text","trial_index":114,"time_elapsed":827501,"internal_node_id":"0.0-3.0-0.27","prolific_id":"589fc07f1521230001ebf494","session_id":"643c1bdd9d50d3197c95f7eb","study_id":"64370a36d30bfa807bc7e43c"},{"rt":3648,"response":{"prior knowledge":0,"curiosity":5},"accuracy":[],"trial_type":"survey","trial_index":115,"time_elapsed":831174,"internal_node_id":"0.0-3.0-1.27","prolific_id":"589fc07f1521230001ebf494","session_id":"643c1bdd9d50d3197c95f7eb","study_id":"64370a36d30bfa807bc7e43c"},{"rt":null,"stimulus":"\n\t\t\t<div class=\"flip_card\">\n\t\t\t\t<div class=\"flip_card_inner\">\n\t\t\t\t\t<div class=\"flip_card_front\">\n\t\t\t\t\t\t<img src=img/7.png>\n\t\t\t\t\t</div>\n\t\t\t\t\t<div class=\"flip_card_back\">\n\t\t\t\t\t\t<h2>How many people are vegan globally (in millions)?</h2>\n\t\t\t\t\t\t<br>\n\t\t\t\t\t\t<p>Answer: <strong>79</strong></p>\n\t\t\t\t\t</div>\n\t\t\t\t</div>\n\t\t\t</div>\n\t\t\t","response":null,"trial_type":"html-keyboard-response","trial_index":116,"time_elapsed":836185,"internal_node_id":"0.0-3.0-2.27","prolific_id":"589fc07f1521230001ebf494","session_id":"643c1bdd9d50d3197c95f7eb","study_id":"64370a36d30bfa807bc7e43c"},{"rt":6582,"stimulus":"\n\t\t\t\t\t<div>\n\t\t\t\t\t<h2>Trial 28 is over</h2>\n\t\t\t\t\t<p>Press <span style=\"color: red\"><strong>any key</strong></span> to continue to the next trial</p>\n\t\t\t\t\t</div>\n\t\t\t\t","response":" ","trial_type":"html-keyboard-response","trial_index":117,"time_elapsed":842769,"internal_node_id":"0.0-3.0-3.27","prolific_id":"589fc07f1521230001ebf494","session_id":"643c1bdd9d50d3197c95f7eb","study_id":"64370a36d30bfa807bc7e43c"},{"rt":9127,"response":{"prediction":"50"},"trial_type":"survey-text","trial_index":118,"time_elapsed":851899,"internal_node_id":"0.0-3.0-0.28","prolific_id":"589fc07f1521230001ebf494","session_id":"643c1bdd9d50d3197c95f7eb","study_id":"64370a36d30bfa807bc7e43c"},{"rt":9963,"response":{"prior knowledge":0,"curiosity":0},"accuracy":[],"trial_type":"survey","trial_index":119,"time_elapsed":861886,"internal_node_id":"0.0-3.0-1.28","prolific_id":"589fc07f1521230001ebf494","session_id":"643c1bdd9d50d3197c95f7eb","study_id":"64370a36d30bfa807bc7e43c"},{"rt":null,"stimulus":"\n\t\t\t<div class=\"flip_card\">\n\t\t\t\t<div class=\"flip_card_inner\">\n\t\t\t\t\t<div class=\"flip_card_front\">\n\t\t\t\t\t\t<img src=img/13.png>\n\t\t\t\t\t</div>\n\t\t\t\t\t<div class=\"flip_card_back\">\n\t\t\t\t\t\t<h2>How many bones is a human baby born with?</h2>\n\t\t\t\t\t\t<br>\n\t\t\t\t\t\t<p>Answer: <strong>300</strong></p>\n\t\t\t\t\t</div>\n\t\t\t\t</div>\n\t\t\t</div>\n\t\t\t","response":null,"trial_type":"html-keyboard-response","trial_index":120,"time_elapsed":866897,"internal_node_id":"0.0-3.0-2.28","prolific_id":"589fc07f1521230001ebf494","session_id":"643c1bdd9d50d3197c95f7eb","study_id":"64370a36d30bfa807bc7e43c"},{"rt":12960,"stimulus":"\n\t\t\t\t\t<div>\n\t\t\t\t\t<h2>Trial 29 is over</h2>\n\t\t\t\t\t<p>Press <span style=\"color: red\"><strong>any key</strong></span> to continue to the next trial</p>\n\t\t\t\t\t</div>\n\t\t\t\t","response":" ","trial_type":"html-keyboard-response","trial_index":121,"time_elapsed":879858,"internal_node_id":"0.0-3.0-3.28","prolific_id":"589fc07f1521230001ebf494","session_id":"643c1bdd9d50d3197c95f7eb","study_id":"64370a36d30bfa807bc7e43c"},{"rt":4673,"response":{"prediction":"1986"},"trial_type":"survey-text","trial_index":122,"time_elapsed":884535,"internal_node_id":"0.0-3.0-0.29","prolific_id":"589fc07f1521230001ebf494","session_id":"643c1bdd9d50d3197c95f7eb","study_id":"64370a36d30bfa807bc7e43c"},{"rt":3009,"response":{"prior knowledge":2,"curiosity":5},"accuracy":[],"trial_type":"survey","trial_index":123,"time_elapsed":887569,"internal_node_id":"0.0-3.0-1.29","prolific_id":"589fc07f1521230001ebf494","session_id":"643c1bdd9d50d3197c95f7eb","study_id":"64370a36d30bfa807bc7e43c"},{"rt":null,"stimulus":"\n\t\t\t<div class=\"flip_card\">\n\t\t\t\t<div class=\"flip_card_inner\">\n\t\t\t\t\t<div class=\"flip_card_front\">\n\t\t\t\t\t\t<img src=img/24.png>\n\t\t\t\t\t</div>\n\t\t\t\t\t<div class=\"flip_card_back\">\n\t\t\t\t\t\t<h2>What year did the Berlin Wall fall?</h2>\n\t\t\t\t\t\t<br>\n\t\t\t\t\t\t<p>Answer: <strong>1989</strong></p>\n\t\t\t\t\t</div>\n\t\t\t\t</div>\n\t\t\t</div>\n\t\t\t","response":null,"trial_type":"html-keyboard-response","trial_index":124,"time_elapsed":892575,"internal_node_id":"0.0-3.0-2.29","prolific_id":"589fc07f1521230001ebf494","session_id":"643c1bdd9d50d3197c95f7eb","study_id":"64370a36d30bfa807bc7e43c"},{"rt":20557,"stimulus":"\n\t\t\t\t\t<div>\n\t\t\t\t\t<h2>Trial 30 is over</h2>\n\t\t\t\t\t<p>Press <span style=\"color: red\"><strong>any key</strong></span> to continue to the next trial</p>\n\t\t\t\t\t</div>\n\t\t\t\t","response":" ","trial_type":"html-keyboard-response","trial_index":125,"time_elapsed":913133,"internal_node_id":"0.0-3.0-3.29","prolific_id":"589fc07f1521230001ebf494","session_id":"643c1bdd9d50d3197c95f7eb","study_id":"64370a36d30bfa807bc7e43c"},{"rt":null,"stimulus":"\n\t\t\t<h2>Good job! You've finished the 30 trials:p</h2>\n\t\t\t<p>In the next session, you will see two cards on the screen in each trial.</p>\n\t\t\t<p>On one card is a pattern that you have seen before in the experiment,\n\t\t\t\tand on the other card is one you have not seen.</p><br>\n\t\t\t<p>Your task is to choose the one you think you <em>have</em> seen before for every trial.</p>\n\t\t\t<p>Press '<span style=\"color: red;\"><strong>F</strong></span>' to choose the card on the left,\n\t\t\t\tand '<span style=\"color: red;\"><strong>J</strong></span>' to choose the card on the right.</p>\n\t\t\t<p>Have fun!</p>\n\t\t\t<br>\n\t\t\t<p>The trials will begin in 30 seconds</p>\n\t\t\t","response":null,"trial_type":"html-keyboard-response","trial_index":126,"time_elapsed":943147,"internal_node_id":"0.0-4.0","prolific_id":"589fc07f1521230001ebf494","session_id":"643c1bdd9d50d3197c95f7eb","study_id":"64370a36d30bfa807bc7e43c"},{"rt":3489,"stimulus":"\n\t\t\t\t\t\t<div class=\"two_card_container\">\n\t\t\t\t\t\t<div class=\"card_container\">\n\t\t\t\t\t\t<img src=img/36.png>\n\t\t\t\t\t\t</div>\n\n\t\t\t\t\t\t<div class=\"card_container\">\n\t\t\t\t\t\t<img src=img/26.png>\n\t\t\t\t\t\t</div>","response":"j","task":"response","correct_response":"j","trial_type":"html-keyboard-response","trial_index":127,"time_elapsed":946639,"internal_node_id":"0.0-5.0-0.0","prolific_id":"589fc07f1521230001ebf494","session_id":"643c1bdd9d50d3197c95f7eb","study_id":"64370a36d30bfa807bc7e43c","correct":true},{"rt":null,"stimulus":"\n\t\t\t\t\t<p>Correct!</p>\n\t\t\t\t\t","response":null,"trial_type":"html-keyboard-response","trial_index":128,"time_elapsed":947650,"internal_node_id":"0.0-5.0-1.0","prolific_id":"589fc07f1521230001ebf494","session_id":"643c1bdd9d50d3197c95f7eb","study_id":"64370a36d30bfa807bc7e43c"},{"rt":1419,"stimulus":"\n\t\t\t\t\t\t<div class=\"two_card_container\">\n\t\t\t\t\t\t<div class=\"card_container\">\n\t\t\t\t\t\t<img src=img/35.png>\n\t\t\t\t\t\t</div>\n\n\t\t\t\t\t\t<div class=\"card_container\">\n\t\t\t\t\t\t<img src=img/16.png>\n\t\t\t\t\t\t</div>","response":"j","task":"response","correct_response":"j","trial_type":"html-keyboard-response","trial_index":129,"time_elapsed":949071,"internal_node_id":"0.0-5.0-0.1","prolific_id":"589fc07f1521230001ebf494","session_id":"643c1bdd9d50d3197c95f7eb","study_id":"64370a36d30bfa807bc7e43c","correct":true},{"rt":null,"stimulus":"\n\t\t\t\t\t<p>Correct!</p>\n\t\t\t\t\t","response":null,"trial_type":"html-keyboard-response","trial_index":130,"time_elapsed":950080,"internal_node_id":"0.0-5.0-1.1","prolific_id":"589fc07f1521230001ebf494","session_id":"643c1bdd9d50d3197c95f7eb","study_id":"64370a36d30bfa807bc7e43c"},{"rt":1485,"stimulus":"\n\t\t\t\t\t\t<div class=\"two_card_container\">\n\t\t\t\t\t\t<div class=\"card_container\">\n\t\t\t\t\t\t<img src=img/10.png>\n\t\t\t\t\t\t</div>\n\n\t\t\t\t\t\t<div class=\"card_container\">\n\t\t\t\t\t\t<img src=img/38.png>\n\t\t\t\t\t\t</div>","response":"f","task":"response","correct_response":"f","trial_type":"html-keyboard-response","trial_index":131,"time_elapsed":951567,"internal_node_id":"0.0-5.0-0.2","prolific_id":"589fc07f1521230001ebf494","session_id":"643c1bdd9d50d3197c95f7eb","study_id":"64370a36d30bfa807bc7e43c","correct":true},{"rt":null,"stimulus":"\n\t\t\t\t\t<p>Correct!</p>\n\t\t\t\t\t","response":null,"trial_type":"html-keyboard-response","trial_index":132,"time_elapsed":952580,"internal_node_id":"0.0-5.0-1.2","prolific_id":"589fc07f1521230001ebf494","session_id":"643c1bdd9d50d3197c95f7eb","study_id":"64370a36d30bfa807bc7e43c"},{"rt":1242,"stimulus":"\n\t\t\t\t\t\t<div class=\"two_card_container\">\n\t\t\t\t\t\t<div class=\"card_container\">\n\t\t\t\t\t\t<img src=img/39.png>\n\t\t\t\t\t\t</div>\n\n\t\t\t\t\t\t<div class=\"card_container\">\n\t\t\t\t\t\t<img src=img/6.png>\n\t\t\t\t\t\t</div>","response":"f","task":"response","correct_response":"j","trial_type":"html-keyboard-response","trial_index":133,"time_elapsed":953823,"internal_node_id":"0.0-5.0-0.3","prolific_id":"589fc07f1521230001ebf494","session_id":"643c1bdd9d50d3197c95f7eb","study_id":"64370a36d30bfa807bc7e43c","correct":false},{"rt":null,"stimulus":"\n\t\t\t\t\t<p>Wrong answer</p>\n\t\t\t\t\t","response":null,"trial_type":"html-keyboard-response","trial_index":134,"time_elapsed":954834,"internal_node_id":"0.0-5.0-1.3","prolific_id":"589fc07f1521230001ebf494","session_id":"643c1bdd9d50d3197c95f7eb","study_id":"64370a36d30bfa807bc7e43c"},{"rt":1332,"stimulus":"\n\t\t\t\t\t\t<div class=\"two_card_container\">\n\t\t\t\t\t\t<div class=\"card_container\">\n\t\t\t\t\t\t<img src=img/9.png>\n\t\t\t\t\t\t</div>\n\n\t\t\t\t\t\t<div class=\"card_container\">\n\t\t\t\t\t\t<img src=img/37.png>\n\t\t\t\t\t\t</div>","response":"j","task":"response","correct_response":"f","trial_type":"html-keyboard-response","trial_index":135,"time_elapsed":956168,"internal_node_id":"0.0-5.0-0.4","prolific_id":"589fc07f1521230001ebf494","session_id":"643c1bdd9d50d3197c95f7eb","study_id":"64370a36d30bfa807bc7e43c","correct":false},{"rt":null,"stimulus":"\n\t\t\t\t\t<p>Wrong answer</p>\n\t\t\t\t\t","response":null,"trial_type":"html-keyboard-response","trial_index":136,"time_elapsed":957175,"internal_node_id":"0.0-5.0-1.4","prolific_id":"589fc07f1521230001ebf494","session_id":"643c1bdd9d50d3197c95f7eb","study_id":"64370a36d30bfa807bc7e43c"},{"rt":919,"stimulus":"\n\t\t\t\t\t\t<div class=\"two_card_container\">\n\t\t\t\t\t\t<div class=\"card_container\">\n\t\t\t\t\t\t<img src=img/27.png>\n\t\t\t\t\t\t</div>\n\n\t\t\t\t\t\t<div class=\"card_container\">\n\t\t\t\t\t\t<img src=img/31.png>\n\t\t\t\t\t\t</div>","response":"j","task":"response","correct_response":"f","trial_type":"html-keyboard-response","trial_index":137,"time_elapsed":958096,"internal_node_id":"0.0-5.0-0.5","prolific_id":"589fc07f1521230001ebf494","session_id":"643c1bdd9d50d3197c95f7eb","study_id":"64370a36d30bfa807bc7e43c","correct":false},{"rt":null,"stimulus":"\n\t\t\t\t\t<p>Wrong answer</p>\n\t\t\t\t\t","response":null,"trial_type":"html-keyboard-response","trial_index":138,"time_elapsed":959108,"internal_node_id":"0.0-5.0-1.5","prolific_id":"589fc07f1521230001ebf494","session_id":"643c1bdd9d50d3197c95f7eb","study_id":"64370a36d30bfa807bc7e43c"},{"rt":938,"stimulus":"\n\t\t\t\t\t\t<div class=\"two_card_container\">\n\t\t\t\t\t\t<div class=\"card_container\">\n\t\t\t\t\t\t<img src=img/32.png>\n\t\t\t\t\t\t</div>\n\n\t\t\t\t\t\t<div class=\"card_container\">\n\t\t\t\t\t\t<img src=img/7.png>\n\t\t\t\t\t\t</div>","response":"j","task":"response","correct_response":"j","trial_type":"html-keyboard-response","trial_index":139,"time_elapsed":960047,"internal_node_id":"0.0-5.0-0.6","prolific_id":"589fc07f1521230001ebf494","session_id":"643c1bdd9d50d3197c95f7eb","study_id":"64370a36d30bfa807bc7e43c","correct":true},{"rt":null,"stimulus":"\n\t\t\t\t\t<p>Correct!</p>\n\t\t\t\t\t","response":null,"trial_type":"html-keyboard-response","trial_index":140,"time_elapsed":961060,"internal_node_id":"0.0-5.0-1.6","prolific_id":"589fc07f1521230001ebf494","session_id":"643c1bdd9d50d3197c95f7eb","study_id":"64370a36d30bfa807bc7e43c"},{"rt":1266,"stimulus":"\n\t\t\t\t\t\t<div class=\"two_card_container\">\n\t\t\t\t\t\t<div class=\"card_container\">\n\t\t\t\t\t\t<img src=img/2.png>\n\t\t\t\t\t\t</div>\n\n\t\t\t\t\t\t<div class=\"card_container\">\n\t\t\t\t\t\t<img src=img/40.png>\n\t\t\t\t\t\t</div>","response":"f","task":"response","correct_response":"f","trial_type":"html-keyboard-response","trial_index":141,"time_elapsed":962327,"internal_node_id":"0.0-5.0-0.7","prolific_id":"589fc07f1521230001ebf494","session_id":"643c1bdd9d50d3197c95f7eb","study_id":"64370a36d30bfa807bc7e43c","correct":true},{"rt":null,"stimulus":"\n\t\t\t\t\t<p>Correct!</p>\n\t\t\t\t\t","response":null,"trial_type":"html-keyboard-response","trial_index":142,"time_elapsed":963340,"internal_node_id":"0.0-5.0-1.7","prolific_id":"589fc07f1521230001ebf494","session_id":"643c1bdd9d50d3197c95f7eb","study_id":"64370a36d30bfa807bc7e43c"},{"rt":1202,"stimulus":"\n\t\t\t\t\t\t<div class=\"two_card_container\">\n\t\t\t\t\t\t<div class=\"card_container\">\n\t\t\t\t\t\t<img src=img/20.png>\n\t\t\t\t\t\t</div>\n\n\t\t\t\t\t\t<div class=\"card_container\">\n\t\t\t\t\t\t<img src=img/33.png>\n\t\t\t\t\t\t</div>","response":"f","task":"response","correct_response":"f","trial_type":"html-keyboard-response","trial_index":143,"time_elapsed":964543,"internal_node_id":"0.0-5.0-0.8","prolific_id":"589fc07f1521230001ebf494","session_id":"643c1bdd9d50d3197c95f7eb","study_id":"64370a36d30bfa807bc7e43c","correct":true},{"rt":null,"stimulus":"\n\t\t\t\t\t<p>Correct!</p>\n\t\t\t\t\t","response":null,"trial_type":"html-keyboard-response","trial_index":144,"time_elapsed":965556,"internal_node_id":"0.0-5.0-1.8","prolific_id":"589fc07f1521230001ebf494","session_id":"643c1bdd9d50d3197c95f7eb","study_id":"64370a36d30bfa807bc7e43c"},{"rt":1593,"stimulus":"\n\t\t\t\t\t\t<div class=\"two_card_container\">\n\t\t\t\t\t\t<div class=\"card_container\">\n\t\t\t\t\t\t<img src=img/34.png>\n\t\t\t\t\t\t</div>\n\n\t\t\t\t\t\t<div class=\"card_container\">\n\t\t\t\t\t\t<img src=img/21.png>\n\t\t\t\t\t\t</div>","response":"j","task":"response","correct_response":"j","trial_type":"html-keyboard-response","trial_index":145,"time_elapsed":967151,"internal_node_id":"0.0-5.0-0.9","prolific_id":"589fc07f1521230001ebf494","session_id":"643c1bdd9d50d3197c95f7eb","study_id":"64370a36d30bfa807bc7e43c","correct":true},{"rt":null,"stimulus":"\n\t\t\t\t\t<p>Correct!</p>\n\t\t\t\t\t","response":null,"trial_type":"html-keyboard-response","trial_index":146,"time_elapsed":968164,"internal_node_id":"0.0-5.0-1.9","prolific_id":"589fc07f1521230001ebf494","session_id":"643c1bdd9d50d3197c95f7eb","study_id":"64370a36d30bfa807bc7e43c"},{"rt":null,"stimulus":"\n\t\t\t<h2>Good job :p</h2>\n\t\t\t<p>In the next session, you will see a trivia question on the screen in each trial.</p>\n\t\t\t<p>Each of these trivia questions is chosen from the questions you have already seen in the first session of the experiment.</p><br>\n\t\t\t<p>Your task is to answer the trivia question based on what you remember as accurately as you can.</p>\n\t\t\t<p>Have fun!</p>\n\t\t\t<br>\n\t\t\t<p>The trials will begin in 30 seconds</p>\n\t\t\t","response":null,"trial_type":"html-keyboard-response","trial_index":147,"time_elapsed":998172,"internal_node_id":"0.0-6.0","prolific_id":"589fc07f1521230001ebf494","session_id":"643c1bdd9d50d3197c95f7eb","study_id":"64370a36d30bfa807bc7e43c"},{"rt":8453,"response":{"answer":"79"},"task":"response","correct_response":"79","trial_type":"survey-text","trial_index":148,"time_elapsed":1006629,"internal_node_id":"0.0-7.0-0.0","prolific_id":"589fc07f1521230001ebf494","session_id":"643c1bdd9d50d3197c95f7eb","study_id":"64370a36d30bfa807bc7e43c","difference":0},{"rt":null,"stimulus":"<h2>The correct answer is 79.</h2><p>Your answer was different from the answer by 0.</p><p>You got the right answer. Amazing work!</p>","response":null,"trial_type":"html-keyboard-response","trial_index":149,"time_elapsed":1009137,"internal_node_id":"0.0-7.0-1.0","prolific_id":"589fc07f1521230001ebf494","session_id":"643c1bdd9d50d3197c95f7eb","study_id":"64370a36d30bfa807bc7e43c"},{"rt":4283,"response":{"answer":"4"},"task":"response","correct_response":"14","trial_type":"survey-text","trial_index":150,"time_elapsed":1013424,"internal_node_id":"0.0-7.0-0.1","prolific_id":"589fc07f1521230001ebf494","session_id":"643c1bdd9d50d3197c95f7eb","study_id":"64370a36d30bfa807bc7e43c","difference":71},{"rt":null,"stimulus":"<h2>The correct answer is 14.</h2><p>Your answer was different from the answer by 10.</p><p>Not even close... do better next time!</p>","response":null,"trial_type":"html-keyboard-response","trial_index":151,"time_elapsed":1015929,"internal_node_id":"0.0-7.0-1.1","prolific_id":"589fc07f1521230001ebf494","session_id":"643c1bdd9d50d3197c95f7eb","study_id":"64370a36d30bfa807bc7e43c"},{"rt":3461,"response":{"answer":"13"},"task":"response","correct_response":"13","trial_type":"survey-text","trial_index":152,"time_elapsed":1019394,"internal_node_id":"0.0-7.0-0.2","prolific_id":"589fc07f1521230001ebf494","session_id":"643c1bdd9d50d3197c95f7eb","study_id":"64370a36d30bfa807bc7e43c","difference":0},{"rt":null,"stimulus":"<h2>The correct answer is 13.</h2><p>Your answer was different from the answer by 0.</p><p>You got the right answer. Amazing work!</p>","response":null,"trial_type":"html-keyboard-response","trial_index":153,"time_elapsed":1021896,"internal_node_id":"0.0-7.0-1.2","prolific_id":"589fc07f1521230001ebf494","session_id":"643c1bdd9d50d3197c95f7eb","study_id":"64370a36d30bfa807bc7e43c"},{"rt":5824,"response":{"answer":"13179"},"task":"response","correct_response":"13171","trial_type":"survey-text","trial_index":154,"time_elapsed":1027723,"internal_node_id":"0.0-7.0-0.3","prolific_id":"589fc07f1521230001ebf494","session_id":"643c1bdd9d50d3197c95f7eb","study_id":"64370a36d30bfa807bc7e43c","difference":0},{"rt":null,"stimulus":"<h2>The correct answer is 13171.</h2><p>Your answer was different from the answer by 8.</p><p>Excellent. Kudos to you!</p>","response":null,"trial_type":"html-keyboard-response","trial_index":155,"time_elapsed":1030234,"internal_node_id":"0.0-7.0-1.3","prolific_id":"589fc07f1521230001ebf494","session_id":"643c1bdd9d50d3197c95f7eb","study_id":"64370a36d30bfa807bc7e43c"},{"rt":4011,"response":{"answer":"1989"},"task":"response","correct_response":"1989","trial_type":"survey-text","trial_index":156,"time_elapsed":1034248,"internal_node_id":"0.0-7.0-0.4","prolific_id":"589fc07f1521230001ebf494","session_id":"643c1bdd9d50d3197c95f7eb","study_id":"64370a36d30bfa807bc7e43c","difference":0},{"rt":null,"stimulus":"<h2>The correct answer is 1989.</h2><p>Your answer was different from the answer by 0.</p><p>You got the right answer. Amazing work!</p>","response":null,"trial_type":"html-keyboard-response","trial_index":157,"time_elapsed":1036755,"internal_node_id":"0.0-7.0-1.4","prolific_id":"589fc07f1521230001ebf494","session_id":"643c1bdd9d50d3197c95f7eb","study_id":"64370a36d30bfa807bc7e43c"},{"rt":4189,"response":{"answer":"36"},"task":"response","correct_response":"88","trial_type":"survey-text","trial_index":158,"time_elapsed":1040948,"internal_node_id":"0.0-7.0-0.5","prolific_id":"589fc07f1521230001ebf494","session_id":"643c1bdd9d50d3197c95f7eb","study_id":"64370a36d30bfa807bc7e43c","difference":59},{"rt":null,"stimulus":"<h2>The correct answer is 88.</h2><p>Your answer was different from the answer by 52.</p><p>Not even close... do better next time!</p>","response":null,"trial_type":"html-keyboard-response","trial_index":159,"time_elapsed":1043457,"internal_node_id":"0.0-7.0-1.5","prolific_id":"589fc07f1521230001ebf494","session_id":"643c1bdd9d50d3197c95f7eb","study_id":"64370a36d30bfa807bc7e43c"},{"rt":5378,"response":{"answer":"7919"},"task":"response","correct_response":"7917.5","trial_type":"survey-text","trial_index":160,"time_elapsed":1048839,"internal_node_id":"0.0-7.0-0.6","prolific_id":"589fc07f1521230001ebf494","session_id":"643c1bdd9d50d3197c95f7eb","study_id":"64370a36d30bfa807bc7e43c","difference":0},{"rt":null,"stimulus":"<h2>The correct answer is 7917.5.</h2><p>Your answer was different from the answer by 1.5.</p><p>Excellent. Kudos to you!</p>","response":null,"trial_type":"html-keyboard-response","trial_index":161,"time_elapsed":1051349,"internal_node_id":"0.0-7.0-1.6","prolific_id":"589fc07f1521230001ebf494","session_id":"643c1bdd9d50d3197c95f7eb","study_id":"64370a36d30bfa807bc7e43c"},{"rt":4609,"response":{"answer":"12"},"task":"response","correct_response":"14","trial_type":"survey-text","trial_index":162,"time_elapsed":1055962,"internal_node_id":"0.0-7.0-0.7","prolific_id":"589fc07f1521230001ebf494","session_id":"643c1bdd9d50d3197c95f7eb","study_id":"64370a36d30bfa807bc7e43c","difference":14},{"rt":null,"stimulus":"<h2>The correct answer is 14.</h2><p>Your answer was different from the answer by 2.</p><p>A pretty good job indeed.</p>","response":null,"trial_type":"html-keyboard-response","trial_index":163,"time_elapsed":1058468,"internal_node_id":"0.0-7.0-1.7","prolific_id":"589fc07f1521230001ebf494","session_id":"643c1bdd9d50d3197c95f7eb","study_id":"64370a36d30bfa807bc7e43c"},{"rt":4664,"response":{"answer":"114"},"task":"response","correct_response":"163","trial_type":"survey-text","trial_index":164,"time_elapsed":1063135,"internal_node_id":"0.0-7.0-0.8","prolific_id":"589fc07f1521230001ebf494","session_id":"643c1bdd9d50d3197c95f7eb","study_id":"64370a36d30bfa807bc7e43c","difference":30},{"rt":null,"stimulus":"<h2>The correct answer is 163.</h2><p>Your answer was different from the answer by 49.</p><p>A pretty good job indeed.</p>","response":null,"trial_type":"html-keyboard-response","trial_index":165,"time_elapsed":1065646,"internal_node_id":"0.0-7.0-1.8","prolific_id":"589fc07f1521230001ebf494","session_id":"643c1bdd9d50d3197c95f7eb","study_id":"64370a36d30bfa807bc7e43c"},{"rt":2932,"response":{"answer":"5"},"task":"response","correct_response":"5","trial_type":"survey-text","trial_index":166,"time_elapsed":1068581,"internal_node_id":"0.0-7.0-0.9","prolific_id":"589fc07f1521230001ebf494","session_id":"643c1bdd9d50d3197c95f7eb","study_id":"64370a36d30bfa807bc7e43c","difference":0},{"rt":null,"stimulus":"<h2>The correct answer is 5.</h2><p>Your answer was different from the answer by 0.</p><p>You got the right answer. Amazing work!</p>","response":null,"trial_type":"html-keyboard-response","trial_index":167,"time_elapsed":1071090,"internal_node_id":"0.0-7.0-1.9","prolific_id":"589fc07f1521230001ebf494","session_id":"643c1bdd9d50d3197c95f7eb","study_id":"64370a36d30bfa807bc7e43c"}]