[{"success":true,"timeout":false,"failed_images":[],"failed_audio":[],"failed_video":[],"trial_type":"preload","trial_index":0,"time_elapsed":276356,"internal_node_id":"0.0-0.0","prolific_id":"5a0ef93279f96a0001c73f25","session_id":"643c2513193a7d486b20a327","study_id":"64370a36d30bfa807bc7e43c"},{"rt":6324,"stimulus":"\n\t\t\t\t\t<p>Welcome and thank you for participating in this study!</p>\n\t\t\t\t\t<p>In each trial, you will be given a trivia question and then be asked to:</p><br>\n\t\t\t\t\t<div class=\"list\">\n\t\t\t\t\t<p>1) Predict the answer</p>\n\t\t\t\t\t<p>2) Rate how much you already know about the topic</p>\n\t\t\t\t\t<p>3) Rate how much you want to know the answer</p>\n\t\t\t\t\t</div>\n\t\t\t\t\t<br>\n\t\t\t\t\t<p>Then, you will see a card that flips over to reveal the answer.</p>\n\t\t\t\t\t<br>\n\t\t\t\t\t<p>Let's try a practice round. Press <span style=\"color: red\"><strong>any key</strong></span> to move to the next slide</p>\n\t\t\t\t\t","response":"control","trial_type":"html-keyboard-response","trial_index":1,"time_elapsed":282681,"internal_node_id":"0.0-1.0","prolific_id":"5a0ef93279f96a0001c73f25","session_id":"643c2513193a7d486b20a327","study_id":"64370a36d30bfa807bc7e43c"},{"rt":6166,"response":{"practice prediction":"0"},"task":"practice","trial_type":"survey-text","trial_index":2,"time_elapsed":288888,"internal_node_id":"0.0-2.0-0.0","prolific_id":"5a0ef93279f96a0001c73f25","session_id":"643c2513193a7d486b20a327","study_id":"64370a36d30bfa807bc7e43c"},{"rt":7635,"response":{"practice":5},"accuracy":[],"trial_type":"survey","trial_index":3,"time_elapsed":296599,"internal_node_id":"0.0-2.0-1.0","prolific_id":"5a0ef93279f96a0001c73f25","session_id":"643c2513193a7d486b20a327","study_id":"64370a36d30bfa807bc7e43c"},{"rt":null,"stimulus":"\n\t\t\t\t<div class=\"flip_card\">\n\t\t\t\t\t<div class=\"flip_card_inner\">\n\t\t\t\t\t\t<div class=\"flip_card_front\">\n\t\t\t\t\t\t\t<img src=img/practice.png>\n\t\t\t\t\t\t</div>\n\t\t\t\t\t\t<div class=\"flip_card_back\">\n\t\t\t\t\t\t\t<h2>\"How many legs does a lobster have?\"</h2>\n\t\t\t\t\t\t    <br>\n\t\t\t\t\t\t    <p>Answer: <strong>\"10\"</strong></p>\n\t\t\t\t\t    </div>\n\t\t\t\t    </div>\n\t\t\t    </div>\n\t\t\t\t","response":null,"trial_type":"html-keyboard-response","trial_index":4,"time_elapsed":301607,"internal_node_id":"0.0-2.0-2.0","prolific_id":"5a0ef93279f96a0001c73f25","session_id":"643c2513193a7d486b20a327","study_id":"64370a36d30bfa807bc7e43c"},{"rt":3559,"stimulus":"\n\t\t\t\t\t<div>\n\t\t\t\t\t<h2>The practice round is over</h2>\n\t\t\t\t\t<p>Press <span style=\"color: red\"><strong>any key</strong></span> to continue to the actual trials</p>\n\t\t\t\t\t<p>Good Luck!</p>\n\t\t\t\t\t</div>\n\t\t\t\t\t","response":" ","trial_type":"html-keyboard-response","trial_index":5,"time_elapsed":305167,"internal_node_id":"0.0-2.0-3.0","prolific_id":"5a0ef93279f96a0001c73f25","session_id":"643c2513193a7d486b20a327","study_id":"64370a36d30bfa807bc7e43c"},{"rt":7403,"response":{"prediction":"100"},"trial_type":"survey-text","trial_index":6,"time_elapsed":312581,"internal_node_id":"0.0-3.0-0.0","prolific_id":"5a0ef93279f96a0001c73f25","session_id":"643c2513193a7d486b20a327","study_id":"64370a36d30bfa807bc7e43c"},{"rt":7415,"response":{"prior knowledge":0,"curiosity":5},"accuracy":[],"trial_type":"survey","trial_index":7,"time_elapsed":320017,"internal_node_id":"0.0-3.0-1.0","prolific_id":"5a0ef93279f96a0001c73f25","session_id":"643c2513193a7d486b20a327","study_id":"64370a36d30bfa807bc7e43c"},{"rt":null,"stimulus":"\n\t\t\t<div class=\"flip_card\">\n\t\t\t\t<div class=\"flip_card_inner\">\n\t\t\t\t\t<div class=\"flip_card_front\">\n\t\t\t\t\t\t<img src=img/5.png>\n\t\t\t\t\t</div>\n\t\t\t\t\t<div class=\"flip_card_back\">\n\t\t\t\t\t\t<h2>How many floors are in the Burj Khalifa, the tallest building in the world?</h2>\n\t\t\t\t\t\t<br>\n\t\t\t\t\t\t<p>Answer: <strong>163</strong></p>\n\t\t\t\t\t</div>\n\t\t\t\t</div>\n\t\t\t</div>\n\t\t\t","response":null,"trial_type":"html-keyboard-response","trial_index":8,"time_elapsed":325516,"internal_node_id":"0.0-3.0-2.0","prolific_id":"5a0ef93279f96a0001c73f25","session_id":"643c2513193a7d486b20a327","study_id":"64370a36d30bfa807bc7e43c"},{"rt":1847,"stimulus":"\n\t\t\t\t\t<div>\n\t\t\t\t\t<h2>Trial 1 is over</h2>\n\t\t\t\t\t<p>Press <span style=\"color: red\"><strong>any key</strong></span> to continue to the next trial</p>\n\t\t\t\t\t</div>\n\t\t\t\t","response":",","trial_type":"html-keyboard-response","trial_index":9,"time_elapsed":327364,"internal_node_id":"0.0-3.0-3.0","prolific_id":"5a0ef93279f96a0001c73f25","session_id":"643c2513193a7d486b20a327","study_id":"64370a36d30bfa807bc7e43c"},{"rt":7190,"response":{"prediction":"50"},"trial_type":"survey-text","trial_index":10,"time_elapsed":334557,"internal_node_id":"0.0-3.0-0.1","prolific_id":"5a0ef93279f96a0001c73f25","session_id":"643c2513193a7d486b20a327","study_id":"64370a36d30bfa807bc7e43c"},{"rt":6469,"response":{"prior knowledge":2,"curiosity":5},"accuracy":[],"trial_type":"survey","trial_index":11,"time_elapsed":341045,"internal_node_id":"0.0-3.0-1.1","prolific_id":"5a0ef93279f96a0001c73f25","session_id":"643c2513193a7d486b20a327","study_id":"64370a36d30bfa807bc7e43c"},{"rt":null,"stimulus":"\n\t\t\t<div class=\"flip_card\">\n\t\t\t\t<div class=\"flip_card_inner\">\n\t\t\t\t\t<div class=\"flip_card_front\">\n\t\t\t\t\t\t<img src=img/25.png>\n\t\t\t\t\t</div>\n\t\t\t\t\t<div class=\"flip_card_back\">\n\t\t\t\t\t\t<h2>How many countries are in Africa?</h2>\n\t\t\t\t\t\t<br>\n\t\t\t\t\t\t<p>Answer: <strong>54</strong></p>\n\t\t\t\t\t</div>\n\t\t\t\t</div>\n\t\t\t</div>\n\t\t\t","response":null,"trial_type":"html-keyboard-response","trial_index":12,"time_elapsed":346794,"internal_node_id":"0.0-3.0-2.1","prolific_id":"5a0ef93279f96a0001c73f25","session_id":"643c2513193a7d486b20a327","study_id":"64370a36d30bfa807bc7e43c"},{"rt":3047,"stimulus":"\n\t\t\t\t\t<div>\n\t\t\t\t\t<h2>Trial 2 is over</h2>\n\t\t\t\t\t<p>Press <span style=\"color: red\"><strong>any key</strong></span> to continue to the next trial</p>\n\t\t\t\t\t</div>\n\t\t\t\t","response":" ","trial_type":"html-keyboard-response","trial_index":13,"time_elapsed":349842,"internal_node_id":"0.0-3.0-3.1","prolific_id":"5a0ef93279f96a0001c73f25","session_id":"643c2513193a7d486b20a327","study_id":"64370a36d30bfa807bc7e43c"},{"rt":5184,"response":{"prediction":"3"},"trial_type":"survey-text","trial_index":14,"time_elapsed":355031,"internal_node_id":"0.0-3.0-0.2","prolific_id":"5a0ef93279f96a0001c73f25","session_id":"643c2513193a7d486b20a327","study_id":"64370a36d30bfa807bc7e43c"},{"rt":7721,"response":{"prior knowledge":0,"curiosity":5},"accuracy":[],"trial_type":"survey","trial_index":15,"time_elapsed":362784,"internal_node_id":"0.0-3.0-1.2","prolific_id":"5a0ef93279f96a0001c73f25","session_id":"643c2513193a7d486b20a327","study_id":"64370a36d30bfa807bc7e43c"},{"rt":null,"stimulus":"\n\t\t\t<div class=\"flip_card\">\n\t\t\t\t<div class=\"flip_card_inner\">\n\t\t\t\t\t<div class=\"flip_card_front\">\n\t\t\t\t\t\t<img src=img/11.png>\n\t\t\t\t\t</div>\n\t\t\t\t\t<div class=\"flip_card_back\">\n\t\t\t\t\t\t<h2>How many countries have territory in the Arctic Circle?</h2>\n\t\t\t\t\t\t<br>\n\t\t\t\t\t\t<p>Answer: <strong>8</strong></p>\n\t\t\t\t\t</div>\n\t\t\t\t</div>\n\t\t\t</div>\n\t\t\t","response":null,"trial_type":"html-keyboard-response","trial_index":16,"time_elapsed":367801,"internal_node_id":"0.0-3.0-2.2","prolific_id":"5a0ef93279f96a0001c73f25","session_id":"643c2513193a7d486b20a327","study_id":"64370a36d30bfa807bc7e43c"},{"rt":2108,"stimulus":"\n\t\t\t\t\t<div>\n\t\t\t\t\t<h2>Trial 3 is over</h2>\n\t\t\t\t\t<p>Press <span style=\"color: red\"><strong>any key</strong></span> to continue to the next trial</p>\n\t\t\t\t\t</div>\n\t\t\t\t","response":"g","trial_type":"html-keyboard-response","trial_index":17,"time_elapsed":369909,"internal_node_id":"0.0-3.0-3.2","prolific_id":"5a0ef93279f96a0001c73f25","session_id":"643c2513193a7d486b20a327","study_id":"64370a36d30bfa807bc7e43c"},{"rt":7539,"response":{"prediction":"60"},"trial_type":"survey-text","trial_index":18,"time_elapsed":377451,"internal_node_id":"0.0-3.0-0.3","prolific_id":"5a0ef93279f96a0001c73f25","session_id":"643c2513193a7d486b20a327","study_id":"64370a36d30bfa807bc7e43c"},{"rt":18612,"response":{"prior knowledge":3,"curiosity":4},"accuracy":[],"trial_type":"survey","trial_index":19,"time_elapsed":396079,"internal_node_id":"0.0-3.0-1.3","prolific_id":"5a0ef93279f96a0001c73f25","session_id":"643c2513193a7d486b20a327","study_id":"64370a36d30bfa807bc7e43c"},{"rt":null,"stimulus":"\n\t\t\t<div class=\"flip_card\">\n\t\t\t\t<div class=\"flip_card_inner\">\n\t\t\t\t\t<div class=\"flip_card_front\">\n\t\t\t\t\t\t<img src=img/22.png>\n\t\t\t\t\t</div>\n\t\t\t\t\t<div class=\"flip_card_back\">\n\t\t\t\t\t\t<h2>How many books has Stephen King published?</h2>\n\t\t\t\t\t\t<br>\n\t\t\t\t\t\t<p>Answer: <strong>65</strong></p>\n\t\t\t\t\t</div>\n\t\t\t\t</div>\n\t\t\t</div>\n\t\t\t","response":null,"trial_type":"html-keyboard-response","trial_index":20,"time_elapsed":401569,"internal_node_id":"0.0-3.0-2.3","prolific_id":"5a0ef93279f96a0001c73f25","session_id":"643c2513193a7d486b20a327","study_id":"64370a36d30bfa807bc7e43c"},{"rt":1327,"stimulus":"\n\t\t\t\t\t<div>\n\t\t\t\t\t<h2>Trial 4 is over</h2>\n\t\t\t\t\t<p>Press <span style=\"color: red\"><strong>any key</strong></span> to continue to the next trial</p>\n\t\t\t\t\t</div>\n\t\t\t\t","response":"n","trial_type":"html-keyboard-response","trial_index":21,"time_elapsed":402897,"internal_node_id":"0.0-3.0-3.3","prolific_id":"5a0ef93279f96a0001c73f25","session_id":"643c2513193a7d486b20a327","study_id":"64370a36d30bfa807bc7e43c"},{"rt":4817,"response":{"prediction":"16"},"trial_type":"survey-text","trial_index":22,"time_elapsed":407718,"internal_node_id":"0.0-3.0-0.4","prolific_id":"5a0ef93279f96a0001c73f25","session_id":"643c2513193a7d486b20a327","study_id":"64370a36d30bfa807bc7e43c"},{"rt":5788,"response":{"prior knowledge":4,"curiosity":5},"accuracy":[],"trial_type":"survey","trial_index":23,"time_elapsed":414023,"internal_node_id":"0.0-3.0-1.4","prolific_id":"5a0ef93279f96a0001c73f25","session_id":"643c2513193a7d486b20a327","study_id":"64370a36d30bfa807bc7e43c"},{"rt":null,"stimulus":"\n\t\t\t<div class=\"flip_card\">\n\t\t\t\t<div class=\"flip_card_inner\">\n\t\t\t\t\t<div class=\"flip_card_front\">\n\t\t\t\t\t\t<img src=img/8.png>\n\t\t\t\t\t</div>\n\t\t\t\t\t<div class=\"flip_card_back\">\n\t\t\t\t\t\t<h2>How old was King Tut when he died?</h2>\n\t\t\t\t\t\t<br>\n\t\t\t\t\t\t<p>Answer: <strong>19</strong></p>\n\t\t\t\t\t</div>\n\t\t\t\t</div>\n\t\t\t</div>\n\t\t\t","response":null,"trial_type":"html-keyboard-response","trial_index":24,"time_elapsed":419031,"internal_node_id":"0.0-3.0-2.4","prolific_id":"5a0ef93279f96a0001c73f25","session_id":"643c2513193a7d486b20a327","study_id":"64370a36d30bfa807bc7e43c"},{"rt":1148,"stimulus":"\n\t\t\t\t\t<div>\n\t\t\t\t\t<h2>Trial 5 is over</h2>\n\t\t\t\t\t<p>Press <span style=\"color: red\"><strong>any key</strong></span> to continue to the next trial</p>\n\t\t\t\t\t</div>\n\t\t\t\t","response":"m","trial_type":"html-keyboard-response","trial_index":25,"time_elapsed":420180,"internal_node_id":"0.0-3.0-3.4","prolific_id":"5a0ef93279f96a0001c73f25","session_id":"643c2513193a7d486b20a327","study_id":"64370a36d30bfa807bc7e43c"},{"rt":5032,"response":{"prediction":"10"},"trial_type":"survey-text","trial_index":26,"time_elapsed":425219,"internal_node_id":"0.0-3.0-0.5","prolific_id":"5a0ef93279f96a0001c73f25","session_id":"643c2513193a7d486b20a327","study_id":"64370a36d30bfa807bc7e43c"},{"rt":6363,"response":{"prior knowledge":2,"curiosity":5},"accuracy":[],"trial_type":"survey","trial_index":27,"time_elapsed":431605,"internal_node_id":"0.0-3.0-1.5","prolific_id":"5a0ef93279f96a0001c73f25","session_id":"643c2513193a7d486b20a327","study_id":"64370a36d30bfa807bc7e43c"},{"rt":null,"stimulus":"\n\t\t\t<div class=\"flip_card\">\n\t\t\t\t<div class=\"flip_card_inner\">\n\t\t\t\t\t<div class=\"flip_card_front\">\n\t\t\t\t\t\t<img src=img/23.png>\n\t\t\t\t\t</div>\n\t\t\t\t\t<div class=\"flip_card_back\">\n\t\t\t\t\t\t<h2>How many tones are in the Vietnamese language?</h2>\n\t\t\t\t\t\t<br>\n\t\t\t\t\t\t<p>Answer: <strong>6</strong></p>\n\t\t\t\t\t</div>\n\t\t\t\t</div>\n\t\t\t</div>\n\t\t\t","response":null,"trial_type":"html-keyboard-response","trial_index":28,"time_elapsed":436618,"internal_node_id":"0.0-3.0-2.5","prolific_id":"5a0ef93279f96a0001c73f25","session_id":"643c2513193a7d486b20a327","study_id":"64370a36d30bfa807bc7e43c"},{"rt":1074,"stimulus":"\n\t\t\t\t\t<div>\n\t\t\t\t\t<h2>Trial 6 is over</h2>\n\t\t\t\t\t<p>Press <span style=\"color: red\"><strong>any key</strong></span> to continue to the next trial</p>\n\t\t\t\t\t</div>\n\t\t\t\t","response":"m","trial_type":"html-keyboard-response","trial_index":29,"time_elapsed":437693,"internal_node_id":"0.0-3.0-3.5","prolific_id":"5a0ef93279f96a0001c73f25","session_id":"643c2513193a7d486b20a327","study_id":"64370a36d30bfa807bc7e43c"},{"rt":5756,"response":{"prediction":"30"},"trial_type":"survey-text","trial_index":30,"time_elapsed":443452,"internal_node_id":"0.0-3.0-0.6","prolific_id":"5a0ef93279f96a0001c73f25","session_id":"643c2513193a7d486b20a327","study_id":"64370a36d30bfa807bc7e43c"},{"rt":7410,"response":{"prior knowledge":3,"curiosity":4},"accuracy":[],"trial_type":"survey","trial_index":31,"time_elapsed":450877,"internal_node_id":"0.0-3.0-1.6","prolific_id":"5a0ef93279f96a0001c73f25","session_id":"643c2513193a7d486b20a327","study_id":"64370a36d30bfa807bc7e43c"},{"rt":null,"stimulus":"\n\t\t\t<div class=\"flip_card\">\n\t\t\t\t<div class=\"flip_card_inner\">\n\t\t\t\t\t<div class=\"flip_card_front\">\n\t\t\t\t\t\t<img src=img/20.png>\n\t\t\t\t\t</div>\n\t\t\t\t\t<div class=\"flip_card_back\">\n\t\t\t\t\t\t<h2>How many double stitches does a baseball have?</h2>\n\t\t\t\t\t\t<br>\n\t\t\t\t\t\t<p>Answer: <strong>108</strong></p>\n\t\t\t\t\t</div>\n\t\t\t\t</div>\n\t\t\t</div>\n\t\t\t","response":null,"trial_type":"html-keyboard-response","trial_index":32,"time_elapsed":455880,"internal_node_id":"0.0-3.0-2.6","prolific_id":"5a0ef93279f96a0001c73f25","session_id":"643c2513193a7d486b20a327","study_id":"64370a36d30bfa807bc7e43c"},{"rt":1690,"stimulus":"\n\t\t\t\t\t<div>\n\t\t\t\t\t<h2>Trial 7 is over</h2>\n\t\t\t\t\t<p>Press <span style=\"color: red\"><strong>any key</strong></span> to continue to the next trial</p>\n\t\t\t\t\t</div>\n\t\t\t\t","response":"m","trial_type":"html-keyboard-response","trial_index":33,"time_elapsed":457571,"internal_node_id":"0.0-3.0-3.6","prolific_id":"5a0ef93279f96a0001c73f25","session_id":"643c2513193a7d486b20a327","study_id":"64370a36d30bfa807bc7e43c"},{"rt":6992,"response":{"prediction":"200"},"trial_type":"survey-text","trial_index":34,"time_elapsed":464565,"internal_node_id":"0.0-3.0-0.7","prolific_id":"5a0ef93279f96a0001c73f25","session_id":"643c2513193a7d486b20a327","study_id":"64370a36d30bfa807bc7e43c"},{"rt":10611,"response":{"prior knowledge":2,"curiosity":4},"accuracy":[],"trial_type":"survey","trial_index":35,"time_elapsed":475190,"internal_node_id":"0.0-3.0-1.7","prolific_id":"5a0ef93279f96a0001c73f25","session_id":"643c2513193a7d486b20a327","study_id":"64370a36d30bfa807bc7e43c"},{"rt":null,"stimulus":"\n\t\t\t<div class=\"flip_card\">\n\t\t\t\t<div class=\"flip_card_inner\">\n\t\t\t\t\t<div class=\"flip_card_front\">\n\t\t\t\t\t\t<img src=img/2.png>\n\t\t\t\t\t</div>\n\t\t\t\t\t<div class=\"flip_card_back\">\n\t\t\t\t\t\t<h2>What is the diameter of Earth in miles?</h2>\n\t\t\t\t\t\t<br>\n\t\t\t\t\t\t<p>Answer: <strong>7917.5</strong></p>\n\t\t\t\t\t</div>\n\t\t\t\t</div>\n\t\t\t</div>\n\t\t\t","response":null,"trial_type":"html-keyboard-response","trial_index":36,"time_elapsed":480195,"internal_node_id":"0.0-3.0-2.7","prolific_id":"5a0ef93279f96a0001c73f25","session_id":"643c2513193a7d486b20a327","study_id":"64370a36d30bfa807bc7e43c"},{"rt":1985,"stimulus":"\n\t\t\t\t\t<div>\n\t\t\t\t\t<h2>Trial 8 is over</h2>\n\t\t\t\t\t<p>Press <span style=\"color: red\"><strong>any key</strong></span> to continue to the next trial</p>\n\t\t\t\t\t</div>\n\t\t\t\t","response":"m","trial_type":"html-keyboard-response","trial_index":37,"time_elapsed":482185,"internal_node_id":"0.0-3.0-3.7","prolific_id":"5a0ef93279f96a0001c73f25","session_id":"643c2513193a7d486b20a327","study_id":"64370a36d30bfa807bc7e43c"},{"rt":6808,"response":{"prediction":"1950"},"trial_type":"survey-text","trial_index":38,"time_elapsed":489005,"internal_node_id":"0.0-3.0-0.8","prolific_id":"5a0ef93279f96a0001c73f25","session_id":"643c2513193a7d486b20a327","study_id":"64370a36d30bfa807bc7e43c"},{"rt":25831,"response":{"prior knowledge":2,"curiosity":5},"accuracy":[],"trial_type":"survey","trial_index":39,"time_elapsed":514853,"internal_node_id":"0.0-3.0-1.8","prolific_id":"5a0ef93279f96a0001c73f25","session_id":"643c2513193a7d486b20a327","study_id":"64370a36d30bfa807bc7e43c"},{"rt":null,"stimulus":"\n\t\t\t<div class=\"flip_card\">\n\t\t\t\t<div class=\"flip_card_inner\">\n\t\t\t\t\t<div class=\"flip_card_front\">\n\t\t\t\t\t\t<img src=img/10.png>\n\t\t\t\t\t</div>\n\t\t\t\t\t<div class=\"flip_card_back\">\n\t\t\t\t\t\t<h2>In what year was the first Nobel Prize awarded?</h2>\n\t\t\t\t\t\t<br>\n\t\t\t\t\t\t<p>Answer: <strong>1901</strong></p>\n\t\t\t\t\t</div>\n\t\t\t\t</div>\n\t\t\t</div>\n\t\t\t","response":null,"trial_type":"html-keyboard-response","trial_index":40,"time_elapsed":519859,"internal_node_id":"0.0-3.0-2.8","prolific_id":"5a0ef93279f96a0001c73f25","session_id":"643c2513193a7d486b20a327","study_id":"64370a36d30bfa807bc7e43c"},{"rt":1542,"stimulus":"\n\t\t\t\t\t<div>\n\t\t\t\t\t<h2>Trial 9 is over</h2>\n\t\t\t\t\t<p>Press <span style=\"color: red\"><strong>any key</strong></span> to continue to the next trial</p>\n\t\t\t\t\t</div>\n\t\t\t\t","response":"m","trial_type":"html-keyboard-response","trial_index":41,"time_elapsed":521401,"internal_node_id":"0.0-3.0-3.8","prolific_id":"5a0ef93279f96a0001c73f25","session_id":"643c2513193a7d486b20a327","study_id":"64370a36d30bfa807bc7e43c"},{"rt":8007,"response":{"prediction":"30"},"trial_type":"survey-text","trial_index":42,"time_elapsed":529412,"internal_node_id":"0.0-3.0-0.9","prolific_id":"5a0ef93279f96a0001c73f25","session_id":"643c2513193a7d486b20a327","study_id":"64370a36d30bfa807bc7e43c"},{"rt":6193,"response":{"prior knowledge":1,"curiosity":5},"accuracy":[],"trial_type":"survey","trial_index":43,"time_elapsed":535625,"internal_node_id":"0.0-3.0-1.9","prolific_id":"5a0ef93279f96a0001c73f25","session_id":"643c2513193a7d486b20a327","study_id":"64370a36d30bfa807bc7e43c"},{"rt":null,"stimulus":"\n\t\t\t<div class=\"flip_card\">\n\t\t\t\t<div class=\"flip_card_inner\">\n\t\t\t\t\t<div class=\"flip_card_front\">\n\t\t\t\t\t\t<img src=img/16.png>\n\t\t\t\t\t</div>\n\t\t\t\t\t<div class=\"flip_card_back\">\n\t\t\t\t\t\t<h2>How many bones is a human baby born with?</h2>\n\t\t\t\t\t\t<br>\n\t\t\t\t\t\t<p>Answer: <strong>300</strong></p>\n\t\t\t\t\t</div>\n\t\t\t\t</div>\n\t\t\t</div>\n\t\t\t","response":null,"trial_type":"html-keyboard-response","trial_index":44,"time_elapsed":540758,"internal_node_id":"0.0-3.0-2.9","prolific_id":"5a0ef93279f96a0001c73f25","session_id":"643c2513193a7d486b20a327","study_id":"64370a36d30bfa807bc7e43c"},{"rt":1169,"stimulus":"\n\t\t\t\t\t<div>\n\t\t\t\t\t<h2>Trial 10 is over</h2>\n\t\t\t\t\t<p>Press <span style=\"color: red\"><strong>any key</strong></span> to continue to the next trial</p>\n\t\t\t\t\t</div>\n\t\t\t\t","response":",","trial_type":"html-keyboard-response","trial_index":45,"time_elapsed":541927,"internal_node_id":"0.0-3.0-3.9","prolific_id":"5a0ef93279f96a0001c73f25","session_id":"643c2513193a7d486b20a327","study_id":"64370a36d30bfa807bc7e43c"},{"rt":4975,"response":{"prediction":"3"},"trial_type":"survey-text","trial_index":46,"time_elapsed":546905,"internal_node_id":"0.0-3.0-0.10","prolific_id":"5a0ef93279f96a0001c73f25","session_id":"643c2513193a7d486b20a327","study_id":"64370a36d30bfa807bc7e43c"},{"rt":5688,"response":{"prior knowledge":3,"curiosity":5},"accuracy":[],"trial_type":"survey","trial_index":47,"time_elapsed":552616,"internal_node_id":"0.0-3.0-1.10","prolific_id":"5a0ef93279f96a0001c73f25","session_id":"643c2513193a7d486b20a327","study_id":"64370a36d30bfa807bc7e43c"},{"rt":null,"stimulus":"\n\t\t\t<div class=\"flip_card\">\n\t\t\t\t<div class=\"flip_card_inner\">\n\t\t\t\t\t<div class=\"flip_card_front\">\n\t\t\t\t\t\t<img src=img/24.png>\n\t\t\t\t\t</div>\n\t\t\t\t\t<div class=\"flip_card_back\">\n\t\t\t\t\t\t<h2>How many moons does Neptune have?</h2>\n\t\t\t\t\t\t<br>\n\t\t\t\t\t\t<p>Answer: <strong>14</strong></p>\n\t\t\t\t\t</div>\n\t\t\t\t</div>\n\t\t\t</div>\n\t\t\t","response":null,"trial_type":"html-keyboard-response","trial_index":48,"time_elapsed":557624,"internal_node_id":"0.0-3.0-2.10","prolific_id":"5a0ef93279f96a0001c73f25","session_id":"643c2513193a7d486b20a327","study_id":"64370a36d30bfa807bc7e43c"},{"rt":1289,"stimulus":"\n\t\t\t\t\t<div>\n\t\t\t\t\t<h2>Trial 11 is over</h2>\n\t\t\t\t\t<p>Press <span style=\"color: red\"><strong>any key</strong></span> to continue to the next trial</p>\n\t\t\t\t\t</div>\n\t\t\t\t","response":"m","trial_type":"html-keyboard-response","trial_index":49,"time_elapsed":558914,"internal_node_id":"0.0-3.0-3.10","prolific_id":"5a0ef93279f96a0001c73f25","session_id":"643c2513193a7d486b20a327","study_id":"64370a36d30bfa807bc7e43c"},{"rt":6952,"response":{"prediction":"200"},"trial_type":"survey-text","trial_index":50,"time_elapsed":565868,"internal_node_id":"0.0-3.0-0.11","prolific_id":"5a0ef93279f96a0001c73f25","session_id":"643c2513193a7d486b20a327","study_id":"64370a36d30bfa807bc7e43c"},{"rt":14644,"response":{"prior knowledge":3,"curiosity":5},"accuracy":[],"trial_type":"survey","trial_index":51,"time_elapsed":580526,"internal_node_id":"0.0-3.0-1.11","prolific_id":"5a0ef93279f96a0001c73f25","session_id":"643c2513193a7d486b20a327","study_id":"64370a36d30bfa807bc7e43c"},{"rt":null,"stimulus":"\n\t\t\t<div class=\"flip_card\">\n\t\t\t\t<div class=\"flip_card_inner\">\n\t\t\t\t\t<div class=\"flip_card_front\">\n\t\t\t\t\t\t<img src=img/19.png>\n\t\t\t\t\t</div>\n\t\t\t\t\t<div class=\"flip_card_back\">\n\t\t\t\t\t\t<h2>How many people are vegan globally (in millions)?</h2>\n\t\t\t\t\t\t<br>\n\t\t\t\t\t\t<p>Answer: <strong>79</strong></p>\n\t\t\t\t\t</div>\n\t\t\t\t</div>\n\t\t\t</div>\n\t\t\t","response":null,"trial_type":"html-keyboard-response","trial_index":52,"time_elapsed":585600,"internal_node_id":"0.0-3.0-2.11","prolific_id":"5a0ef93279f96a0001c73f25","session_id":"643c2513193a7d486b20a327","study_id":"64370a36d30bfa807bc7e43c"},{"rt":3485,"stimulus":"\n\t\t\t\t\t<div>\n\t\t\t\t\t<h2>Trial 12 is over</h2>\n\t\t\t\t\t<p>Press <span style=\"color: red\"><strong>any key</strong></span> to continue to the next trial</p>\n\t\t\t\t\t</div>\n\t\t\t\t","response":"m","trial_type":"html-keyboard-response","trial_index":53,"time_elapsed":589085,"internal_node_id":"0.0-3.0-3.11","prolific_id":"5a0ef93279f96a0001c73f25","session_id":"643c2513193a7d486b20a327","study_id":"64370a36d30bfa807bc7e43c"},{"rt":6228,"response":{"prediction":"500"},"trial_type":"survey-text","trial_index":54,"time_elapsed":595317,"internal_node_id":"0.0-3.0-0.12","prolific_id":"5a0ef93279f96a0001c73f25","session_id":"643c2513193a7d486b20a327","study_id":"64370a36d30bfa807bc7e43c"},{"rt":21166,"response":{"prior knowledge":2,"curiosity":5},"accuracy":[],"trial_type":"survey","trial_index":55,"time_elapsed":616500,"internal_node_id":"0.0-3.0-1.12","prolific_id":"5a0ef93279f96a0001c73f25","session_id":"643c2513193a7d486b20a327","study_id":"64370a36d30bfa807bc7e43c"},{"rt":null,"stimulus":"\n\t\t\t<div class=\"flip_card\">\n\t\t\t\t<div class=\"flip_card_inner\">\n\t\t\t\t\t<div class=\"flip_card_front\">\n\t\t\t\t\t\t<img src=img/26.png>\n\t\t\t\t\t</div>\n\t\t\t\t\t<div class=\"flip_card_back\">\n\t\t\t\t\t\t<h2>How many constellations are there?</h2>\n\t\t\t\t\t\t<br>\n\t\t\t\t\t\t<p>Answer: <strong>88</strong></p>\n\t\t\t\t\t</div>\n\t\t\t\t</div>\n\t\t\t</div>\n\t\t\t","response":null,"trial_type":"html-keyboard-response","trial_index":56,"time_elapsed":621506,"internal_node_id":"0.0-3.0-2.12","prolific_id":"5a0ef93279f96a0001c73f25","session_id":"643c2513193a7d486b20a327","study_id":"64370a36d30bfa807bc7e43c"},{"rt":3384,"stimulus":"\n\t\t\t\t\t<div>\n\t\t\t\t\t<h2>Trial 13 is over</h2>\n\t\t\t\t\t<p>Press <span style=\"color: red\"><strong>any key</strong></span> to continue to the next trial</p>\n\t\t\t\t\t</div>\n\t\t\t\t","response":"m","trial_type":"html-keyboard-response","trial_index":57,"time_elapsed":624890,"internal_node_id":"0.0-3.0-3.12","prolific_id":"5a0ef93279f96a0001c73f25","session_id":"643c2513193a7d486b20a327","study_id":"64370a36d30bfa807bc7e43c"},{"rt":8099,"response":{"prediction":"1985"},"trial_type":"survey-text","trial_index":58,"time_elapsed":632995,"internal_node_id":"0.0-3.0-0.13","prolific_id":"5a0ef93279f96a0001c73f25","session_id":"643c2513193a7d486b20a327","study_id":"64370a36d30bfa807bc7e43c"},{"rt":15628,"response":{"prior knowledge":3,"curiosity":4},"accuracy":[],"trial_type":"survey","trial_index":59,"time_elapsed":648646,"internal_node_id":"0.0-3.0-1.13","prolific_id":"5a0ef93279f96a0001c73f25","session_id":"643c2513193a7d486b20a327","study_id":"64370a36d30bfa807bc7e43c"},{"rt":null,"stimulus":"\n\t\t\t<div class=\"flip_card\">\n\t\t\t\t<div class=\"flip_card_inner\">\n\t\t\t\t\t<div class=\"flip_card_front\">\n\t\t\t\t\t\t<img src=img/1.png>\n\t\t\t\t\t</div>\n\t\t\t\t\t<div class=\"flip_card_back\">\n\t\t\t\t\t\t<h2>What year did the Berlin Wall fall?</h2>\n\t\t\t\t\t\t<br>\n\t\t\t\t\t\t<p>Answer: <strong>1989</strong></p>\n\t\t\t\t\t</div>\n\t\t\t\t</div>\n\t\t\t</div>\n\t\t\t","response":null,"trial_type":"html-keyboard-response","trial_index":60,"time_elapsed":653663,"internal_node_id":"0.0-3.0-2.13","prolific_id":"5a0ef93279f96a0001c73f25","session_id":"643c2513193a7d486b20a327","study_id":"64370a36d30bfa807bc7e43c"},{"rt":1137,"stimulus":"\n\t\t\t\t\t<div>\n\t\t\t\t\t<h2>Trial 14 is over</h2>\n\t\t\t\t\t<p>Press <span style=\"color: red\"><strong>any key</strong></span> to continue to the next trial</p>\n\t\t\t\t\t</div>\n\t\t\t\t","response":",","trial_type":"html-keyboard-response","trial_index":61,"time_elapsed":654800,"internal_node_id":"0.0-3.0-3.13","prolific_id":"5a0ef93279f96a0001c73f25","session_id":"643c2513193a7d486b20a327","study_id":"64370a36d30bfa807bc7e43c"},{"rt":5539,"response":{"prediction":"2005"},"trial_type":"survey-text","trial_index":62,"time_elapsed":660349,"internal_node_id":"0.0-3.0-0.14","prolific_id":"5a0ef93279f96a0001c73f25","session_id":"643c2513193a7d486b20a327","study_id":"64370a36d30bfa807bc7e43c"},{"rt":21895,"response":{"prior knowledge":3,"curiosity":4},"accuracy":[],"trial_type":"survey","trial_index":63,"time_elapsed":682260,"internal_node_id":"0.0-3.0-1.14","prolific_id":"5a0ef93279f96a0001c73f25","session_id":"643c2513193a7d486b20a327","study_id":"64370a36d30bfa807bc7e43c"},{"rt":null,"stimulus":"\n\t\t\t<div class=\"flip_card\">\n\t\t\t\t<div class=\"flip_card_inner\">\n\t\t\t\t\t<div class=\"flip_card_front\">\n\t\t\t\t\t\t<img src=img/14.png>\n\t\t\t\t\t</div>\n\t\t\t\t\t<div class=\"flip_card_back\">\n\t\t\t\t\t\t<h2>What year was the very first model of the iPhone released?</h2>\n\t\t\t\t\t\t<br>\n\t\t\t\t\t\t<p>Answer: <strong>2007</strong></p>\n\t\t\t\t\t</div>\n\t\t\t\t</div>\n\t\t\t</div>\n\t\t\t","response":null,"trial_type":"html-keyboard-response","trial_index":64,"time_elapsed":687355,"internal_node_id":"0.0-3.0-2.14","prolific_id":"5a0ef93279f96a0001c73f25","session_id":"643c2513193a7d486b20a327","study_id":"64370a36d30bfa807bc7e43c"},{"rt":1668,"stimulus":"\n\t\t\t\t\t<div>\n\t\t\t\t\t<h2>Trial 15 is over</h2>\n\t\t\t\t\t<p>Press <span style=\"color: red\"><strong>any key</strong></span> to continue to the next trial</p>\n\t\t\t\t\t</div>\n\t\t\t\t","response":"m","trial_type":"html-keyboard-response","trial_index":65,"time_elapsed":689024,"internal_node_id":"0.0-3.0-3.14","prolific_id":"5a0ef93279f96a0001c73f25","session_id":"643c2513193a7d486b20a327","study_id":"64370a36d30bfa807bc7e43c"},{"rt":4982,"response":{"prediction":"12"},"trial_type":"survey-text","trial_index":66,"time_elapsed":694009,"internal_node_id":"0.0-3.0-0.15","prolific_id":"5a0ef93279f96a0001c73f25","session_id":"643c2513193a7d486b20a327","study_id":"64370a36d30bfa807bc7e43c"},{"rt":23788,"response":{"prior knowledge":1,"curiosity":5},"accuracy":[],"trial_type":"survey","trial_index":67,"time_elapsed":717815,"internal_node_id":"0.0-3.0-1.15","prolific_id":"5a0ef93279f96a0001c73f25","session_id":"643c2513193a7d486b20a327","study_id":"64370a36d30bfa807bc7e43c"},{"rt":null,"stimulus":"\n\t\t\t<div class=\"flip_card\">\n\t\t\t\t<div class=\"flip_card_inner\">\n\t\t\t\t\t<div class=\"flip_card_front\">\n\t\t\t\t\t\t<img src=img/28.png>\n\t\t\t\t\t</div>\n\t\t\t\t\t<div class=\"flip_card_back\">\n\t\t\t\t\t\t<h2>How many different animals (real or imaginary) are represented in the Chinese calendar?</h2>\n\t\t\t\t\t\t<br>\n\t\t\t\t\t\t<p>Answer: <strong>12</strong></p>\n\t\t\t\t\t</div>\n\t\t\t\t</div>\n\t\t\t</div>\n\t\t\t","response":null,"trial_type":"html-keyboard-response","trial_index":68,"time_elapsed":722817,"internal_node_id":"0.0-3.0-2.15","prolific_id":"5a0ef93279f96a0001c73f25","session_id":"643c2513193a7d486b20a327","study_id":"64370a36d30bfa807bc7e43c"},{"rt":1795,"stimulus":"\n\t\t\t\t\t<div>\n\t\t\t\t\t<h2>Trial 16 is over</h2>\n\t\t\t\t\t<p>Press <span style=\"color: red\"><strong>any key</strong></span> to continue to the next trial</p>\n\t\t\t\t\t</div>\n\t\t\t\t","response":"m","trial_type":"html-keyboard-response","trial_index":69,"time_elapsed":724612,"internal_node_id":"0.0-3.0-3.15","prolific_id":"5a0ef93279f96a0001c73f25","session_id":"643c2513193a7d486b20a327","study_id":"64370a36d30bfa807bc7e43c"},{"rt":5070,"response":{"prediction":"20"},"trial_type":"survey-text","trial_index":70,"time_elapsed":729684,"internal_node_id":"0.0-3.0-0.16","prolific_id":"5a0ef93279f96a0001c73f25","session_id":"643c2513193a7d486b20a327","study_id":"64370a36d30bfa807bc7e43c"},{"rt":11670,"response":{"prior knowledge":0,"curiosity":5},"accuracy":[],"trial_type":"survey","trial_index":71,"time_elapsed":741367,"internal_node_id":"0.0-3.0-1.16","prolific_id":"5a0ef93279f96a0001c73f25","session_id":"643c2513193a7d486b20a327","study_id":"64370a36d30bfa807bc7e43c"},{"rt":null,"stimulus":"\n\t\t\t<div class=\"flip_card\">\n\t\t\t\t<div class=\"flip_card_inner\">\n\t\t\t\t\t<div class=\"flip_card_front\">\n\t\t\t\t\t\t<img src=img/7.png>\n\t\t\t\t\t</div>\n\t\t\t\t\t<div class=\"flip_card_back\">\n\t\t\t\t\t\t<h2>How many single hand gestures, or mudras, are used in Indian classical dance?</h2>\n\t\t\t\t\t\t<br>\n\t\t\t\t\t\t<p>Answer: <strong>28</strong></p>\n\t\t\t\t\t</div>\n\t\t\t\t</div>\n\t\t\t</div>\n\t\t\t","response":null,"trial_type":"html-keyboard-response","trial_index":72,"time_elapsed":746384,"internal_node_id":"0.0-3.0-2.16","prolific_id":"5a0ef93279f96a0001c73f25","session_id":"643c2513193a7d486b20a327","study_id":"64370a36d30bfa807bc7e43c"},{"rt":1136,"stimulus":"\n\t\t\t\t\t<div>\n\t\t\t\t\t<h2>Trial 17 is over</h2>\n\t\t\t\t\t<p>Press <span style=\"color: red\"><strong>any key</strong></span> to continue to the next trial</p>\n\t\t\t\t\t</div>\n\t\t\t\t","response":"m","trial_type":"html-keyboard-response","trial_index":73,"time_elapsed":747521,"internal_node_id":"0.0-3.0-3.16","prolific_id":"5a0ef93279f96a0001c73f25","session_id":"643c2513193a7d486b20a327","study_id":"64370a36d30bfa807bc7e43c"},{"rt":5990,"response":{"prediction":"24"},"trial_type":"survey-text","trial_index":74,"time_elapsed":753514,"internal_node_id":"0.0-3.0-0.17","prolific_id":"5a0ef93279f96a0001c73f25","session_id":"643c2513193a7d486b20a327","study_id":"64370a36d30bfa807bc7e43c"},{"rt":5888,"response":{"prior knowledge":4,"curiosity":5},"accuracy":[],"trial_type":"survey","trial_index":75,"time_elapsed":759424,"internal_node_id":"0.0-3.0-1.17","prolific_id":"5a0ef93279f96a0001c73f25","session_id":"643c2513193a7d486b20a327","study_id":"64370a36d30bfa807bc7e43c"},{"rt":null,"stimulus":"\n\t\t\t<div class=\"flip_card\">\n\t\t\t\t<div class=\"flip_card_inner\">\n\t\t\t\t\t<div class=\"flip_card_front\">\n\t\t\t\t\t\t<img src=img/4.png>\n\t\t\t\t\t</div>\n\t\t\t\t\t<div class=\"flip_card_back\">\n\t\t\t\t\t\t<h2>How much is in a Baker's Dozen?</h2>\n\t\t\t\t\t\t<br>\n\t\t\t\t\t\t<p>Answer: <strong>13</strong></p>\n\t\t\t\t\t</div>\n\t\t\t\t</div>\n\t\t\t</div>\n\t\t\t","response":null,"trial_type":"html-keyboard-response","trial_index":76,"time_elapsed":764432,"internal_node_id":"0.0-3.0-2.17","prolific_id":"5a0ef93279f96a0001c73f25","session_id":"643c2513193a7d486b20a327","study_id":"64370a36d30bfa807bc7e43c"},{"rt":1136,"stimulus":"\n\t\t\t\t\t<div>\n\t\t\t\t\t<h2>Trial 18 is over</h2>\n\t\t\t\t\t<p>Press <span style=\"color: red\"><strong>any key</strong></span> to continue to the next trial</p>\n\t\t\t\t\t</div>\n\t\t\t\t","response":"m","trial_type":"html-keyboard-response","trial_index":77,"time_elapsed":765569,"internal_node_id":"0.0-3.0-3.17","prolific_id":"5a0ef93279f96a0001c73f25","session_id":"643c2513193a7d486b20a327","study_id":"64370a36d30bfa807bc7e43c"},{"rt":6407,"response":{"prediction":"13"},"trial_type":"survey-text","trial_index":78,"time_elapsed":771982,"internal_node_id":"0.0-3.0-0.18","prolific_id":"5a0ef93279f96a0001c73f25","session_id":"643c2513193a7d486b20a327","study_id":"64370a36d30bfa807bc7e43c"},{"rt":9961,"response":{"prior knowledge":1,"curiosity":3},"accuracy":[],"trial_type":"survey","trial_index":79,"time_elapsed":781963,"internal_node_id":"0.0-3.0-1.18","prolific_id":"5a0ef93279f96a0001c73f25","session_id":"643c2513193a7d486b20a327","study_id":"64370a36d30bfa807bc7e43c"},{"rt":null,"stimulus":"\n\t\t\t<div class=\"flip_card\">\n\t\t\t\t<div class=\"flip_card_inner\">\n\t\t\t\t\t<div class=\"flip_card_front\">\n\t\t\t\t\t\t<img src=img/29.png>\n\t\t\t\t\t</div>\n\t\t\t\t\t<div class=\"flip_card_back\">\n\t\t\t\t\t\t<h2>A bar mitzvah is traditionally celebrated when Jewish males turn what age?</h2>\n\t\t\t\t\t\t<br>\n\t\t\t\t\t\t<p>Answer: <strong>13</strong></p>\n\t\t\t\t\t</div>\n\t\t\t\t</div>\n\t\t\t</div>\n\t\t\t","response":null,"trial_type":"html-keyboard-response","trial_index":80,"time_elapsed":786968,"internal_node_id":"0.0-3.0-2.18","prolific_id":"5a0ef93279f96a0001c73f25","session_id":"643c2513193a7d486b20a327","study_id":"64370a36d30bfa807bc7e43c"},{"rt":1000,"stimulus":"\n\t\t\t\t\t<div>\n\t\t\t\t\t<h2>Trial 19 is over</h2>\n\t\t\t\t\t<p>Press <span style=\"color: red\"><strong>any key</strong></span> to continue to the next trial</p>\n\t\t\t\t\t</div>\n\t\t\t\t","response":"m","trial_type":"html-keyboard-response","trial_index":81,"time_elapsed":787969,"internal_node_id":"0.0-3.0-3.18","prolific_id":"5a0ef93279f96a0001c73f25","session_id":"643c2513193a7d486b20a327","study_id":"64370a36d30bfa807bc7e43c"},{"rt":6788,"response":{"prediction":"1920"},"trial_type":"survey-text","trial_index":82,"time_elapsed":794762,"internal_node_id":"0.0-3.0-0.19","prolific_id":"5a0ef93279f96a0001c73f25","session_id":"643c2513193a7d486b20a327","study_id":"64370a36d30bfa807bc7e43c"},{"rt":26851,"response":{"prior knowledge":2,"curiosity":5},"accuracy":[],"trial_type":"survey","trial_index":83,"time_elapsed":821632,"internal_node_id":"0.0-3.0-1.19","prolific_id":"5a0ef93279f96a0001c73f25","session_id":"643c2513193a7d486b20a327","study_id":"64370a36d30bfa807bc7e43c"},{"rt":null,"stimulus":"\n\t\t\t<div class=\"flip_card\">\n\t\t\t\t<div class=\"flip_card_inner\">\n\t\t\t\t\t<div class=\"flip_card_front\">\n\t\t\t\t\t\t<img src=img/12.png>\n\t\t\t\t\t</div>\n\t\t\t\t\t<div class=\"flip_card_back\">\n\t\t\t\t\t\t<h2>In what year did the first Modern Olympic Games take place?</h2>\n\t\t\t\t\t\t<br>\n\t\t\t\t\t\t<p>Answer: <strong>1896</strong></p>\n\t\t\t\t\t</div>\n\t\t\t\t</div>\n\t\t\t</div>\n\t\t\t","response":null,"trial_type":"html-keyboard-response","trial_index":84,"time_elapsed":826635,"internal_node_id":"0.0-3.0-2.19","prolific_id":"5a0ef93279f96a0001c73f25","session_id":"643c2513193a7d486b20a327","study_id":"64370a36d30bfa807bc7e43c"},{"rt":1303,"stimulus":"\n\t\t\t\t\t<div>\n\t\t\t\t\t<h2>Trial 20 is over</h2>\n\t\t\t\t\t<p>Press <span style=\"color: red\"><strong>any key</strong></span> to continue to the next trial</p>\n\t\t\t\t\t</div>\n\t\t\t\t","response":",","trial_type":"html-keyboard-response","trial_index":85,"time_elapsed":827938,"internal_node_id":"0.0-3.0-3.19","prolific_id":"5a0ef93279f96a0001c73f25","session_id":"643c2513193a7d486b20a327","study_id":"64370a36d30bfa807bc7e43c"},{"rt":4627,"response":{"prediction":"5"},"trial_type":"survey-text","trial_index":86,"time_elapsed":832568,"internal_node_id":"0.0-3.0-0.20","prolific_id":"5a0ef93279f96a0001c73f25","session_id":"643c2513193a7d486b20a327","study_id":"64370a36d30bfa807bc7e43c"},{"rt":57997,"response":{"prior knowledge":1,"curiosity":4},"accuracy":[],"trial_type":"survey","trial_index":87,"time_elapsed":890584,"internal_node_id":"0.0-3.0-1.20","prolific_id":"5a0ef93279f96a0001c73f25","session_id":"643c2513193a7d486b20a327","study_id":"64370a36d30bfa807bc7e43c"},{"rt":null,"stimulus":"\n\t\t\t<div class=\"flip_card\">\n\t\t\t\t<div class=\"flip_card_inner\">\n\t\t\t\t\t<div class=\"flip_card_front\">\n\t\t\t\t\t\t<img src=img/30.png>\n\t\t\t\t\t</div>\n\t\t\t\t\t<div class=\"flip_card_back\">\n\t\t\t\t\t\t<h2>How many times a day do Muslims pray?</h2>\n\t\t\t\t\t\t<br>\n\t\t\t\t\t\t<p>Answer: <strong>5</strong></p>\n\t\t\t\t\t</div>\n\t\t\t\t</div>\n\t\t\t</div>\n\t\t\t","response":null,"trial_type":"html-keyboard-response","trial_index":88,"time_elapsed":895593,"internal_node_id":"0.0-3.0-2.20","prolific_id":"5a0ef93279f96a0001c73f25","session_id":"643c2513193a7d486b20a327","study_id":"64370a36d30bfa807bc7e43c"},{"rt":7568,"stimulus":"\n\t\t\t\t\t<div>\n\t\t\t\t\t<h2>Trial 21 is over</h2>\n\t\t\t\t\t<p>Press <span style=\"color: red\"><strong>any key</strong></span> to continue to the next trial</p>\n\t\t\t\t\t</div>\n\t\t\t\t","response":"m","trial_type":"html-keyboard-response","trial_index":89,"time_elapsed":903162,"internal_node_id":"0.0-3.0-3.20","prolific_id":"5a0ef93279f96a0001c73f25","session_id":"643c2513193a7d486b20a327","study_id":"64370a36d30bfa807bc7e43c"},{"rt":7029,"response":{"prediction":"1903"},"trial_type":"survey-text","trial_index":90,"time_elapsed":910199,"internal_node_id":"0.0-3.0-0.21","prolific_id":"5a0ef93279f96a0001c73f25","session_id":"643c2513193a7d486b20a327","study_id":"64370a36d30bfa807bc7e43c"},{"rt":34309,"response":{"prior knowledge":3,"curiosity":3},"accuracy":[],"trial_type":"survey","trial_index":91,"time_elapsed":944536,"internal_node_id":"0.0-3.0-1.21","prolific_id":"5a0ef93279f96a0001c73f25","session_id":"643c2513193a7d486b20a327","study_id":"64370a36d30bfa807bc7e43c"},{"rt":null,"stimulus":"\n\t\t\t<div class=\"flip_card\">\n\t\t\t\t<div class=\"flip_card_inner\">\n\t\t\t\t\t<div class=\"flip_card_front\">\n\t\t\t\t\t\t<img src=img/21.png>\n\t\t\t\t\t</div>\n\t\t\t\t\t<div class=\"flip_card_back\">\n\t\t\t\t\t\t<h2>What year did the titanic sink?</h2>\n\t\t\t\t\t\t<br>\n\t\t\t\t\t\t<p>Answer: <strong>1912</strong></p>\n\t\t\t\t\t</div>\n\t\t\t\t</div>\n\t\t\t</div>\n\t\t\t","response":null,"trial_type":"html-keyboard-response","trial_index":92,"time_elapsed":949538,"internal_node_id":"0.0-3.0-2.21","prolific_id":"5a0ef93279f96a0001c73f25","session_id":"643c2513193a7d486b20a327","study_id":"64370a36d30bfa807bc7e43c"},{"rt":1940,"stimulus":"\n\t\t\t\t\t<div>\n\t\t\t\t\t<h2>Trial 22 is over</h2>\n\t\t\t\t\t<p>Press <span style=\"color: red\"><strong>any key</strong></span> to continue to the next trial</p>\n\t\t\t\t\t</div>\n\t\t\t\t","response":"m","trial_type":"html-keyboard-response","trial_index":93,"time_elapsed":951478,"internal_node_id":"0.0-3.0-3.21","prolific_id":"5a0ef93279f96a0001c73f25","session_id":"643c2513193a7d486b20a327","study_id":"64370a36d30bfa807bc7e43c"},{"rt":3756,"response":{"prediction":"3"},"trial_type":"survey-text","trial_index":94,"time_elapsed":955237,"internal_node_id":"0.0-3.0-0.22","prolific_id":"5a0ef93279f96a0001c73f25","session_id":"643c2513193a7d486b20a327","study_id":"64370a36d30bfa807bc7e43c"},{"rt":7994,"response":{"prior knowledge":3,"curiosity":5},"accuracy":[],"trial_type":"survey","trial_index":95,"time_elapsed":963249,"internal_node_id":"0.0-3.0-1.22","prolific_id":"5a0ef93279f96a0001c73f25","session_id":"643c2513193a7d486b20a327","study_id":"64370a36d30bfa807bc7e43c"},{"rt":null,"stimulus":"\n\t\t\t<div class=\"flip_card\">\n\t\t\t\t<div class=\"flip_card_inner\">\n\t\t\t\t\t<div class=\"flip_card_front\">\n\t\t\t\t\t\t<img src=img/13.png>\n\t\t\t\t\t</div>\n\t\t\t\t\t<div class=\"flip_card_back\">\n\t\t\t\t\t\t<h2>How many main islands make up Japan?</h2>\n\t\t\t\t\t\t<br>\n\t\t\t\t\t\t<p>Answer: <strong>4</strong></p>\n\t\t\t\t\t</div>\n\t\t\t\t</div>\n\t\t\t</div>\n\t\t\t","response":null,"trial_type":"html-keyboard-response","trial_index":96,"time_elapsed":968262,"internal_node_id":"0.0-3.0-2.22","prolific_id":"5a0ef93279f96a0001c73f25","session_id":"643c2513193a7d486b20a327","study_id":"64370a36d30bfa807bc7e43c"},{"rt":1280,"stimulus":"\n\t\t\t\t\t<div>\n\t\t\t\t\t<h2>Trial 23 is over</h2>\n\t\t\t\t\t<p>Press <span style=\"color: red\"><strong>any key</strong></span> to continue to the next trial</p>\n\t\t\t\t\t</div>\n\t\t\t\t","response":"m","trial_type":"html-keyboard-response","trial_index":97,"time_elapsed":969543,"internal_node_id":"0.0-3.0-3.22","prolific_id":"5a0ef93279f96a0001c73f25","session_id":"643c2513193a7d486b20a327","study_id":"64370a36d30bfa807bc7e43c"},{"rt":6609,"response":{"prediction":"50"},"trial_type":"survey-text","trial_index":98,"time_elapsed":976156,"internal_node_id":"0.0-3.0-0.23","prolific_id":"5a0ef93279f96a0001c73f25","session_id":"643c2513193a7d486b20a327","study_id":"64370a36d30bfa807bc7e43c"},{"rt":12025,"response":{"prior knowledge":3,"curiosity":5},"accuracy":[],"trial_type":"survey","trial_index":99,"time_elapsed":988208,"internal_node_id":"0.0-3.0-1.23","prolific_id":"5a0ef93279f96a0001c73f25","session_id":"643c2513193a7d486b20a327","study_id":"64370a36d30bfa807bc7e43c"},{"rt":null,"stimulus":"\n\t\t\t<div class=\"flip_card\">\n\t\t\t\t<div class=\"flip_card_inner\">\n\t\t\t\t\t<div class=\"flip_card_front\">\n\t\t\t\t\t\t<img src=img/15.png>\n\t\t\t\t\t</div>\n\t\t\t\t\t<div class=\"flip_card_back\">\n\t\t\t\t\t\t<h2>How many books are in the Catholic Bible?</h2>\n\t\t\t\t\t\t<br>\n\t\t\t\t\t\t<p>Answer: <strong>73</strong></p>\n\t\t\t\t\t</div>\n\t\t\t\t</div>\n\t\t\t</div>\n\t\t\t","response":null,"trial_type":"html-keyboard-response","trial_index":100,"time_elapsed":993216,"internal_node_id":"0.0-3.0-2.23","prolific_id":"5a0ef93279f96a0001c73f25","session_id":"643c2513193a7d486b20a327","study_id":"64370a36d30bfa807bc7e43c"},{"rt":10006,"stimulus":"\n\t\t\t\t\t<div>\n\t\t\t\t\t<h2>Trial 24 is over</h2>\n\t\t\t\t\t<p>Press <span style=\"color: red\"><strong>any key</strong></span> to continue to the next trial</p>\n\t\t\t\t\t</div>\n\t\t\t\t","response":"m","trial_type":"html-keyboard-response","trial_index":101,"time_elapsed":1003223,"internal_node_id":"0.0-3.0-3.23","prolific_id":"5a0ef93279f96a0001c73f25","session_id":"643c2513193a7d486b20a327","study_id":"64370a36d30bfa807bc7e43c"},{"rt":5117,"response":{"prediction":"12"},"trial_type":"survey-text","trial_index":102,"time_elapsed":1008343,"internal_node_id":"0.0-3.0-0.24","prolific_id":"5a0ef93279f96a0001c73f25","session_id":"643c2513193a7d486b20a327","study_id":"64370a36d30bfa807bc7e43c"},{"rt":6754,"response":{"prior knowledge":3,"curiosity":5},"accuracy":[],"trial_type":"survey","trial_index":103,"time_elapsed":1015112,"internal_node_id":"0.0-3.0-1.24","prolific_id":"5a0ef93279f96a0001c73f25","session_id":"643c2513193a7d486b20a327","study_id":"64370a36d30bfa807bc7e43c"},{"rt":null,"stimulus":"\n\t\t\t<div class=\"flip_card\">\n\t\t\t\t<div class=\"flip_card_inner\">\n\t\t\t\t\t<div class=\"flip_card_front\">\n\t\t\t\t\t\t<img src=img/18.png>\n\t\t\t\t\t</div>\n\t\t\t\t\t<div class=\"flip_card_back\">\n\t\t\t\t\t\t<h2>How many lines are in a sonnet?</h2>\n\t\t\t\t\t\t<br>\n\t\t\t\t\t\t<p>Answer: <strong>14</strong></p>\n\t\t\t\t\t</div>\n\t\t\t\t</div>\n\t\t\t</div>\n\t\t\t","response":null,"trial_type":"html-keyboard-response","trial_index":104,"time_elapsed":1020114,"internal_node_id":"0.0-3.0-2.24","prolific_id":"5a0ef93279f96a0001c73f25","session_id":"643c2513193a7d486b20a327","study_id":"64370a36d30bfa807bc7e43c"},{"rt":1473,"stimulus":"\n\t\t\t\t\t<div>\n\t\t\t\t\t<h2>Trial 25 is over</h2>\n\t\t\t\t\t<p>Press <span style=\"color: red\"><strong>any key</strong></span> to continue to the next trial</p>\n\t\t\t\t\t</div>\n\t\t\t\t","response":"n","trial_type":"html-keyboard-response","trial_index":105,"time_elapsed":1021587,"internal_node_id":"0.0-3.0-3.24","prolific_id":"5a0ef93279f96a0001c73f25","session_id":"643c2513193a7d486b20a327","study_id":"64370a36d30bfa807bc7e43c"},{"rt":4947,"response":{"prediction":"5"},"trial_type":"survey-text","trial_index":106,"time_elapsed":1026537,"internal_node_id":"0.0-3.0-0.25","prolific_id":"5a0ef93279f96a0001c73f25","session_id":"643c2513193a7d486b20a327","study_id":"64370a36d30bfa807bc7e43c"},{"rt":11987,"response":{"prior knowledge":1,"curiosity":3},"accuracy":[],"trial_type":"survey","trial_index":107,"time_elapsed":1038561,"internal_node_id":"0.0-3.0-1.25","prolific_id":"5a0ef93279f96a0001c73f25","session_id":"643c2513193a7d486b20a327","study_id":"64370a36d30bfa807bc7e43c"},{"rt":null,"stimulus":"\n\t\t\t<div class=\"flip_card\">\n\t\t\t\t<div class=\"flip_card_inner\">\n\t\t\t\t\t<div class=\"flip_card_front\">\n\t\t\t\t\t\t<img src=img/17.png>\n\t\t\t\t\t</div>\n\t\t\t\t\t<div class=\"flip_card_back\">\n\t\t\t\t\t\t<h2>How many native species of kangaroos are found in Australia?</h2>\n\t\t\t\t\t\t<br>\n\t\t\t\t\t\t<p>Answer: <strong>4</strong></p>\n\t\t\t\t\t</div>\n\t\t\t\t</div>\n\t\t\t</div>\n\t\t\t","response":null,"trial_type":"html-keyboard-response","trial_index":108,"time_elapsed":1043572,"internal_node_id":"0.0-3.0-2.25","prolific_id":"5a0ef93279f96a0001c73f25","session_id":"643c2513193a7d486b20a327","study_id":"64370a36d30bfa807bc7e43c"},{"rt":1606,"stimulus":"\n\t\t\t\t\t<div>\n\t\t\t\t\t<h2>Trial 26 is over</h2>\n\t\t\t\t\t<p>Press <span style=\"color: red\"><strong>any key</strong></span> to continue to the next trial</p>\n\t\t\t\t\t</div>\n\t\t\t\t","response":"n","trial_type":"html-keyboard-response","trial_index":109,"time_elapsed":1045178,"internal_node_id":"0.0-3.0-3.25","prolific_id":"5a0ef93279f96a0001c73f25","session_id":"643c2513193a7d486b20a327","study_id":"64370a36d30bfa807bc7e43c"},{"rt":6267,"response":{"prediction":"300"},"trial_type":"survey-text","trial_index":110,"time_elapsed":1051451,"internal_node_id":"0.0-3.0-0.26","prolific_id":"5a0ef93279f96a0001c73f25","session_id":"643c2513193a7d486b20a327","study_id":"64370a36d30bfa807bc7e43c"},{"rt":30363,"response":{"prior knowledge":0,"curiosity":5},"accuracy":[],"trial_type":"survey","trial_index":111,"time_elapsed":1081833,"internal_node_id":"0.0-3.0-1.26","prolific_id":"5a0ef93279f96a0001c73f25","session_id":"643c2513193a7d486b20a327","study_id":"64370a36d30bfa807bc7e43c"},{"rt":null,"stimulus":"\n\t\t\t<div class=\"flip_card\">\n\t\t\t\t<div class=\"flip_card_inner\">\n\t\t\t\t\t<div class=\"flip_card_front\">\n\t\t\t\t\t\t<img src=img/9.png>\n\t\t\t\t\t</div>\n\t\t\t\t\t<div class=\"flip_card_back\">\n\t\t\t\t\t\t<h2>How long is the Great Wall of China (in miles)?</h2>\n\t\t\t\t\t\t<br>\n\t\t\t\t\t\t<p>Answer: <strong>13171</strong></p>\n\t\t\t\t\t</div>\n\t\t\t\t</div>\n\t\t\t</div>\n\t\t\t","response":null,"trial_type":"html-keyboard-response","trial_index":112,"time_elapsed":1087141,"internal_node_id":"0.0-3.0-2.26","prolific_id":"5a0ef93279f96a0001c73f25","session_id":"643c2513193a7d486b20a327","study_id":"64370a36d30bfa807bc7e43c"},{"rt":2294,"stimulus":"\n\t\t\t\t\t<div>\n\t\t\t\t\t<h2>Trial 27 is over</h2>\n\t\t\t\t\t<p>Press <span style=\"color: red\"><strong>any key</strong></span> to continue to the next trial</p>\n\t\t\t\t\t</div>\n\t\t\t\t","response":"m","trial_type":"html-keyboard-response","trial_index":113,"time_elapsed":1089435,"internal_node_id":"0.0-3.0-3.26","prolific_id":"5a0ef93279f96a0001c73f25","session_id":"643c2513193a7d486b20a327","study_id":"64370a36d30bfa807bc7e43c"},{"rt":6017,"response":{"prediction":"1855"},"trial_type":"survey-text","trial_index":114,"time_elapsed":1095455,"internal_node_id":"0.0-3.0-0.27","prolific_id":"5a0ef93279f96a0001c73f25","session_id":"643c2513193a7d486b20a327","study_id":"64370a36d30bfa807bc7e43c"},{"rt":20396,"response":{"prior knowledge":2,"curiosity":5},"accuracy":[],"trial_type":"survey","trial_index":115,"time_elapsed":1115865,"internal_node_id":"0.0-3.0-1.27","prolific_id":"5a0ef93279f96a0001c73f25","session_id":"643c2513193a7d486b20a327","study_id":"64370a36d30bfa807bc7e43c"},{"rt":null,"stimulus":"\n\t\t\t<div class=\"flip_card\">\n\t\t\t\t<div class=\"flip_card_inner\">\n\t\t\t\t\t<div class=\"flip_card_front\">\n\t\t\t\t\t\t<img src=img/27.png>\n\t\t\t\t\t</div>\n\t\t\t\t\t<div class=\"flip_card_back\">\n\t\t\t\t\t\t<h2>In what year was the Mexican artist Frida Kahlo born?</h2>\n\t\t\t\t\t\t<br>\n\t\t\t\t\t\t<p>Answer: <strong>1907</strong></p>\n\t\t\t\t\t</div>\n\t\t\t\t</div>\n\t\t\t</div>\n\t\t\t","response":null,"trial_type":"html-keyboard-response","trial_index":116,"time_elapsed":1120873,"internal_node_id":"0.0-3.0-2.27","prolific_id":"5a0ef93279f96a0001c73f25","session_id":"643c2513193a7d486b20a327","study_id":"64370a36d30bfa807bc7e43c"},{"rt":1654,"stimulus":"\n\t\t\t\t\t<div>\n\t\t\t\t\t<h2>Trial 28 is over</h2>\n\t\t\t\t\t<p>Press <span style=\"color: red\"><strong>any key</strong></span> to continue to the next trial</p>\n\t\t\t\t\t</div>\n\t\t\t\t","response":"b","trial_type":"html-keyboard-response","trial_index":117,"time_elapsed":1122528,"internal_node_id":"0.0-3.0-3.27","prolific_id":"5a0ef93279f96a0001c73f25","session_id":"643c2513193a7d486b20a327","study_id":"64370a36d30bfa807bc7e43c"},{"rt":5760,"response":{"prediction":"3"},"trial_type":"survey-text","trial_index":118,"time_elapsed":1128291,"internal_node_id":"0.0-3.0-0.28","prolific_id":"5a0ef93279f96a0001c73f25","session_id":"643c2513193a7d486b20a327","study_id":"64370a36d30bfa807bc7e43c"},{"rt":16674,"response":{"prior knowledge":1,"curiosity":5},"accuracy":[],"trial_type":"survey","trial_index":119,"time_elapsed":1144979,"internal_node_id":"0.0-3.0-1.28","prolific_id":"5a0ef93279f96a0001c73f25","session_id":"643c2513193a7d486b20a327","study_id":"64370a36d30bfa807bc7e43c"},{"rt":null,"stimulus":"\n\t\t\t<div class=\"flip_card\">\n\t\t\t\t<div class=\"flip_card_inner\">\n\t\t\t\t\t<div class=\"flip_card_front\">\n\t\t\t\t\t\t<img src=img/3.png>\n\t\t\t\t\t</div>\n\t\t\t\t\t<div class=\"flip_card_back\">\n\t\t\t\t\t\t<h2>How many countries in Africa have French as the official language?</h2>\n\t\t\t\t\t\t<br>\n\t\t\t\t\t\t<p>Answer: <strong>21</strong></p>\n\t\t\t\t\t</div>\n\t\t\t\t</div>\n\t\t\t</div>\n\t\t\t","response":null,"trial_type":"html-keyboard-response","trial_index":120,"time_elapsed":1149983,"internal_node_id":"0.0-3.0-2.28","prolific_id":"5a0ef93279f96a0001c73f25","session_id":"643c2513193a7d486b20a327","study_id":"64370a36d30bfa807bc7e43c"},{"rt":1865,"stimulus":"\n\t\t\t\t\t<div>\n\t\t\t\t\t<h2>Trial 29 is over</h2>\n\t\t\t\t\t<p>Press <span style=\"color: red\"><strong>any key</strong></span> to continue to the next trial</p>\n\t\t\t\t\t</div>\n\t\t\t\t","response":"m","trial_type":"html-keyboard-response","trial_index":121,"time_elapsed":1151849,"internal_node_id":"0.0-3.0-3.28","prolific_id":"5a0ef93279f96a0001c73f25","session_id":"643c2513193a7d486b20a327","study_id":"64370a36d30bfa807bc7e43c"},{"rt":16318,"response":{"prediction":"12"},"trial_type":"survey-text","trial_index":122,"time_elapsed":1168171,"internal_node_id":"0.0-3.0-0.29","prolific_id":"5a0ef93279f96a0001c73f25","session_id":"643c2513193a7d486b20a327","study_id":"64370a36d30bfa807bc7e43c"},{"rt":15172,"response":{"prior knowledge":2,"curiosity":4},"accuracy":[],"trial_type":"survey","trial_index":123,"time_elapsed":1183360,"internal_node_id":"0.0-3.0-1.29","prolific_id":"5a0ef93279f96a0001c73f25","session_id":"643c2513193a7d486b20a327","study_id":"64370a36d30bfa807bc7e43c"},{"rt":null,"stimulus":"\n\t\t\t<div class=\"flip_card\">\n\t\t\t\t<div class=\"flip_card_inner\">\n\t\t\t\t\t<div class=\"flip_card_front\">\n\t\t\t\t\t\t<img src=img/6.png>\n\t\t\t\t\t</div>\n\t\t\t\t\t<div class=\"flip_card_back\">\n\t\t\t\t\t\t<h2>How many soccer players should each team have on the field at the start of each match?</h2>\n\t\t\t\t\t\t<br>\n\t\t\t\t\t\t<p>Answer: <strong>11</strong></p>\n\t\t\t\t\t</div>\n\t\t\t\t</div>\n\t\t\t</div>\n\t\t\t","response":null,"trial_type":"html-keyboard-response","trial_index":124,"time_elapsed":1188368,"internal_node_id":"0.0-3.0-2.29","prolific_id":"5a0ef93279f96a0001c73f25","session_id":"643c2513193a7d486b20a327","study_id":"64370a36d30bfa807bc7e43c"},{"rt":1334,"stimulus":"\n\t\t\t\t\t<div>\n\t\t\t\t\t<h2>Trial 30 is over</h2>\n\t\t\t\t\t<p>Press <span style=\"color: red\"><strong>any key</strong></span> to continue to the next trial</p>\n\t\t\t\t\t</div>\n\t\t\t\t","response":"n","trial_type":"html-keyboard-response","trial_index":125,"time_elapsed":1189702,"internal_node_id":"0.0-3.0-3.29","prolific_id":"5a0ef93279f96a0001c73f25","session_id":"643c2513193a7d486b20a327","study_id":"64370a36d30bfa807bc7e43c"},{"rt":null,"stimulus":"\n\t\t\t<h2>Good job! You've finished the 30 trials:p</h2>\n\t\t\t<p>In the next session, you will see two cards on the screen in each trial.</p>\n\t\t\t<p>On one card is a pattern that you have seen before in the experiment,\n\t\t\t\tand on the other card is one you have not seen.</p><br>\n\t\t\t<p>Your task is to choose the one you think you <em>have</em> seen before for every trial.</p>\n\t\t\t<p>Press '<span style=\"color: red;\"><strong>F</strong></span>' to choose the card on the left,\n\t\t\t\tand '<span style=\"color: red;\"><strong>J</strong></span>' to choose the card on the right.</p>\n\t\t\t<p>Have fun!</p>\n\t\t\t<br>\n\t\t\t<p>The trials will begin in 30 seconds</p>\n\t\t\t","response":null,"trial_type":"html-keyboard-response","trial_index":126,"time_elapsed":1219710,"internal_node_id":"0.0-4.0","prolific_id":"5a0ef93279f96a0001c73f25","session_id":"643c2513193a7d486b20a327","study_id":"64370a36d30bfa807bc7e43c"},{"rt":1996,"stimulus":"\n\t\t\t\t\t\t<div class=\"two_card_container\">\n\t\t\t\t\t\t<div class=\"card_container\">\n\t\t\t\t\t\t<img src=img/36.png>\n\t\t\t\t\t\t</div>\n\n\t\t\t\t\t\t<div class=\"card_container\">\n\t\t\t\t\t\t<img src=img/17.png>\n\t\t\t\t\t\t</div>","response":"j","task":"response","correct_response":"j","trial_type":"html-keyboard-response","trial_index":127,"time_elapsed":1221708,"internal_node_id":"0.0-5.0-0.0","prolific_id":"5a0ef93279f96a0001c73f25","session_id":"643c2513193a7d486b20a327","study_id":"64370a36d30bfa807bc7e43c","correct":true},{"rt":null,"stimulus":"\n\t\t\t\t\t<p>Correct!</p>\n\t\t\t\t\t","response":null,"trial_type":"html-keyboard-response","trial_index":128,"time_elapsed":1222709,"internal_node_id":"0.0-5.0-1.0","prolific_id":"5a0ef93279f96a0001c73f25","session_id":"643c2513193a7d486b20a327","study_id":"64370a36d30bfa807bc7e43c"},{"rt":1227,"stimulus":"\n\t\t\t\t\t\t<div class=\"two_card_container\">\n\t\t\t\t\t\t<div class=\"card_container\">\n\t\t\t\t\t\t<img src=img/5.png>\n\t\t\t\t\t\t</div>\n\n\t\t\t\t\t\t<div class=\"card_container\">\n\t\t\t\t\t\t<img src=img/35.png>\n\t\t\t\t\t\t</div>","response":"f","task":"response","correct_response":"f","trial_type":"html-keyboard-response","trial_index":129,"time_elapsed":1223938,"internal_node_id":"0.0-5.0-0.1","prolific_id":"5a0ef93279f96a0001c73f25","session_id":"643c2513193a7d486b20a327","study_id":"64370a36d30bfa807bc7e43c","correct":true},{"rt":null,"stimulus":"\n\t\t\t\t\t<p>Correct!</p>\n\t\t\t\t\t","response":null,"trial_type":"html-keyboard-response","trial_index":130,"time_elapsed":1224951,"internal_node_id":"0.0-5.0-1.1","prolific_id":"5a0ef93279f96a0001c73f25","session_id":"643c2513193a7d486b20a327","study_id":"64370a36d30bfa807bc7e43c"},{"rt":1402,"stimulus":"\n\t\t\t\t\t\t<div class=\"two_card_container\">\n\t\t\t\t\t\t<div class=\"card_container\">\n\t\t\t\t\t\t<img src=img/19.png>\n\t\t\t\t\t\t</div>\n\n\t\t\t\t\t\t<div class=\"card_container\">\n\t\t\t\t\t\t<img src=img/37.png>\n\t\t\t\t\t\t</div>","response":"f","task":"response","correct_response":"f","trial_type":"html-keyboard-response","trial_index":131,"time_elapsed":1226354,"internal_node_id":"0.0-5.0-0.2","prolific_id":"5a0ef93279f96a0001c73f25","session_id":"643c2513193a7d486b20a327","study_id":"64370a36d30bfa807bc7e43c","correct":true},{"rt":null,"stimulus":"\n\t\t\t\t\t<p>Correct!</p>\n\t\t\t\t\t","response":null,"trial_type":"html-keyboard-response","trial_index":132,"time_elapsed":1227360,"internal_node_id":"0.0-5.0-1.2","prolific_id":"5a0ef93279f96a0001c73f25","session_id":"643c2513193a7d486b20a327","study_id":"64370a36d30bfa807bc7e43c"},{"rt":2127,"stimulus":"\n\t\t\t\t\t\t<div class=\"two_card_container\">\n\t\t\t\t\t\t<div class=\"card_container\">\n\t\t\t\t\t\t<img src=img/32.png>\n\t\t\t\t\t\t</div>\n\n\t\t\t\t\t\t<div class=\"card_container\">\n\t\t\t\t\t\t<img src=img/28.png>\n\t\t\t\t\t\t</div>","response":"j","task":"response","correct_response":"j","trial_type":"html-keyboard-response","trial_index":133,"time_elapsed":1229489,"internal_node_id":"0.0-5.0-0.3","prolific_id":"5a0ef93279f96a0001c73f25","session_id":"643c2513193a7d486b20a327","study_id":"64370a36d30bfa807bc7e43c","correct":true},{"rt":null,"stimulus":"\n\t\t\t\t\t<p>Correct!</p>\n\t\t\t\t\t","response":null,"trial_type":"html-keyboard-response","trial_index":134,"time_elapsed":1230504,"internal_node_id":"0.0-5.0-1.3","prolific_id":"5a0ef93279f96a0001c73f25","session_id":"643c2513193a7d486b20a327","study_id":"64370a36d30bfa807bc7e43c"},{"rt":1730,"stimulus":"\n\t\t\t\t\t\t<div class=\"two_card_container\">\n\t\t\t\t\t\t<div class=\"card_container\">\n\t\t\t\t\t\t<img src=img/33.png>\n\t\t\t\t\t\t</div>\n\n\t\t\t\t\t\t<div class=\"card_container\">\n\t\t\t\t\t\t<img src=img/26.png>\n\t\t\t\t\t\t</div>","response":"j","task":"response","correct_response":"j","trial_type":"html-keyboard-response","trial_index":135,"time_elapsed":1232235,"internal_node_id":"0.0-5.0-0.4","prolific_id":"5a0ef93279f96a0001c73f25","session_id":"643c2513193a7d486b20a327","study_id":"64370a36d30bfa807bc7e43c","correct":true},{"rt":null,"stimulus":"\n\t\t\t\t\t<p>Correct!</p>\n\t\t\t\t\t","response":null,"trial_type":"html-keyboard-response","trial_index":136,"time_elapsed":1233246,"internal_node_id":"0.0-5.0-1.4","prolific_id":"5a0ef93279f96a0001c73f25","session_id":"643c2513193a7d486b20a327","study_id":"64370a36d30bfa807bc7e43c"},{"rt":2732,"stimulus":"\n\t\t\t\t\t\t<div class=\"two_card_container\">\n\t\t\t\t\t\t<div class=\"card_container\">\n\t\t\t\t\t\t<img src=img/38.png>\n\t\t\t\t\t\t</div>\n\n\t\t\t\t\t\t<div class=\"card_container\">\n\t\t\t\t\t\t<img src=img/6.png>\n\t\t\t\t\t\t</div>","response":"j","task":"response","correct_response":"j","trial_type":"html-keyboard-response","trial_index":137,"time_elapsed":1235978,"internal_node_id":"0.0-5.0-0.5","prolific_id":"5a0ef93279f96a0001c73f25","session_id":"643c2513193a7d486b20a327","study_id":"64370a36d30bfa807bc7e43c","correct":true},{"rt":null,"stimulus":"\n\t\t\t\t\t<p>Correct!</p>\n\t\t\t\t\t","response":null,"trial_type":"html-keyboard-response","trial_index":138,"time_elapsed":1236981,"internal_node_id":"0.0-5.0-1.5","prolific_id":"5a0ef93279f96a0001c73f25","session_id":"643c2513193a7d486b20a327","study_id":"64370a36d30bfa807bc7e43c"},{"rt":2016,"stimulus":"\n\t\t\t\t\t\t<div class=\"two_card_container\">\n\t\t\t\t\t\t<div class=\"card_container\">\n\t\t\t\t\t\t<img src=img/25.png>\n\t\t\t\t\t\t</div>\n\n\t\t\t\t\t\t<div class=\"card_container\">\n\t\t\t\t\t\t<img src=img/31.png>\n\t\t\t\t\t\t</div>","response":"f","task":"response","correct_response":"f","trial_type":"html-keyboard-response","trial_index":139,"time_elapsed":1238997,"internal_node_id":"0.0-5.0-0.6","prolific_id":"5a0ef93279f96a0001c73f25","session_id":"643c2513193a7d486b20a327","study_id":"64370a36d30bfa807bc7e43c","correct":true},{"rt":null,"stimulus":"\n\t\t\t\t\t<p>Correct!</p>\n\t\t\t\t\t","response":null,"trial_type":"html-keyboard-response","trial_index":140,"time_elapsed":1240003,"internal_node_id":"0.0-5.0-1.6","prolific_id":"5a0ef93279f96a0001c73f25","session_id":"643c2513193a7d486b20a327","study_id":"64370a36d30bfa807bc7e43c"},{"rt":4606,"stimulus":"\n\t\t\t\t\t\t<div class=\"two_card_container\">\n\t\t\t\t\t\t<div class=\"card_container\">\n\t\t\t\t\t\t<img src=img/14.png>\n\t\t\t\t\t\t</div>\n\n\t\t\t\t\t\t<div class=\"card_container\">\n\t\t\t\t\t\t<img src=img/39.png>\n\t\t\t\t\t\t</div>","response":"j","task":"response","correct_response":"f","trial_type":"html-keyboard-response","trial_index":141,"time_elapsed":1244610,"internal_node_id":"0.0-5.0-0.7","prolific_id":"5a0ef93279f96a0001c73f25","session_id":"643c2513193a7d486b20a327","study_id":"64370a36d30bfa807bc7e43c","correct":false},{"rt":null,"stimulus":"\n\t\t\t\t\t<p>Wrong answer</p>\n\t\t\t\t\t","response":null,"trial_type":"html-keyboard-response","trial_index":142,"time_elapsed":1245618,"internal_node_id":"0.0-5.0-1.7","prolific_id":"5a0ef93279f96a0001c73f25","session_id":"643c2513193a7d486b20a327","study_id":"64370a36d30bfa807bc7e43c"},{"rt":2730,"stimulus":"\n\t\t\t\t\t\t<div class=\"two_card_container\">\n\t\t\t\t\t\t<div class=\"card_container\">\n\t\t\t\t\t\t<img src=img/40.png>\n\t\t\t\t\t\t</div>\n\n\t\t\t\t\t\t<div class=\"card_container\">\n\t\t\t\t\t\t<img src=img/13.png>\n\t\t\t\t\t\t</div>","response":"f","task":"response","correct_response":"j","trial_type":"html-keyboard-response","trial_index":143,"time_elapsed":1248349,"internal_node_id":"0.0-5.0-0.8","prolific_id":"5a0ef93279f96a0001c73f25","session_id":"643c2513193a7d486b20a327","study_id":"64370a36d30bfa807bc7e43c","correct":false},{"rt":null,"stimulus":"\n\t\t\t\t\t<p>Wrong answer</p>\n\t\t\t\t\t","response":null,"trial_type":"html-keyboard-response","trial_index":144,"time_elapsed":1249351,"internal_node_id":"0.0-5.0-1.8","prolific_id":"5a0ef93279f96a0001c73f25","session_id":"643c2513193a7d486b20a327","study_id":"64370a36d30bfa807bc7e43c"},{"rt":1275,"stimulus":"\n\t\t\t\t\t\t<div class=\"two_card_container\">\n\t\t\t\t\t\t<div class=\"card_container\">\n\t\t\t\t\t\t<img src=img/27.png>\n\t\t\t\t\t\t</div>\n\n\t\t\t\t\t\t<div class=\"card_container\">\n\t\t\t\t\t\t<img src=img/34.png>\n\t\t\t\t\t\t</div>","response":"f","task":"response","correct_response":"f","trial_type":"html-keyboard-response","trial_index":145,"time_elapsed":1250627,"internal_node_id":"0.0-5.0-0.9","prolific_id":"5a0ef93279f96a0001c73f25","session_id":"643c2513193a7d486b20a327","study_id":"64370a36d30bfa807bc7e43c","correct":true},{"rt":null,"stimulus":"\n\t\t\t\t\t<p>Correct!</p>\n\t\t\t\t\t","response":null,"trial_type":"html-keyboard-response","trial_index":146,"time_elapsed":1251631,"internal_node_id":"0.0-5.0-1.9","prolific_id":"5a0ef93279f96a0001c73f25","session_id":"643c2513193a7d486b20a327","study_id":"64370a36d30bfa807bc7e43c"},{"rt":null,"stimulus":"\n\t\t\t<h2>Good job :p</h2>\n\t\t\t<p>In the next session, you will see a trivia question on the screen in each trial.</p>\n\t\t\t<p>Each of these trivia questions is chosen from the questions you have already seen in the first session of the experiment.</p><br>\n\t\t\t<p>Your task is to answer the trivia question based on what you remember as accurately as you can.</p>\n\t\t\t<p>Have fun!</p>\n\t\t\t<br>\n\t\t\t<p>The trials will begin in 30 seconds</p>\n\t\t\t","response":null,"trial_type":"html-keyboard-response","trial_index":147,"time_elapsed":1281912,"internal_node_id":"0.0-6.0","prolific_id":"5a0ef93279f96a0001c73f25","session_id":"643c2513193a7d486b20a327","study_id":"64370a36d30bfa807bc7e43c"},{"rt":6806,"response":{"answer":"5"},"task":"response","correct_response":"5","trial_type":"survey-text","trial_index":148,"time_elapsed":1288724,"internal_node_id":"0.0-7.0-0.0","prolific_id":"5a0ef93279f96a0001c73f25","session_id":"643c2513193a7d486b20a327","study_id":"64370a36d30bfa807bc7e43c","difference":0},{"rt":null,"stimulus":"<h2>The correct answer is 5.</h2><p>Your answer was different from the answer by 0.</p><p>You got the right answer. Amazing work!</p>","response":null,"trial_type":"html-keyboard-response","trial_index":149,"time_elapsed":1291241,"internal_node_id":"0.0-7.0-1.0","prolific_id":"5a0ef93279f96a0001c73f25","session_id":"643c2513193a7d486b20a327","study_id":"64370a36d30bfa807bc7e43c"},{"rt":6253,"response":{"answer":"80"},"task":"response","correct_response":"88","trial_type":"survey-text","trial_index":150,"time_elapsed":1297496,"internal_node_id":"0.0-7.0-0.1","prolific_id":"5a0ef93279f96a0001c73f25","session_id":"643c2513193a7d486b20a327","study_id":"64370a36d30bfa807bc7e43c","difference":9},{"rt":null,"stimulus":"<h2>The correct answer is 88.</h2><p>Your answer was different from the answer by 8.</p><p>Excellent. Kudos to you!</p>","response":null,"trial_type":"html-keyboard-response","trial_index":151,"time_elapsed":1300004,"internal_node_id":"0.0-7.0-1.1","prolific_id":"5a0ef93279f96a0001c73f25","session_id":"643c2513193a7d486b20a327","study_id":"64370a36d30bfa807bc7e43c"},{"rt":3827,"response":{"answer":"13"},"task":"response","correct_response":"14","trial_type":"survey-text","trial_index":152,"time_elapsed":1303834,"internal_node_id":"0.0-7.0-0.2","prolific_id":"5a0ef93279f96a0001c73f25","session_id":"643c2513193a7d486b20a327","study_id":"64370a36d30bfa807bc7e43c","difference":7},{"rt":null,"stimulus":"<h2>The correct answer is 14.</h2><p>Your answer was different from the answer by 1.</p><p>Excellent. Kudos to you!</p>","response":null,"trial_type":"html-keyboard-response","trial_index":153,"time_elapsed":1306341,"internal_node_id":"0.0-7.0-1.2","prolific_id":"5a0ef93279f96a0001c73f25","session_id":"643c2513193a7d486b20a327","study_id":"64370a36d30bfa807bc7e43c"},{"rt":3602,"response":{"answer":"108"},"task":"response","correct_response":"108","trial_type":"survey-text","trial_index":154,"time_elapsed":1309946,"internal_node_id":"0.0-7.0-0.3","prolific_id":"5a0ef93279f96a0001c73f25","session_id":"643c2513193a7d486b20a327","study_id":"64370a36d30bfa807bc7e43c","difference":0},{"rt":null,"stimulus":"<h2>The correct answer is 108.</h2><p>Your answer was different from the answer by 0.</p><p>You got the right answer. Amazing work!</p>","response":null,"trial_type":"html-keyboard-response","trial_index":155,"time_elapsed":1312447,"internal_node_id":"0.0-7.0-1.3","prolific_id":"5a0ef93279f96a0001c73f25","session_id":"643c2513193a7d486b20a327","study_id":"64370a36d30bfa807bc7e43c"},{"rt":4610,"response":{"answer":"7800"},"task":"response","correct_response":"7917.5","trial_type":"survey-text","trial_index":156,"time_elapsed":1317062,"internal_node_id":"0.0-7.0-0.4","prolific_id":"5a0ef93279f96a0001c73f25","session_id":"643c2513193a7d486b20a327","study_id":"64370a36d30bfa807bc7e43c","difference":1},{"rt":null,"stimulus":"<h2>The correct answer is 7917.5.</h2><p>Your answer was different from the answer by 117.5.</p><p>Excellent. Kudos to you!</p>","response":null,"trial_type":"html-keyboard-response","trial_index":157,"time_elapsed":1319575,"internal_node_id":"0.0-7.0-1.4","prolific_id":"5a0ef93279f96a0001c73f25","session_id":"643c2513193a7d486b20a327","study_id":"64370a36d30bfa807bc7e43c"},{"rt":3021,"response":{"answer":"13"},"task":"response","correct_response":"13","trial_type":"survey-text","trial_index":158,"time_elapsed":1322598,"internal_node_id":"0.0-7.0-0.5","prolific_id":"5a0ef93279f96a0001c73f25","session_id":"643c2513193a7d486b20a327","study_id":"64370a36d30bfa807bc7e43c","difference":0},{"rt":null,"stimulus":"<h2>The correct answer is 13.</h2><p>Your answer was different from the answer by 0.</p><p>You got the right answer. Amazing work!</p>","response":null,"trial_type":"html-keyboard-response","trial_index":159,"time_elapsed":1325108,"internal_node_id":"0.0-7.0-1.5","prolific_id":"5a0ef93279f96a0001c73f25","session_id":"643c2513193a7d486b20a327","study_id":"64370a36d30bfa807bc7e43c"},{"rt":3745,"response":{"answer":"65"},"task":"response","correct_response":"65","trial_type":"survey-text","trial_index":160,"time_elapsed":1328857,"internal_node_id":"0.0-7.0-0.6","prolific_id":"5a0ef93279f96a0001c73f25","session_id":"643c2513193a7d486b20a327","study_id":"64370a36d30bfa807bc7e43c","difference":0},{"rt":null,"stimulus":"<h2>The correct answer is 65.</h2><p>Your answer was different from the answer by 0.</p><p>You got the right answer. Amazing work!</p>","response":null,"trial_type":"html-keyboard-response","trial_index":161,"time_elapsed":1331375,"internal_node_id":"0.0-7.0-1.6","prolific_id":"5a0ef93279f96a0001c73f25","session_id":"643c2513193a7d486b20a327","study_id":"64370a36d30bfa807bc7e43c"},{"rt":5373,"response":{"answer":"7"},"task":"response","correct_response":"79","trial_type":"survey-text","trial_index":162,"time_elapsed":1336750,"internal_node_id":"0.0-7.0-0.7","prolific_id":"5a0ef93279f96a0001c73f25","session_id":"643c2513193a7d486b20a327","study_id":"64370a36d30bfa807bc7e43c","difference":91},{"rt":null,"stimulus":"<h2>The correct answer is 79.</h2><p>Your answer was different from the answer by 72.</p><p>Not even close... do better next time!</p>","response":null,"trial_type":"html-keyboard-response","trial_index":163,"time_elapsed":1339260,"internal_node_id":"0.0-7.0-1.7","prolific_id":"5a0ef93279f96a0001c73f25","session_id":"643c2513193a7d486b20a327","study_id":"64370a36d30bfa807bc7e43c"},{"rt":5716,"response":{"answer":"25"},"task":"response","correct_response":"73","trial_type":"survey-text","trial_index":164,"time_elapsed":1344978,"internal_node_id":"0.0-7.0-0.8","prolific_id":"5a0ef93279f96a0001c73f25","session_id":"643c2513193a7d486b20a327","study_id":"64370a36d30bfa807bc7e43c","difference":66},{"rt":null,"stimulus":"<h2>The correct answer is 73.</h2><p>Your answer was different from the answer by 48.</p><p>Not even close... do better next time!</p>","response":null,"trial_type":"html-keyboard-response","trial_index":165,"time_elapsed":1347490,"internal_node_id":"0.0-7.0-1.8","prolific_id":"5a0ef93279f96a0001c73f25","session_id":"643c2513193a7d486b20a327","study_id":"64370a36d30bfa807bc7e43c"},{"rt":4681,"response":{"answer":"2007"},"task":"response","correct_response":"2007","trial_type":"survey-text","trial_index":166,"time_elapsed":1352174,"internal_node_id":"0.0-7.0-0.9","prolific_id":"5a0ef93279f96a0001c73f25","session_id":"643c2513193a7d486b20a327","study_id":"64370a36d30bfa807bc7e43c","difference":0},{"rt":null,"stimulus":"<h2>The correct answer is 2007.</h2><p>Your answer was different from the answer by 0.</p><p>You got the right answer. Amazing work!</p>","response":null,"trial_type":"html-keyboard-response","trial_index":167,"time_elapsed":1354688,"internal_node_id":"0.0-7.0-1.9","prolific_id":"5a0ef93279f96a0001c73f25","session_id":"643c2513193a7d486b20a327","study_id":"64370a36d30bfa807bc7e43c"}]