[{"success":true,"timeout":false,"failed_images":[],"failed_audio":[],"failed_video":[],"trial_type":"preload","trial_index":0,"time_elapsed":64851,"internal_node_id":"0.0-0.0","prolific_id":"5ae5b7e26735bd0001d7dfe3","session_id":"643c252dc59b04c011384289","study_id":"64370a36d30bfa807bc7e43c"},{"rt":107470,"stimulus":"\n\t\t\t\t\t<p>Welcome and thank you for participating in this study!</p>\n\t\t\t\t\t<p>In each trial, you will be given a trivia question and then be asked to:</p><br>\n\t\t\t\t\t<div class=\"list\">\n\t\t\t\t\t<p>1) Predict the answer</p>\n\t\t\t\t\t<p>2) Rate how much you already know about the topic</p>\n\t\t\t\t\t<p>3) Rate how much you want to know the answer</p>\n\t\t\t\t\t</div>\n\t\t\t\t\t<br>\n\t\t\t\t\t<p>Then, you will see a card that flips over to reveal the answer.</p>\n\t\t\t\t\t<br>\n\t\t\t\t\t<p>Let's try a practice round. Press <span style=\"color: red\"><strong>any key</strong></span> to move to the next slide</p>\n\t\t\t\t\t","response":" ","trial_type":"html-keyboard-response","trial_index":1,"time_elapsed":172327,"internal_node_id":"0.0-1.0","prolific_id":"5ae5b7e26735bd0001d7dfe3","session_id":"643c252dc59b04c011384289","study_id":"64370a36d30bfa807bc7e43c"},{"rt":4446,"response":{"practice prediction":"8"},"task":"practice","trial_type":"survey-text","trial_index":2,"time_elapsed":176878,"internal_node_id":"0.0-2.0-0.0","prolific_id":"5ae5b7e26735bd0001d7dfe3","session_id":"643c252dc59b04c011384289","study_id":"64370a36d30bfa807bc7e43c"},{"rt":12392,"response":{"practice":4},"accuracy":[],"trial_type":"survey","trial_index":3,"time_elapsed":189506,"internal_node_id":"0.0-2.0-1.0","prolific_id":"5ae5b7e26735bd0001d7dfe3","session_id":"643c252dc59b04c011384289","study_id":"64370a36d30bfa807bc7e43c"},{"rt":null,"stimulus":"\n\t\t\t\t<div class=\"flip_card\">\n\t\t\t\t\t<div class=\"flip_card_inner\">\n\t\t\t\t\t\t<div class=\"flip_card_front\">\n\t\t\t\t\t\t\t<img src=img/practice.png>\n\t\t\t\t\t\t</div>\n\t\t\t\t\t\t<div class=\"flip_card_back\">\n\t\t\t\t\t\t\t<h2>\"How many legs does a lobster have?\"</h2>\n\t\t\t\t\t\t    <br>\n\t\t\t\t\t\t    <p>Answer: <strong>\"10\"</strong></p>\n\t\t\t\t\t    </div>\n\t\t\t\t    </div>\n\t\t\t    </div>\n\t\t\t\t","response":null,"trial_type":"html-keyboard-response","trial_index":4,"time_elapsed":194515,"internal_node_id":"0.0-2.0-2.0","prolific_id":"5ae5b7e26735bd0001d7dfe3","session_id":"643c252dc59b04c011384289","study_id":"64370a36d30bfa807bc7e43c"},{"rt":2568,"stimulus":"\n\t\t\t\t\t<div>\n\t\t\t\t\t<h2>The practice round is over</h2>\n\t\t\t\t\t<p>Press <span style=\"color: red\"><strong>any key</strong></span> to continue to the actual trials</p>\n\t\t\t\t\t<p>Good Luck!</p>\n\t\t\t\t\t</div>\n\t\t\t\t\t","response":" ","trial_type":"html-keyboard-response","trial_index":5,"time_elapsed":197087,"internal_node_id":"0.0-2.0-3.0","prolific_id":"5ae5b7e26735bd0001d7dfe3","session_id":"643c252dc59b04c011384289","study_id":"64370a36d30bfa807bc7e43c"},{"rt":5372,"response":{"prediction":"1910"},"trial_type":"survey-text","trial_index":6,"time_elapsed":202471,"internal_node_id":"0.0-3.0-0.0","prolific_id":"5ae5b7e26735bd0001d7dfe3","session_id":"643c252dc59b04c011384289","study_id":"64370a36d30bfa807bc7e43c"},{"rt":7928,"response":{"prior knowledge":1,"curiosity":3},"accuracy":[],"trial_type":"survey","trial_index":7,"time_elapsed":210481,"internal_node_id":"0.0-3.0-1.0","prolific_id":"5ae5b7e26735bd0001d7dfe3","session_id":"643c252dc59b04c011384289","study_id":"64370a36d30bfa807bc7e43c"},{"rt":null,"stimulus":"\n\t\t\t<div class=\"flip_card\">\n\t\t\t\t<div class=\"flip_card_inner\">\n\t\t\t\t\t<div class=\"flip_card_front\">\n\t\t\t\t\t\t<img src=img/12.png>\n\t\t\t\t\t</div>\n\t\t\t\t\t<div class=\"flip_card_back\">\n\t\t\t\t\t\t<h2>In what year was the first Nobel Prize awarded?</h2>\n\t\t\t\t\t\t<br>\n\t\t\t\t\t\t<p>Answer: <strong>1901</strong></p>\n\t\t\t\t\t</div>\n\t\t\t\t</div>\n\t\t\t</div>\n\t\t\t","response":null,"trial_type":"html-keyboard-response","trial_index":8,"time_elapsed":215486,"internal_node_id":"0.0-3.0-2.0","prolific_id":"5ae5b7e26735bd0001d7dfe3","session_id":"643c252dc59b04c011384289","study_id":"64370a36d30bfa807bc7e43c"},{"rt":2359,"stimulus":"\n\t\t\t\t\t<div>\n\t\t\t\t\t<h2>Trial 1 is over</h2>\n\t\t\t\t\t<p>Press <span style=\"color: red\"><strong>any key</strong></span> to continue to the next trial</p>\n\t\t\t\t\t</div>\n\t\t\t\t","response":" ","trial_type":"html-keyboard-response","trial_index":9,"time_elapsed":217852,"internal_node_id":"0.0-3.0-3.0","prolific_id":"5ae5b7e26735bd0001d7dfe3","session_id":"643c252dc59b04c011384289","study_id":"64370a36d30bfa807bc7e43c"},{"rt":5004,"response":{"prediction":"6"},"trial_type":"survey-text","trial_index":10,"time_elapsed":222866,"internal_node_id":"0.0-3.0-0.1","prolific_id":"5ae5b7e26735bd0001d7dfe3","session_id":"643c252dc59b04c011384289","study_id":"64370a36d30bfa807bc7e43c"},{"rt":7553,"response":{"prior knowledge":1,"curiosity":5},"accuracy":[],"trial_type":"survey","trial_index":11,"time_elapsed":230505,"internal_node_id":"0.0-3.0-1.1","prolific_id":"5ae5b7e26735bd0001d7dfe3","session_id":"643c252dc59b04c011384289","study_id":"64370a36d30bfa807bc7e43c"},{"rt":null,"stimulus":"\n\t\t\t<div class=\"flip_card\">\n\t\t\t\t<div class=\"flip_card_inner\">\n\t\t\t\t\t<div class=\"flip_card_front\">\n\t\t\t\t\t\t<img src=img/7.png>\n\t\t\t\t\t</div>\n\t\t\t\t\t<div class=\"flip_card_back\">\n\t\t\t\t\t\t<h2>How many native species of kangaroos are found in Australia?</h2>\n\t\t\t\t\t\t<br>\n\t\t\t\t\t\t<p>Answer: <strong>4</strong></p>\n\t\t\t\t\t</div>\n\t\t\t\t</div>\n\t\t\t</div>\n\t\t\t","response":null,"trial_type":"html-keyboard-response","trial_index":12,"time_elapsed":235512,"internal_node_id":"0.0-3.0-2.1","prolific_id":"5ae5b7e26735bd0001d7dfe3","session_id":"643c252dc59b04c011384289","study_id":"64370a36d30bfa807bc7e43c"},{"rt":1401,"stimulus":"\n\t\t\t\t\t<div>\n\t\t\t\t\t<h2>Trial 2 is over</h2>\n\t\t\t\t\t<p>Press <span style=\"color: red\"><strong>any key</strong></span> to continue to the next trial</p>\n\t\t\t\t\t</div>\n\t\t\t\t","response":" ","trial_type":"html-keyboard-response","trial_index":13,"time_elapsed":236917,"internal_node_id":"0.0-3.0-3.1","prolific_id":"5ae5b7e26735bd0001d7dfe3","session_id":"643c252dc59b04c011384289","study_id":"64370a36d30bfa807bc7e43c"},{"rt":7232,"response":{"prediction":"6"},"trial_type":"survey-text","trial_index":14,"time_elapsed":244158,"internal_node_id":"0.0-3.0-0.2","prolific_id":"5ae5b7e26735bd0001d7dfe3","session_id":"643c252dc59b04c011384289","study_id":"64370a36d30bfa807bc7e43c"},{"rt":5474,"response":{"prior knowledge":0,"curiosity":3},"accuracy":[],"trial_type":"survey","trial_index":15,"time_elapsed":249689,"internal_node_id":"0.0-3.0-1.2","prolific_id":"5ae5b7e26735bd0001d7dfe3","session_id":"643c252dc59b04c011384289","study_id":"64370a36d30bfa807bc7e43c"},{"rt":null,"stimulus":"\n\t\t\t<div class=\"flip_card\">\n\t\t\t\t<div class=\"flip_card_inner\">\n\t\t\t\t\t<div class=\"flip_card_front\">\n\t\t\t\t\t\t<img src=img/24.png>\n\t\t\t\t\t</div>\n\t\t\t\t\t<div class=\"flip_card_back\">\n\t\t\t\t\t\t<h2>How many tones are in the Vietnamese language?</h2>\n\t\t\t\t\t\t<br>\n\t\t\t\t\t\t<p>Answer: <strong>6</strong></p>\n\t\t\t\t\t</div>\n\t\t\t\t</div>\n\t\t\t</div>\n\t\t\t","response":null,"trial_type":"html-keyboard-response","trial_index":16,"time_elapsed":254695,"internal_node_id":"0.0-3.0-2.2","prolific_id":"5ae5b7e26735bd0001d7dfe3","session_id":"643c252dc59b04c011384289","study_id":"64370a36d30bfa807bc7e43c"},{"rt":1283,"stimulus":"\n\t\t\t\t\t<div>\n\t\t\t\t\t<h2>Trial 3 is over</h2>\n\t\t\t\t\t<p>Press <span style=\"color: red\"><strong>any key</strong></span> to continue to the next trial</p>\n\t\t\t\t\t</div>\n\t\t\t\t","response":" ","trial_type":"html-keyboard-response","trial_index":17,"time_elapsed":255981,"internal_node_id":"0.0-3.0-3.2","prolific_id":"5ae5b7e26735bd0001d7dfe3","session_id":"643c252dc59b04c011384289","study_id":"64370a36d30bfa807bc7e43c"},{"rt":7489,"response":{"prediction":"200"},"trial_type":"survey-text","trial_index":18,"time_elapsed":263481,"internal_node_id":"0.0-3.0-0.3","prolific_id":"5ae5b7e26735bd0001d7dfe3","session_id":"643c252dc59b04c011384289","study_id":"64370a36d30bfa807bc7e43c"},{"rt":5946,"response":{"prior knowledge":0,"curiosity":4},"accuracy":[],"trial_type":"survey","trial_index":19,"time_elapsed":269501,"internal_node_id":"0.0-3.0-1.3","prolific_id":"5ae5b7e26735bd0001d7dfe3","session_id":"643c252dc59b04c011384289","study_id":"64370a36d30bfa807bc7e43c"},{"rt":null,"stimulus":"\n\t\t\t<div class=\"flip_card\">\n\t\t\t\t<div class=\"flip_card_inner\">\n\t\t\t\t\t<div class=\"flip_card_front\">\n\t\t\t\t\t\t<img src=img/28.png>\n\t\t\t\t\t</div>\n\t\t\t\t\t<div class=\"flip_card_back\">\n\t\t\t\t\t\t<h2>In what year did the first Modern Olympic Games take place?</h2>\n\t\t\t\t\t\t<br>\n\t\t\t\t\t\t<p>Answer: <strong>1896</strong></p>\n\t\t\t\t\t</div>\n\t\t\t\t</div>\n\t\t\t</div>\n\t\t\t","response":null,"trial_type":"html-keyboard-response","trial_index":20,"time_elapsed":274506,"internal_node_id":"0.0-3.0-2.3","prolific_id":"5ae5b7e26735bd0001d7dfe3","session_id":"643c252dc59b04c011384289","study_id":"64370a36d30bfa807bc7e43c"},{"rt":3650,"stimulus":"\n\t\t\t\t\t<div>\n\t\t\t\t\t<h2>Trial 4 is over</h2>\n\t\t\t\t\t<p>Press <span style=\"color: red\"><strong>any key</strong></span> to continue to the next trial</p>\n\t\t\t\t\t</div>\n\t\t\t\t","response":" ","trial_type":"html-keyboard-response","trial_index":21,"time_elapsed":278160,"internal_node_id":"0.0-3.0-3.3","prolific_id":"5ae5b7e26735bd0001d7dfe3","session_id":"643c252dc59b04c011384289","study_id":"64370a36d30bfa807bc7e43c"},{"rt":9907,"response":{"prediction":"1902"},"trial_type":"survey-text","trial_index":22,"time_elapsed":288078,"internal_node_id":"0.0-3.0-0.4","prolific_id":"5ae5b7e26735bd0001d7dfe3","session_id":"643c252dc59b04c011384289","study_id":"64370a36d30bfa807bc7e43c"},{"rt":7284,"response":{"prior knowledge":2,"curiosity":5},"accuracy":[],"trial_type":"survey","trial_index":23,"time_elapsed":295445,"internal_node_id":"0.0-3.0-1.4","prolific_id":"5ae5b7e26735bd0001d7dfe3","session_id":"643c252dc59b04c011384289","study_id":"64370a36d30bfa807bc7e43c"},{"rt":null,"stimulus":"\n\t\t\t<div class=\"flip_card\">\n\t\t\t\t<div class=\"flip_card_inner\">\n\t\t\t\t\t<div class=\"flip_card_front\">\n\t\t\t\t\t\t<img src=img/10.png>\n\t\t\t\t\t</div>\n\t\t\t\t\t<div class=\"flip_card_back\">\n\t\t\t\t\t\t<h2>In what year was the Mexican artist Frida Kahlo born?</h2>\n\t\t\t\t\t\t<br>\n\t\t\t\t\t\t<p>Answer: <strong>1907</strong></p>\n\t\t\t\t\t</div>\n\t\t\t\t</div>\n\t\t\t</div>\n\t\t\t","response":null,"trial_type":"html-keyboard-response","trial_index":24,"time_elapsed":300450,"internal_node_id":"0.0-3.0-2.4","prolific_id":"5ae5b7e26735bd0001d7dfe3","session_id":"643c252dc59b04c011384289","study_id":"64370a36d30bfa807bc7e43c"},{"rt":1508,"stimulus":"\n\t\t\t\t\t<div>\n\t\t\t\t\t<h2>Trial 5 is over</h2>\n\t\t\t\t\t<p>Press <span style=\"color: red\"><strong>any key</strong></span> to continue to the next trial</p>\n\t\t\t\t\t</div>\n\t\t\t\t","response":" ","trial_type":"html-keyboard-response","trial_index":25,"time_elapsed":301963,"internal_node_id":"0.0-3.0-3.4","prolific_id":"5ae5b7e26735bd0001d7dfe3","session_id":"643c252dc59b04c011384289","study_id":"64370a36d30bfa807bc7e43c"},{"rt":4693,"response":{"prediction":"13"},"trial_type":"survey-text","trial_index":26,"time_elapsed":306666,"internal_node_id":"0.0-3.0-0.5","prolific_id":"5ae5b7e26735bd0001d7dfe3","session_id":"643c252dc59b04c011384289","study_id":"64370a36d30bfa807bc7e43c"},{"rt":9666,"response":{"prior knowledge":4,"curiosity":0},"accuracy":[],"trial_type":"survey","trial_index":27,"time_elapsed":316385,"internal_node_id":"0.0-3.0-1.5","prolific_id":"5ae5b7e26735bd0001d7dfe3","session_id":"643c252dc59b04c011384289","study_id":"64370a36d30bfa807bc7e43c"},{"rt":null,"stimulus":"\n\t\t\t<div class=\"flip_card\">\n\t\t\t\t<div class=\"flip_card_inner\">\n\t\t\t\t\t<div class=\"flip_card_front\">\n\t\t\t\t\t\t<img src=img/3.png>\n\t\t\t\t\t</div>\n\t\t\t\t\t<div class=\"flip_card_back\">\n\t\t\t\t\t\t<h2>How much is in a Baker's Dozen?</h2>\n\t\t\t\t\t\t<br>\n\t\t\t\t\t\t<p>Answer: <strong>13</strong></p>\n\t\t\t\t\t</div>\n\t\t\t\t</div>\n\t\t\t</div>\n\t\t\t","response":null,"trial_type":"html-keyboard-response","trial_index":28,"time_elapsed":321391,"internal_node_id":"0.0-3.0-2.5","prolific_id":"5ae5b7e26735bd0001d7dfe3","session_id":"643c252dc59b04c011384289","study_id":"64370a36d30bfa807bc7e43c"},{"rt":1118,"stimulus":"\n\t\t\t\t\t<div>\n\t\t\t\t\t<h2>Trial 6 is over</h2>\n\t\t\t\t\t<p>Press <span style=\"color: red\"><strong>any key</strong></span> to continue to the next trial</p>\n\t\t\t\t\t</div>\n\t\t\t\t","response":" ","trial_type":"html-keyboard-response","trial_index":29,"time_elapsed":322513,"internal_node_id":"0.0-3.0-3.5","prolific_id":"5ae5b7e26735bd0001d7dfe3","session_id":"643c252dc59b04c011384289","study_id":"64370a36d30bfa807bc7e43c"},{"rt":11151,"response":{"prediction":"5600"},"trial_type":"survey-text","trial_index":30,"time_elapsed":333674,"internal_node_id":"0.0-3.0-0.6","prolific_id":"5ae5b7e26735bd0001d7dfe3","session_id":"643c252dc59b04c011384289","study_id":"64370a36d30bfa807bc7e43c"},{"rt":5990,"response":{"prior knowledge":1,"curiosity":4},"accuracy":[],"trial_type":"survey","trial_index":31,"time_elapsed":339742,"internal_node_id":"0.0-3.0-1.6","prolific_id":"5ae5b7e26735bd0001d7dfe3","session_id":"643c252dc59b04c011384289","study_id":"64370a36d30bfa807bc7e43c"},{"rt":null,"stimulus":"\n\t\t\t<div class=\"flip_card\">\n\t\t\t\t<div class=\"flip_card_inner\">\n\t\t\t\t\t<div class=\"flip_card_front\">\n\t\t\t\t\t\t<img src=img/18.png>\n\t\t\t\t\t</div>\n\t\t\t\t\t<div class=\"flip_card_back\">\n\t\t\t\t\t\t<h2>What is the diameter of Earth in miles?</h2>\n\t\t\t\t\t\t<br>\n\t\t\t\t\t\t<p>Answer: <strong>7917.5</strong></p>\n\t\t\t\t\t</div>\n\t\t\t\t</div>\n\t\t\t</div>\n\t\t\t","response":null,"trial_type":"html-keyboard-response","trial_index":32,"time_elapsed":344758,"internal_node_id":"0.0-3.0-2.6","prolific_id":"5ae5b7e26735bd0001d7dfe3","session_id":"643c252dc59b04c011384289","study_id":"64370a36d30bfa807bc7e43c"},{"rt":1087,"stimulus":"\n\t\t\t\t\t<div>\n\t\t\t\t\t<h2>Trial 7 is over</h2>\n\t\t\t\t\t<p>Press <span style=\"color: red\"><strong>any key</strong></span> to continue to the next trial</p>\n\t\t\t\t\t</div>\n\t\t\t\t","response":" ","trial_type":"html-keyboard-response","trial_index":33,"time_elapsed":345850,"internal_node_id":"0.0-3.0-3.6","prolific_id":"5ae5b7e26735bd0001d7dfe3","session_id":"643c252dc59b04c011384289","study_id":"64370a36d30bfa807bc7e43c"},{"rt":8430,"response":{"prediction":"2007"},"trial_type":"survey-text","trial_index":34,"time_elapsed":354287,"internal_node_id":"0.0-3.0-0.7","prolific_id":"5ae5b7e26735bd0001d7dfe3","session_id":"643c252dc59b04c011384289","study_id":"64370a36d30bfa807bc7e43c"},{"rt":5596,"response":{"prior knowledge":2,"curiosity":3},"accuracy":[],"trial_type":"survey","trial_index":35,"time_elapsed":359952,"internal_node_id":"0.0-3.0-1.7","prolific_id":"5ae5b7e26735bd0001d7dfe3","session_id":"643c252dc59b04c011384289","study_id":"64370a36d30bfa807bc7e43c"},{"rt":null,"stimulus":"\n\t\t\t<div class=\"flip_card\">\n\t\t\t\t<div class=\"flip_card_inner\">\n\t\t\t\t\t<div class=\"flip_card_front\">\n\t\t\t\t\t\t<img src=img/22.png>\n\t\t\t\t\t</div>\n\t\t\t\t\t<div class=\"flip_card_back\">\n\t\t\t\t\t\t<h2>What year was the very first model of the iPhone released?</h2>\n\t\t\t\t\t\t<br>\n\t\t\t\t\t\t<p>Answer: <strong>2007</strong></p>\n\t\t\t\t\t</div>\n\t\t\t\t</div>\n\t\t\t</div>\n\t\t\t","response":null,"trial_type":"html-keyboard-response","trial_index":36,"time_elapsed":364958,"internal_node_id":"0.0-3.0-2.7","prolific_id":"5ae5b7e26735bd0001d7dfe3","session_id":"643c252dc59b04c011384289","study_id":"64370a36d30bfa807bc7e43c"},{"rt":948,"stimulus":"\n\t\t\t\t\t<div>\n\t\t\t\t\t<h2>Trial 8 is over</h2>\n\t\t\t\t\t<p>Press <span style=\"color: red\"><strong>any key</strong></span> to continue to the next trial</p>\n\t\t\t\t\t</div>\n\t\t\t\t","response":" ","trial_type":"html-keyboard-response","trial_index":37,"time_elapsed":365915,"internal_node_id":"0.0-3.0-3.7","prolific_id":"5ae5b7e26735bd0001d7dfe3","session_id":"643c252dc59b04c011384289","study_id":"64370a36d30bfa807bc7e43c"},{"rt":9224,"response":{"prediction":"12"},"trial_type":"survey-text","trial_index":38,"time_elapsed":375147,"internal_node_id":"0.0-3.0-0.8","prolific_id":"5ae5b7e26735bd0001d7dfe3","session_id":"643c252dc59b04c011384289","study_id":"64370a36d30bfa807bc7e43c"},{"rt":5803,"response":{"prior knowledge":0,"curiosity":3},"accuracy":[],"trial_type":"survey","trial_index":39,"time_elapsed":381011,"internal_node_id":"0.0-3.0-1.8","prolific_id":"5ae5b7e26735bd0001d7dfe3","session_id":"643c252dc59b04c011384289","study_id":"64370a36d30bfa807bc7e43c"},{"rt":null,"stimulus":"\n\t\t\t<div class=\"flip_card\">\n\t\t\t\t<div class=\"flip_card_inner\">\n\t\t\t\t\t<div class=\"flip_card_front\">\n\t\t\t\t\t\t<img src=img/13.png>\n\t\t\t\t\t</div>\n\t\t\t\t\t<div class=\"flip_card_back\">\n\t\t\t\t\t\t<h2>How many single hand gestures, or mudras, are used in Indian classical dance?</h2>\n\t\t\t\t\t\t<br>\n\t\t\t\t\t\t<p>Answer: <strong>28</strong></p>\n\t\t\t\t\t</div>\n\t\t\t\t</div>\n\t\t\t</div>\n\t\t\t","response":null,"trial_type":"html-keyboard-response","trial_index":40,"time_elapsed":386015,"internal_node_id":"0.0-3.0-2.8","prolific_id":"5ae5b7e26735bd0001d7dfe3","session_id":"643c252dc59b04c011384289","study_id":"64370a36d30bfa807bc7e43c"},{"rt":953,"stimulus":"\n\t\t\t\t\t<div>\n\t\t\t\t\t<h2>Trial 9 is over</h2>\n\t\t\t\t\t<p>Press <span style=\"color: red\"><strong>any key</strong></span> to continue to the next trial</p>\n\t\t\t\t\t</div>\n\t\t\t\t","response":" ","trial_type":"html-keyboard-response","trial_index":41,"time_elapsed":386971,"internal_node_id":"0.0-3.0-3.8","prolific_id":"5ae5b7e26735bd0001d7dfe3","session_id":"643c252dc59b04c011384289","study_id":"64370a36d30bfa807bc7e43c"},{"rt":7314,"response":{"prediction":"1"},"trial_type":"survey-text","trial_index":42,"time_elapsed":394294,"internal_node_id":"0.0-3.0-0.9","prolific_id":"5ae5b7e26735bd0001d7dfe3","session_id":"643c252dc59b04c011384289","study_id":"64370a36d30bfa807bc7e43c"},{"rt":4740,"response":{"prior knowledge":2,"curiosity":4},"accuracy":[],"trial_type":"survey","trial_index":43,"time_elapsed":399093,"internal_node_id":"0.0-3.0-1.9","prolific_id":"5ae5b7e26735bd0001d7dfe3","session_id":"643c252dc59b04c011384289","study_id":"64370a36d30bfa807bc7e43c"},{"rt":null,"stimulus":"\n\t\t\t<div class=\"flip_card\">\n\t\t\t\t<div class=\"flip_card_inner\">\n\t\t\t\t\t<div class=\"flip_card_front\">\n\t\t\t\t\t\t<img src=img/2.png>\n\t\t\t\t\t</div>\n\t\t\t\t\t<div class=\"flip_card_back\">\n\t\t\t\t\t\t<h2>How many countries have territory in the Arctic Circle?</h2>\n\t\t\t\t\t\t<br>\n\t\t\t\t\t\t<p>Answer: <strong>8</strong></p>\n\t\t\t\t\t</div>\n\t\t\t\t</div>\n\t\t\t</div>\n\t\t\t","response":null,"trial_type":"html-keyboard-response","trial_index":44,"time_elapsed":404097,"internal_node_id":"0.0-3.0-2.9","prolific_id":"5ae5b7e26735bd0001d7dfe3","session_id":"643c252dc59b04c011384289","study_id":"64370a36d30bfa807bc7e43c"},{"rt":1152,"stimulus":"\n\t\t\t\t\t<div>\n\t\t\t\t\t<h2>Trial 10 is over</h2>\n\t\t\t\t\t<p>Press <span style=\"color: red\"><strong>any key</strong></span> to continue to the next trial</p>\n\t\t\t\t\t</div>\n\t\t\t\t","response":" ","trial_type":"html-keyboard-response","trial_index":45,"time_elapsed":405254,"internal_node_id":"0.0-3.0-3.9","prolific_id":"5ae5b7e26735bd0001d7dfe3","session_id":"643c252dc59b04c011384289","study_id":"64370a36d30bfa807bc7e43c"},{"rt":7486,"response":{"prediction":"14"},"trial_type":"survey-text","trial_index":46,"time_elapsed":412749,"internal_node_id":"0.0-3.0-0.10","prolific_id":"5ae5b7e26735bd0001d7dfe3","session_id":"643c252dc59b04c011384289","study_id":"64370a36d30bfa807bc7e43c"},{"rt":4874,"response":{"prior knowledge":2,"curiosity":5},"accuracy":[],"trial_type":"survey","trial_index":47,"time_elapsed":417707,"internal_node_id":"0.0-3.0-1.10","prolific_id":"5ae5b7e26735bd0001d7dfe3","session_id":"643c252dc59b04c011384289","study_id":"64370a36d30bfa807bc7e43c"},{"rt":null,"stimulus":"\n\t\t\t<div class=\"flip_card\">\n\t\t\t\t<div class=\"flip_card_inner\">\n\t\t\t\t\t<div class=\"flip_card_front\">\n\t\t\t\t\t\t<img src=img/8.png>\n\t\t\t\t\t</div>\n\t\t\t\t\t<div class=\"flip_card_back\">\n\t\t\t\t\t\t<h2>How old was King Tut when he died?</h2>\n\t\t\t\t\t\t<br>\n\t\t\t\t\t\t<p>Answer: <strong>19</strong></p>\n\t\t\t\t\t</div>\n\t\t\t\t</div>\n\t\t\t</div>\n\t\t\t","response":null,"trial_type":"html-keyboard-response","trial_index":48,"time_elapsed":422712,"internal_node_id":"0.0-3.0-2.10","prolific_id":"5ae5b7e26735bd0001d7dfe3","session_id":"643c252dc59b04c011384289","study_id":"64370a36d30bfa807bc7e43c"},{"rt":955,"stimulus":"\n\t\t\t\t\t<div>\n\t\t\t\t\t<h2>Trial 11 is over</h2>\n\t\t\t\t\t<p>Press <span style=\"color: red\"><strong>any key</strong></span> to continue to the next trial</p>\n\t\t\t\t\t</div>\n\t\t\t\t","response":" ","trial_type":"html-keyboard-response","trial_index":49,"time_elapsed":423670,"internal_node_id":"0.0-3.0-3.10","prolific_id":"5ae5b7e26735bd0001d7dfe3","session_id":"643c252dc59b04c011384289","study_id":"64370a36d30bfa807bc7e43c"},{"rt":15079,"response":{"prediction":"260"},"trial_type":"survey-text","trial_index":50,"time_elapsed":438762,"internal_node_id":"0.0-3.0-0.11","prolific_id":"5ae5b7e26735bd0001d7dfe3","session_id":"643c252dc59b04c011384289","study_id":"64370a36d30bfa807bc7e43c"},{"rt":5898,"response":{"prior knowledge":0,"curiosity":5},"accuracy":[],"trial_type":"survey","trial_index":51,"time_elapsed":444731,"internal_node_id":"0.0-3.0-1.11","prolific_id":"5ae5b7e26735bd0001d7dfe3","session_id":"643c252dc59b04c011384289","study_id":"64370a36d30bfa807bc7e43c"},{"rt":null,"stimulus":"\n\t\t\t<div class=\"flip_card\">\n\t\t\t\t<div class=\"flip_card_inner\">\n\t\t\t\t\t<div class=\"flip_card_front\">\n\t\t\t\t\t\t<img src=img/11.png>\n\t\t\t\t\t</div>\n\t\t\t\t\t<div class=\"flip_card_back\">\n\t\t\t\t\t\t<h2>How many floors are in the Burj Khalifa, the tallest building in the world?</h2>\n\t\t\t\t\t\t<br>\n\t\t\t\t\t\t<p>Answer: <strong>163</strong></p>\n\t\t\t\t\t</div>\n\t\t\t\t</div>\n\t\t\t</div>\n\t\t\t","response":null,"trial_type":"html-keyboard-response","trial_index":52,"time_elapsed":449736,"internal_node_id":"0.0-3.0-2.11","prolific_id":"5ae5b7e26735bd0001d7dfe3","session_id":"643c252dc59b04c011384289","study_id":"64370a36d30bfa807bc7e43c"},{"rt":1252,"stimulus":"\n\t\t\t\t\t<div>\n\t\t\t\t\t<h2>Trial 12 is over</h2>\n\t\t\t\t\t<p>Press <span style=\"color: red\"><strong>any key</strong></span> to continue to the next trial</p>\n\t\t\t\t\t</div>\n\t\t\t\t","response":" ","trial_type":"html-keyboard-response","trial_index":53,"time_elapsed":450993,"internal_node_id":"0.0-3.0-3.11","prolific_id":"5ae5b7e26735bd0001d7dfe3","session_id":"643c252dc59b04c011384289","study_id":"64370a36d30bfa807bc7e43c"},{"rt":6143,"response":{"prediction":"3"},"trial_type":"survey-text","trial_index":54,"time_elapsed":457146,"internal_node_id":"0.0-3.0-0.12","prolific_id":"5ae5b7e26735bd0001d7dfe3","session_id":"643c252dc59b04c011384289","study_id":"64370a36d30bfa807bc7e43c"},{"rt":5346,"response":{"prior knowledge":2,"curiosity":4},"accuracy":[],"trial_type":"survey","trial_index":55,"time_elapsed":462542,"internal_node_id":"0.0-3.0-1.12","prolific_id":"5ae5b7e26735bd0001d7dfe3","session_id":"643c252dc59b04c011384289","study_id":"64370a36d30bfa807bc7e43c"},{"rt":null,"stimulus":"\n\t\t\t<div class=\"flip_card\">\n\t\t\t\t<div class=\"flip_card_inner\">\n\t\t\t\t\t<div class=\"flip_card_front\">\n\t\t\t\t\t\t<img src=img/9.png>\n\t\t\t\t\t</div>\n\t\t\t\t\t<div class=\"flip_card_back\">\n\t\t\t\t\t\t<h2>How many countries in Africa have French as the official language?</h2>\n\t\t\t\t\t\t<br>\n\t\t\t\t\t\t<p>Answer: <strong>21</strong></p>\n\t\t\t\t\t</div>\n\t\t\t\t</div>\n\t\t\t</div>\n\t\t\t","response":null,"trial_type":"html-keyboard-response","trial_index":56,"time_elapsed":467557,"internal_node_id":"0.0-3.0-2.12","prolific_id":"5ae5b7e26735bd0001d7dfe3","session_id":"643c252dc59b04c011384289","study_id":"64370a36d30bfa807bc7e43c"},{"rt":1332,"stimulus":"\n\t\t\t\t\t<div>\n\t\t\t\t\t<h2>Trial 13 is over</h2>\n\t\t\t\t\t<p>Press <span style=\"color: red\"><strong>any key</strong></span> to continue to the next trial</p>\n\t\t\t\t\t</div>\n\t\t\t\t","response":" ","trial_type":"html-keyboard-response","trial_index":57,"time_elapsed":468891,"internal_node_id":"0.0-3.0-3.12","prolific_id":"5ae5b7e26735bd0001d7dfe3","session_id":"643c252dc59b04c011384289","study_id":"64370a36d30bfa807bc7e43c"},{"rt":14043,"response":{"prediction":"12"},"trial_type":"survey-text","trial_index":58,"time_elapsed":482943,"internal_node_id":"0.0-3.0-0.13","prolific_id":"5ae5b7e26735bd0001d7dfe3","session_id":"643c252dc59b04c011384289","study_id":"64370a36d30bfa807bc7e43c"},{"rt":6011,"response":{"prior knowledge":0,"curiosity":4},"accuracy":[],"trial_type":"survey","trial_index":59,"time_elapsed":489008,"internal_node_id":"0.0-3.0-1.13","prolific_id":"5ae5b7e26735bd0001d7dfe3","session_id":"643c252dc59b04c011384289","study_id":"64370a36d30bfa807bc7e43c"},{"rt":null,"stimulus":"\n\t\t\t<div class=\"flip_card\">\n\t\t\t\t<div class=\"flip_card_inner\">\n\t\t\t\t\t<div class=\"flip_card_front\">\n\t\t\t\t\t\t<img src=img/25.png>\n\t\t\t\t\t</div>\n\t\t\t\t\t<div class=\"flip_card_back\">\n\t\t\t\t\t\t<h2>How many different animals (real or imaginary) are represented in the Chinese calendar?</h2>\n\t\t\t\t\t\t<br>\n\t\t\t\t\t\t<p>Answer: <strong>12</strong></p>\n\t\t\t\t\t</div>\n\t\t\t\t</div>\n\t\t\t</div>\n\t\t\t","response":null,"trial_type":"html-keyboard-response","trial_index":60,"time_elapsed":494015,"internal_node_id":"0.0-3.0-2.13","prolific_id":"5ae5b7e26735bd0001d7dfe3","session_id":"643c252dc59b04c011384289","study_id":"64370a36d30bfa807bc7e43c"},{"rt":1027,"stimulus":"\n\t\t\t\t\t<div>\n\t\t\t\t\t<h2>Trial 14 is over</h2>\n\t\t\t\t\t<p>Press <span style=\"color: red\"><strong>any key</strong></span> to continue to the next trial</p>\n\t\t\t\t\t</div>\n\t\t\t\t","response":" ","trial_type":"html-keyboard-response","trial_index":61,"time_elapsed":495045,"internal_node_id":"0.0-3.0-3.13","prolific_id":"5ae5b7e26735bd0001d7dfe3","session_id":"643c252dc59b04c011384289","study_id":"64370a36d30bfa807bc7e43c"},{"rt":3607,"response":{"prediction":"3"},"trial_type":"survey-text","trial_index":62,"time_elapsed":498664,"internal_node_id":"0.0-3.0-0.14","prolific_id":"5ae5b7e26735bd0001d7dfe3","session_id":"643c252dc59b04c011384289","study_id":"64370a36d30bfa807bc7e43c"},{"rt":5322,"response":{"prior knowledge":0,"curiosity":3},"accuracy":[],"trial_type":"survey","trial_index":63,"time_elapsed":504039,"internal_node_id":"0.0-3.0-1.14","prolific_id":"5ae5b7e26735bd0001d7dfe3","session_id":"643c252dc59b04c011384289","study_id":"64370a36d30bfa807bc7e43c"},{"rt":null,"stimulus":"\n\t\t\t<div class=\"flip_card\">\n\t\t\t\t<div class=\"flip_card_inner\">\n\t\t\t\t\t<div class=\"flip_card_front\">\n\t\t\t\t\t\t<img src=img/23.png>\n\t\t\t\t\t</div>\n\t\t\t\t\t<div class=\"flip_card_back\">\n\t\t\t\t\t\t<h2>How many times a day do Muslims pray?</h2>\n\t\t\t\t\t\t<br>\n\t\t\t\t\t\t<p>Answer: <strong>5</strong></p>\n\t\t\t\t\t</div>\n\t\t\t\t</div>\n\t\t\t</div>\n\t\t\t","response":null,"trial_type":"html-keyboard-response","trial_index":64,"time_elapsed":509043,"internal_node_id":"0.0-3.0-2.14","prolific_id":"5ae5b7e26735bd0001d7dfe3","session_id":"643c252dc59b04c011384289","study_id":"64370a36d30bfa807bc7e43c"},{"rt":1323,"stimulus":"\n\t\t\t\t\t<div>\n\t\t\t\t\t<h2>Trial 15 is over</h2>\n\t\t\t\t\t<p>Press <span style=\"color: red\"><strong>any key</strong></span> to continue to the next trial</p>\n\t\t\t\t\t</div>\n\t\t\t\t","response":" ","trial_type":"html-keyboard-response","trial_index":65,"time_elapsed":510370,"internal_node_id":"0.0-3.0-3.14","prolific_id":"5ae5b7e26735bd0001d7dfe3","session_id":"643c252dc59b04c011384289","study_id":"64370a36d30bfa807bc7e43c"},{"rt":6758,"response":{"prediction":"96"},"trial_type":"survey-text","trial_index":66,"time_elapsed":517136,"internal_node_id":"0.0-3.0-0.15","prolific_id":"5ae5b7e26735bd0001d7dfe3","session_id":"643c252dc59b04c011384289","study_id":"64370a36d30bfa807bc7e43c"},{"rt":5794,"response":{"prior knowledge":3,"curiosity":4},"accuracy":[],"trial_type":"survey","trial_index":67,"time_elapsed":522984,"internal_node_id":"0.0-3.0-1.15","prolific_id":"5ae5b7e26735bd0001d7dfe3","session_id":"643c252dc59b04c011384289","study_id":"64370a36d30bfa807bc7e43c"},{"rt":null,"stimulus":"\n\t\t\t<div class=\"flip_card\">\n\t\t\t\t<div class=\"flip_card_inner\">\n\t\t\t\t\t<div class=\"flip_card_front\">\n\t\t\t\t\t\t<img src=img/16.png>\n\t\t\t\t\t</div>\n\t\t\t\t\t<div class=\"flip_card_back\">\n\t\t\t\t\t\t<h2>How many books has Stephen King published?</h2>\n\t\t\t\t\t\t<br>\n\t\t\t\t\t\t<p>Answer: <strong>65</strong></p>\n\t\t\t\t\t</div>\n\t\t\t\t</div>\n\t\t\t</div>\n\t\t\t","response":null,"trial_type":"html-keyboard-response","trial_index":68,"time_elapsed":527988,"internal_node_id":"0.0-3.0-2.15","prolific_id":"5ae5b7e26735bd0001d7dfe3","session_id":"643c252dc59b04c011384289","study_id":"64370a36d30bfa807bc7e43c"},{"rt":1336,"stimulus":"\n\t\t\t\t\t<div>\n\t\t\t\t\t<h2>Trial 16 is over</h2>\n\t\t\t\t\t<p>Press <span style=\"color: red\"><strong>any key</strong></span> to continue to the next trial</p>\n\t\t\t\t\t</div>\n\t\t\t\t","response":" ","trial_type":"html-keyboard-response","trial_index":69,"time_elapsed":529328,"internal_node_id":"0.0-3.0-3.15","prolific_id":"5ae5b7e26735bd0001d7dfe3","session_id":"643c252dc59b04c011384289","study_id":"64370a36d30bfa807bc7e43c"},{"rt":19146,"response":{"prediction":"45"},"trial_type":"survey-text","trial_index":70,"time_elapsed":548485,"internal_node_id":"0.0-3.0-0.16","prolific_id":"5ae5b7e26735bd0001d7dfe3","session_id":"643c252dc59b04c011384289","study_id":"64370a36d30bfa807bc7e43c"},{"rt":6037,"response":{"prior knowledge":1,"curiosity":4},"accuracy":[],"trial_type":"survey","trial_index":71,"time_elapsed":554585,"internal_node_id":"0.0-3.0-1.16","prolific_id":"5ae5b7e26735bd0001d7dfe3","session_id":"643c252dc59b04c011384289","study_id":"64370a36d30bfa807bc7e43c"},{"rt":null,"stimulus":"\n\t\t\t<div class=\"flip_card\">\n\t\t\t\t<div class=\"flip_card_inner\">\n\t\t\t\t\t<div class=\"flip_card_front\">\n\t\t\t\t\t\t<img src=img/20.png>\n\t\t\t\t\t</div>\n\t\t\t\t\t<div class=\"flip_card_back\">\n\t\t\t\t\t\t<h2>How many countries are in Africa?</h2>\n\t\t\t\t\t\t<br>\n\t\t\t\t\t\t<p>Answer: <strong>54</strong></p>\n\t\t\t\t\t</div>\n\t\t\t\t</div>\n\t\t\t</div>\n\t\t\t","response":null,"trial_type":"html-keyboard-response","trial_index":72,"time_elapsed":559589,"internal_node_id":"0.0-3.0-2.16","prolific_id":"5ae5b7e26735bd0001d7dfe3","session_id":"643c252dc59b04c011384289","study_id":"64370a36d30bfa807bc7e43c"},{"rt":2444,"stimulus":"\n\t\t\t\t\t<div>\n\t\t\t\t\t<h2>Trial 17 is over</h2>\n\t\t\t\t\t<p>Press <span style=\"color: red\"><strong>any key</strong></span> to continue to the next trial</p>\n\t\t\t\t\t</div>\n\t\t\t\t","response":" ","trial_type":"html-keyboard-response","trial_index":73,"time_elapsed":562037,"internal_node_id":"0.0-3.0-3.16","prolific_id":"5ae5b7e26735bd0001d7dfe3","session_id":"643c252dc59b04c011384289","study_id":"64370a36d30bfa807bc7e43c"},{"rt":6593,"response":{"prediction":"1200"},"trial_type":"survey-text","trial_index":74,"time_elapsed":568639,"internal_node_id":"0.0-3.0-0.17","prolific_id":"5ae5b7e26735bd0001d7dfe3","session_id":"643c252dc59b04c011384289","study_id":"64370a36d30bfa807bc7e43c"},{"rt":5660,"response":{"prior knowledge":3,"curiosity":5},"accuracy":[],"trial_type":"survey","trial_index":75,"time_elapsed":574369,"internal_node_id":"0.0-3.0-1.17","prolific_id":"5ae5b7e26735bd0001d7dfe3","session_id":"643c252dc59b04c011384289","study_id":"64370a36d30bfa807bc7e43c"},{"rt":null,"stimulus":"\n\t\t\t<div class=\"flip_card\">\n\t\t\t\t<div class=\"flip_card_inner\">\n\t\t\t\t\t<div class=\"flip_card_front\">\n\t\t\t\t\t\t<img src=img/30.png>\n\t\t\t\t\t</div>\n\t\t\t\t\t<div class=\"flip_card_back\">\n\t\t\t\t\t\t<h2>How long is the Great Wall of China (in miles)?</h2>\n\t\t\t\t\t\t<br>\n\t\t\t\t\t\t<p>Answer: <strong>13171</strong></p>\n\t\t\t\t\t</div>\n\t\t\t\t</div>\n\t\t\t</div>\n\t\t\t","response":null,"trial_type":"html-keyboard-response","trial_index":76,"time_elapsed":579374,"internal_node_id":"0.0-3.0-2.17","prolific_id":"5ae5b7e26735bd0001d7dfe3","session_id":"643c252dc59b04c011384289","study_id":"64370a36d30bfa807bc7e43c"},{"rt":2411,"stimulus":"\n\t\t\t\t\t<div>\n\t\t\t\t\t<h2>Trial 18 is over</h2>\n\t\t\t\t\t<p>Press <span style=\"color: red\"><strong>any key</strong></span> to continue to the next trial</p>\n\t\t\t\t\t</div>\n\t\t\t\t","response":" ","trial_type":"html-keyboard-response","trial_index":77,"time_elapsed":581788,"internal_node_id":"0.0-3.0-3.17","prolific_id":"5ae5b7e26735bd0001d7dfe3","session_id":"643c252dc59b04c011384289","study_id":"64370a36d30bfa807bc7e43c"},{"rt":8466,"response":{"prediction":"3"},"trial_type":"survey-text","trial_index":78,"time_elapsed":590263,"internal_node_id":"0.0-3.0-0.18","prolific_id":"5ae5b7e26735bd0001d7dfe3","session_id":"643c252dc59b04c011384289","study_id":"64370a36d30bfa807bc7e43c"},{"rt":4345,"response":{"prior knowledge":1,"curiosity":5},"accuracy":[],"trial_type":"survey","trial_index":79,"time_elapsed":594701,"internal_node_id":"0.0-3.0-1.18","prolific_id":"5ae5b7e26735bd0001d7dfe3","session_id":"643c252dc59b04c011384289","study_id":"64370a36d30bfa807bc7e43c"},{"rt":null,"stimulus":"\n\t\t\t<div class=\"flip_card\">\n\t\t\t\t<div class=\"flip_card_inner\">\n\t\t\t\t\t<div class=\"flip_card_front\">\n\t\t\t\t\t\t<img src=img/4.png>\n\t\t\t\t\t</div>\n\t\t\t\t\t<div class=\"flip_card_back\">\n\t\t\t\t\t\t<h2>How many moons does Neptune have?</h2>\n\t\t\t\t\t\t<br>\n\t\t\t\t\t\t<p>Answer: <strong>14</strong></p>\n\t\t\t\t\t</div>\n\t\t\t\t</div>\n\t\t\t</div>\n\t\t\t","response":null,"trial_type":"html-keyboard-response","trial_index":80,"time_elapsed":599706,"internal_node_id":"0.0-3.0-2.18","prolific_id":"5ae5b7e26735bd0001d7dfe3","session_id":"643c252dc59b04c011384289","study_id":"64370a36d30bfa807bc7e43c"},{"rt":1697,"stimulus":"\n\t\t\t\t\t<div>\n\t\t\t\t\t<h2>Trial 19 is over</h2>\n\t\t\t\t\t<p>Press <span style=\"color: red\"><strong>any key</strong></span> to continue to the next trial</p>\n\t\t\t\t\t</div>\n\t\t\t\t","response":" ","trial_type":"html-keyboard-response","trial_index":81,"time_elapsed":601407,"internal_node_id":"0.0-3.0-3.18","prolific_id":"5ae5b7e26735bd0001d7dfe3","session_id":"643c252dc59b04c011384289","study_id":"64370a36d30bfa807bc7e43c"},{"rt":5534,"response":{"prediction":"6"},"trial_type":"survey-text","trial_index":82,"time_elapsed":606951,"internal_node_id":"0.0-3.0-0.19","prolific_id":"5ae5b7e26735bd0001d7dfe3","session_id":"643c252dc59b04c011384289","study_id":"64370a36d30bfa807bc7e43c"},{"rt":4673,"response":{"prior knowledge":4,"curiosity":4},"accuracy":[],"trial_type":"survey","trial_index":83,"time_elapsed":611690,"internal_node_id":"0.0-3.0-1.19","prolific_id":"5ae5b7e26735bd0001d7dfe3","session_id":"643c252dc59b04c011384289","study_id":"64370a36d30bfa807bc7e43c"},{"rt":null,"stimulus":"\n\t\t\t<div class=\"flip_card\">\n\t\t\t\t<div class=\"flip_card_inner\">\n\t\t\t\t\t<div class=\"flip_card_front\">\n\t\t\t\t\t\t<img src=img/14.png>\n\t\t\t\t\t</div>\n\t\t\t\t\t<div class=\"flip_card_back\">\n\t\t\t\t\t\t<h2>How many lines are in a sonnet?</h2>\n\t\t\t\t\t\t<br>\n\t\t\t\t\t\t<p>Answer: <strong>14</strong></p>\n\t\t\t\t\t</div>\n\t\t\t\t</div>\n\t\t\t</div>\n\t\t\t","response":null,"trial_type":"html-keyboard-response","trial_index":84,"time_elapsed":616695,"internal_node_id":"0.0-3.0-2.19","prolific_id":"5ae5b7e26735bd0001d7dfe3","session_id":"643c252dc59b04c011384289","study_id":"64370a36d30bfa807bc7e43c"},{"rt":986,"stimulus":"\n\t\t\t\t\t<div>\n\t\t\t\t\t<h2>Trial 20 is over</h2>\n\t\t\t\t\t<p>Press <span style=\"color: red\"><strong>any key</strong></span> to continue to the next trial</p>\n\t\t\t\t\t</div>\n\t\t\t\t","response":" ","trial_type":"html-keyboard-response","trial_index":85,"time_elapsed":617684,"internal_node_id":"0.0-3.0-3.19","prolific_id":"5ae5b7e26735bd0001d7dfe3","session_id":"643c252dc59b04c011384289","study_id":"64370a36d30bfa807bc7e43c"},{"rt":7176,"response":{"prediction":"1986"},"trial_type":"survey-text","trial_index":86,"time_elapsed":624873,"internal_node_id":"0.0-3.0-0.20","prolific_id":"5ae5b7e26735bd0001d7dfe3","session_id":"643c252dc59b04c011384289","study_id":"64370a36d30bfa807bc7e43c"},{"rt":6165,"response":{"prior knowledge":2,"curiosity":4},"accuracy":[],"trial_type":"survey","trial_index":87,"time_elapsed":631096,"internal_node_id":"0.0-3.0-1.20","prolific_id":"5ae5b7e26735bd0001d7dfe3","session_id":"643c252dc59b04c011384289","study_id":"64370a36d30bfa807bc7e43c"},{"rt":null,"stimulus":"\n\t\t\t<div class=\"flip_card\">\n\t\t\t\t<div class=\"flip_card_inner\">\n\t\t\t\t\t<div class=\"flip_card_front\">\n\t\t\t\t\t\t<img src=img/29.png>\n\t\t\t\t\t</div>\n\t\t\t\t\t<div class=\"flip_card_back\">\n\t\t\t\t\t\t<h2>What year did the Berlin Wall fall?</h2>\n\t\t\t\t\t\t<br>\n\t\t\t\t\t\t<p>Answer: <strong>1989</strong></p>\n\t\t\t\t\t</div>\n\t\t\t\t</div>\n\t\t\t</div>\n\t\t\t","response":null,"trial_type":"html-keyboard-response","trial_index":88,"time_elapsed":636101,"internal_node_id":"0.0-3.0-2.20","prolific_id":"5ae5b7e26735bd0001d7dfe3","session_id":"643c252dc59b04c011384289","study_id":"64370a36d30bfa807bc7e43c"},{"rt":1388,"stimulus":"\n\t\t\t\t\t<div>\n\t\t\t\t\t<h2>Trial 21 is over</h2>\n\t\t\t\t\t<p>Press <span style=\"color: red\"><strong>any key</strong></span> to continue to the next trial</p>\n\t\t\t\t\t</div>\n\t\t\t\t","response":" ","trial_type":"html-keyboard-response","trial_index":89,"time_elapsed":637494,"internal_node_id":"0.0-3.0-3.20","prolific_id":"5ae5b7e26735bd0001d7dfe3","session_id":"643c252dc59b04c011384289","study_id":"64370a36d30bfa807bc7e43c"},{"rt":8632,"response":{"prediction":"50"},"trial_type":"survey-text","trial_index":90,"time_elapsed":646138,"internal_node_id":"0.0-3.0-0.21","prolific_id":"5ae5b7e26735bd0001d7dfe3","session_id":"643c252dc59b04c011384289","study_id":"64370a36d30bfa807bc7e43c"},{"rt":4842,"response":{"prior knowledge":3,"curiosity":4},"accuracy":[],"trial_type":"survey","trial_index":91,"time_elapsed":651102,"internal_node_id":"0.0-3.0-1.21","prolific_id":"5ae5b7e26735bd0001d7dfe3","session_id":"643c252dc59b04c011384289","study_id":"64370a36d30bfa807bc7e43c"},{"rt":null,"stimulus":"\n\t\t\t<div class=\"flip_card\">\n\t\t\t\t<div class=\"flip_card_inner\">\n\t\t\t\t\t<div class=\"flip_card_front\">\n\t\t\t\t\t\t<img src=img/21.png>\n\t\t\t\t\t</div>\n\t\t\t\t\t<div class=\"flip_card_back\">\n\t\t\t\t\t\t<h2>How many double stitches does a baseball have?</h2>\n\t\t\t\t\t\t<br>\n\t\t\t\t\t\t<p>Answer: <strong>108</strong></p>\n\t\t\t\t\t</div>\n\t\t\t\t</div>\n\t\t\t</div>\n\t\t\t","response":null,"trial_type":"html-keyboard-response","trial_index":92,"time_elapsed":656108,"internal_node_id":"0.0-3.0-2.21","prolific_id":"5ae5b7e26735bd0001d7dfe3","session_id":"643c252dc59b04c011384289","study_id":"64370a36d30bfa807bc7e43c"},{"rt":1017,"stimulus":"\n\t\t\t\t\t<div>\n\t\t\t\t\t<h2>Trial 22 is over</h2>\n\t\t\t\t\t<p>Press <span style=\"color: red\"><strong>any key</strong></span> to continue to the next trial</p>\n\t\t\t\t\t</div>\n\t\t\t\t","response":" ","trial_type":"html-keyboard-response","trial_index":93,"time_elapsed":657146,"internal_node_id":"0.0-3.0-3.21","prolific_id":"5ae5b7e26735bd0001d7dfe3","session_id":"643c252dc59b04c011384289","study_id":"64370a36d30bfa807bc7e43c"},{"rt":4777,"response":{"prediction":"13"},"trial_type":"survey-text","trial_index":94,"time_elapsed":661944,"internal_node_id":"0.0-3.0-0.22","prolific_id":"5ae5b7e26735bd0001d7dfe3","session_id":"643c252dc59b04c011384289","study_id":"64370a36d30bfa807bc7e43c"},{"rt":5903,"response":{"prior knowledge":5,"curiosity":1},"accuracy":[],"trial_type":"survey","trial_index":95,"time_elapsed":667912,"internal_node_id":"0.0-3.0-1.22","prolific_id":"5ae5b7e26735bd0001d7dfe3","session_id":"643c252dc59b04c011384289","study_id":"64370a36d30bfa807bc7e43c"},{"rt":null,"stimulus":"\n\t\t\t<div class=\"flip_card\">\n\t\t\t\t<div class=\"flip_card_inner\">\n\t\t\t\t\t<div class=\"flip_card_front\">\n\t\t\t\t\t\t<img src=img/27.png>\n\t\t\t\t\t</div>\n\t\t\t\t\t<div class=\"flip_card_back\">\n\t\t\t\t\t\t<h2>A bar mitzvah is traditionally celebrated when Jewish males turn what age?</h2>\n\t\t\t\t\t\t<br>\n\t\t\t\t\t\t<p>Answer: <strong>13</strong></p>\n\t\t\t\t\t</div>\n\t\t\t\t</div>\n\t\t\t</div>\n\t\t\t","response":null,"trial_type":"html-keyboard-response","trial_index":96,"time_elapsed":672917,"internal_node_id":"0.0-3.0-2.22","prolific_id":"5ae5b7e26735bd0001d7dfe3","session_id":"643c252dc59b04c011384289","study_id":"64370a36d30bfa807bc7e43c"},{"rt":909,"stimulus":"\n\t\t\t\t\t<div>\n\t\t\t\t\t<h2>Trial 23 is over</h2>\n\t\t\t\t\t<p>Press <span style=\"color: red\"><strong>any key</strong></span> to continue to the next trial</p>\n\t\t\t\t\t</div>\n\t\t\t\t","response":" ","trial_type":"html-keyboard-response","trial_index":97,"time_elapsed":673831,"internal_node_id":"0.0-3.0-3.22","prolific_id":"5ae5b7e26735bd0001d7dfe3","session_id":"643c252dc59b04c011384289","study_id":"64370a36d30bfa807bc7e43c"},{"rt":12478,"response":{"prediction":"20"},"trial_type":"survey-text","trial_index":98,"time_elapsed":686320,"internal_node_id":"0.0-3.0-0.23","prolific_id":"5ae5b7e26735bd0001d7dfe3","session_id":"643c252dc59b04c011384289","study_id":"64370a36d30bfa807bc7e43c"},{"rt":5040,"response":{"prior knowledge":3,"curiosity":4},"accuracy":[],"trial_type":"survey","trial_index":99,"time_elapsed":691426,"internal_node_id":"0.0-3.0-1.23","prolific_id":"5ae5b7e26735bd0001d7dfe3","session_id":"643c252dc59b04c011384289","study_id":"64370a36d30bfa807bc7e43c"},{"rt":null,"stimulus":"\n\t\t\t<div class=\"flip_card\">\n\t\t\t\t<div class=\"flip_card_inner\">\n\t\t\t\t\t<div class=\"flip_card_front\">\n\t\t\t\t\t\t<img src=img/26.png>\n\t\t\t\t\t</div>\n\t\t\t\t\t<div class=\"flip_card_back\">\n\t\t\t\t\t\t<h2>How many people are vegan globally (in millions)?</h2>\n\t\t\t\t\t\t<br>\n\t\t\t\t\t\t<p>Answer: <strong>79</strong></p>\n\t\t\t\t\t</div>\n\t\t\t\t</div>\n\t\t\t</div>\n\t\t\t","response":null,"trial_type":"html-keyboard-response","trial_index":100,"time_elapsed":696431,"internal_node_id":"0.0-3.0-2.23","prolific_id":"5ae5b7e26735bd0001d7dfe3","session_id":"643c252dc59b04c011384289","study_id":"64370a36d30bfa807bc7e43c"},{"rt":2376,"stimulus":"\n\t\t\t\t\t<div>\n\t\t\t\t\t<h2>Trial 24 is over</h2>\n\t\t\t\t\t<p>Press <span style=\"color: red\"><strong>any key</strong></span> to continue to the next trial</p>\n\t\t\t\t\t</div>\n\t\t\t\t","response":" ","trial_type":"html-keyboard-response","trial_index":101,"time_elapsed":698810,"internal_node_id":"0.0-3.0-3.23","prolific_id":"5ae5b7e26735bd0001d7dfe3","session_id":"643c252dc59b04c011384289","study_id":"64370a36d30bfa807bc7e43c"},{"rt":5253,"response":{"prediction":"210"},"trial_type":"survey-text","trial_index":102,"time_elapsed":704071,"internal_node_id":"0.0-3.0-0.24","prolific_id":"5ae5b7e26735bd0001d7dfe3","session_id":"643c252dc59b04c011384289","study_id":"64370a36d30bfa807bc7e43c"},{"rt":5410,"response":{"prior knowledge":1,"curiosity":3},"accuracy":[],"trial_type":"survey","trial_index":103,"time_elapsed":709537,"internal_node_id":"0.0-3.0-1.24","prolific_id":"5ae5b7e26735bd0001d7dfe3","session_id":"643c252dc59b04c011384289","study_id":"64370a36d30bfa807bc7e43c"},{"rt":null,"stimulus":"\n\t\t\t<div class=\"flip_card\">\n\t\t\t\t<div class=\"flip_card_inner\">\n\t\t\t\t\t<div class=\"flip_card_front\">\n\t\t\t\t\t\t<img src=img/6.png>\n\t\t\t\t\t</div>\n\t\t\t\t\t<div class=\"flip_card_back\">\n\t\t\t\t\t\t<h2>How many bones is a human baby born with?</h2>\n\t\t\t\t\t\t<br>\n\t\t\t\t\t\t<p>Answer: <strong>300</strong></p>\n\t\t\t\t\t</div>\n\t\t\t\t</div>\n\t\t\t</div>\n\t\t\t","response":null,"trial_type":"html-keyboard-response","trial_index":104,"time_elapsed":714541,"internal_node_id":"0.0-3.0-2.24","prolific_id":"5ae5b7e26735bd0001d7dfe3","session_id":"643c252dc59b04c011384289","study_id":"64370a36d30bfa807bc7e43c"},{"rt":839,"stimulus":"\n\t\t\t\t\t<div>\n\t\t\t\t\t<h2>Trial 25 is over</h2>\n\t\t\t\t\t<p>Press <span style=\"color: red\"><strong>any key</strong></span> to continue to the next trial</p>\n\t\t\t\t\t</div>\n\t\t\t\t","response":" ","trial_type":"html-keyboard-response","trial_index":105,"time_elapsed":715385,"internal_node_id":"0.0-3.0-3.24","prolific_id":"5ae5b7e26735bd0001d7dfe3","session_id":"643c252dc59b04c011384289","study_id":"64370a36d30bfa807bc7e43c"},{"rt":5740,"response":{"prediction":"1912"},"trial_type":"survey-text","trial_index":106,"time_elapsed":721132,"internal_node_id":"0.0-3.0-0.25","prolific_id":"5ae5b7e26735bd0001d7dfe3","session_id":"643c252dc59b04c011384289","study_id":"64370a36d30bfa807bc7e43c"},{"rt":5328,"response":{"prior knowledge":3,"curiosity":4},"accuracy":[],"trial_type":"survey","trial_index":107,"time_elapsed":726514,"internal_node_id":"0.0-3.0-1.25","prolific_id":"5ae5b7e26735bd0001d7dfe3","session_id":"643c252dc59b04c011384289","study_id":"64370a36d30bfa807bc7e43c"},{"rt":null,"stimulus":"\n\t\t\t<div class=\"flip_card\">\n\t\t\t\t<div class=\"flip_card_inner\">\n\t\t\t\t\t<div class=\"flip_card_front\">\n\t\t\t\t\t\t<img src=img/17.png>\n\t\t\t\t\t</div>\n\t\t\t\t\t<div class=\"flip_card_back\">\n\t\t\t\t\t\t<h2>What year did the titanic sink?</h2>\n\t\t\t\t\t\t<br>\n\t\t\t\t\t\t<p>Answer: <strong>1912</strong></p>\n\t\t\t\t\t</div>\n\t\t\t\t</div>\n\t\t\t</div>\n\t\t\t","response":null,"trial_type":"html-keyboard-response","trial_index":108,"time_elapsed":731520,"internal_node_id":"0.0-3.0-2.25","prolific_id":"5ae5b7e26735bd0001d7dfe3","session_id":"643c252dc59b04c011384289","study_id":"64370a36d30bfa807bc7e43c"},{"rt":972,"stimulus":"\n\t\t\t\t\t<div>\n\t\t\t\t\t<h2>Trial 26 is over</h2>\n\t\t\t\t\t<p>Press <span style=\"color: red\"><strong>any key</strong></span> to continue to the next trial</p>\n\t\t\t\t\t</div>\n\t\t\t\t","response":" ","trial_type":"html-keyboard-response","trial_index":109,"time_elapsed":732495,"internal_node_id":"0.0-3.0-3.25","prolific_id":"5ae5b7e26735bd0001d7dfe3","session_id":"643c252dc59b04c011384289","study_id":"64370a36d30bfa807bc7e43c"},{"rt":7246,"response":{"prediction":"70"},"trial_type":"survey-text","trial_index":110,"time_elapsed":739747,"internal_node_id":"0.0-3.0-0.26","prolific_id":"5ae5b7e26735bd0001d7dfe3","session_id":"643c252dc59b04c011384289","study_id":"64370a36d30bfa807bc7e43c"},{"rt":4317,"response":{"prior knowledge":4,"curiosity":4},"accuracy":[],"trial_type":"survey","trial_index":111,"time_elapsed":744133,"internal_node_id":"0.0-3.0-1.26","prolific_id":"5ae5b7e26735bd0001d7dfe3","session_id":"643c252dc59b04c011384289","study_id":"64370a36d30bfa807bc7e43c"},{"rt":null,"stimulus":"\n\t\t\t<div class=\"flip_card\">\n\t\t\t\t<div class=\"flip_card_inner\">\n\t\t\t\t\t<div class=\"flip_card_front\">\n\t\t\t\t\t\t<img src=img/5.png>\n\t\t\t\t\t</div>\n\t\t\t\t\t<div class=\"flip_card_back\">\n\t\t\t\t\t\t<h2>How many books are in the Catholic Bible?</h2>\n\t\t\t\t\t\t<br>\n\t\t\t\t\t\t<p>Answer: <strong>73</strong></p>\n\t\t\t\t\t</div>\n\t\t\t\t</div>\n\t\t\t</div>\n\t\t\t","response":null,"trial_type":"html-keyboard-response","trial_index":112,"time_elapsed":749139,"internal_node_id":"0.0-3.0-2.26","prolific_id":"5ae5b7e26735bd0001d7dfe3","session_id":"643c252dc59b04c011384289","study_id":"64370a36d30bfa807bc7e43c"},{"rt":1033,"stimulus":"\n\t\t\t\t\t<div>\n\t\t\t\t\t<h2>Trial 27 is over</h2>\n\t\t\t\t\t<p>Press <span style=\"color: red\"><strong>any key</strong></span> to continue to the next trial</p>\n\t\t\t\t\t</div>\n\t\t\t\t","response":" ","trial_type":"html-keyboard-response","trial_index":113,"time_elapsed":750173,"internal_node_id":"0.0-3.0-3.26","prolific_id":"5ae5b7e26735bd0001d7dfe3","session_id":"643c252dc59b04c011384289","study_id":"64370a36d30bfa807bc7e43c"},{"rt":4337,"response":{"prediction":"36"},"trial_type":"survey-text","trial_index":114,"time_elapsed":754518,"internal_node_id":"0.0-3.0-0.27","prolific_id":"5ae5b7e26735bd0001d7dfe3","session_id":"643c252dc59b04c011384289","study_id":"64370a36d30bfa807bc7e43c"},{"rt":4903,"response":{"prior knowledge":5,"curiosity":5},"accuracy":[],"trial_type":"survey","trial_index":115,"time_elapsed":759485,"internal_node_id":"0.0-3.0-1.27","prolific_id":"5ae5b7e26735bd0001d7dfe3","session_id":"643c252dc59b04c011384289","study_id":"64370a36d30bfa807bc7e43c"},{"rt":null,"stimulus":"\n\t\t\t<div class=\"flip_card\">\n\t\t\t\t<div class=\"flip_card_inner\">\n\t\t\t\t\t<div class=\"flip_card_front\">\n\t\t\t\t\t\t<img src=img/1.png>\n\t\t\t\t\t</div>\n\t\t\t\t\t<div class=\"flip_card_back\">\n\t\t\t\t\t\t<h2>How many constellations are there?</h2>\n\t\t\t\t\t\t<br>\n\t\t\t\t\t\t<p>Answer: <strong>88</strong></p>\n\t\t\t\t\t</div>\n\t\t\t\t</div>\n\t\t\t</div>\n\t\t\t","response":null,"trial_type":"html-keyboard-response","trial_index":116,"time_elapsed":764492,"internal_node_id":"0.0-3.0-2.27","prolific_id":"5ae5b7e26735bd0001d7dfe3","session_id":"643c252dc59b04c011384289","study_id":"64370a36d30bfa807bc7e43c"},{"rt":885,"stimulus":"\n\t\t\t\t\t<div>\n\t\t\t\t\t<h2>Trial 28 is over</h2>\n\t\t\t\t\t<p>Press <span style=\"color: red\"><strong>any key</strong></span> to continue to the next trial</p>\n\t\t\t\t\t</div>\n\t\t\t\t","response":" ","trial_type":"html-keyboard-response","trial_index":117,"time_elapsed":765381,"internal_node_id":"0.0-3.0-3.27","prolific_id":"5ae5b7e26735bd0001d7dfe3","session_id":"643c252dc59b04c011384289","study_id":"64370a36d30bfa807bc7e43c"},{"rt":5393,"response":{"prediction":"3"},"trial_type":"survey-text","trial_index":118,"time_elapsed":770782,"internal_node_id":"0.0-3.0-0.28","prolific_id":"5ae5b7e26735bd0001d7dfe3","session_id":"643c252dc59b04c011384289","study_id":"64370a36d30bfa807bc7e43c"},{"rt":6067,"response":{"prior knowledge":0,"curiosity":4},"accuracy":[],"trial_type":"survey","trial_index":119,"time_elapsed":776910,"internal_node_id":"0.0-3.0-1.28","prolific_id":"5ae5b7e26735bd0001d7dfe3","session_id":"643c252dc59b04c011384289","study_id":"64370a36d30bfa807bc7e43c"},{"rt":null,"stimulus":"\n\t\t\t<div class=\"flip_card\">\n\t\t\t\t<div class=\"flip_card_inner\">\n\t\t\t\t\t<div class=\"flip_card_front\">\n\t\t\t\t\t\t<img src=img/15.png>\n\t\t\t\t\t</div>\n\t\t\t\t\t<div class=\"flip_card_back\">\n\t\t\t\t\t\t<h2>How many main islands make up Japan?</h2>\n\t\t\t\t\t\t<br>\n\t\t\t\t\t\t<p>Answer: <strong>4</strong></p>\n\t\t\t\t\t</div>\n\t\t\t\t</div>\n\t\t\t</div>\n\t\t\t","response":null,"trial_type":"html-keyboard-response","trial_index":120,"time_elapsed":781916,"internal_node_id":"0.0-3.0-2.28","prolific_id":"5ae5b7e26735bd0001d7dfe3","session_id":"643c252dc59b04c011384289","study_id":"64370a36d30bfa807bc7e43c"},{"rt":1302,"stimulus":"\n\t\t\t\t\t<div>\n\t\t\t\t\t<h2>Trial 29 is over</h2>\n\t\t\t\t\t<p>Press <span style=\"color: red\"><strong>any key</strong></span> to continue to the next trial</p>\n\t\t\t\t\t</div>\n\t\t\t\t","response":" ","trial_type":"html-keyboard-response","trial_index":121,"time_elapsed":783222,"internal_node_id":"0.0-3.0-3.28","prolific_id":"5ae5b7e26735bd0001d7dfe3","session_id":"643c252dc59b04c011384289","study_id":"64370a36d30bfa807bc7e43c"},{"rt":7486,"response":{"prediction":"8"},"trial_type":"survey-text","trial_index":122,"time_elapsed":790719,"internal_node_id":"0.0-3.0-0.29","prolific_id":"5ae5b7e26735bd0001d7dfe3","session_id":"643c252dc59b04c011384289","study_id":"64370a36d30bfa807bc7e43c"},{"rt":5738,"response":{"prior knowledge":0,"curiosity":5},"accuracy":[],"trial_type":"survey","trial_index":123,"time_elapsed":796513,"internal_node_id":"0.0-3.0-1.29","prolific_id":"5ae5b7e26735bd0001d7dfe3","session_id":"643c252dc59b04c011384289","study_id":"64370a36d30bfa807bc7e43c"},{"rt":null,"stimulus":"\n\t\t\t<div class=\"flip_card\">\n\t\t\t\t<div class=\"flip_card_inner\">\n\t\t\t\t\t<div class=\"flip_card_front\">\n\t\t\t\t\t\t<img src=img/19.png>\n\t\t\t\t\t</div>\n\t\t\t\t\t<div class=\"flip_card_back\">\n\t\t\t\t\t\t<h2>How many soccer players should each team have on the field at the start of each match?</h2>\n\t\t\t\t\t\t<br>\n\t\t\t\t\t\t<p>Answer: <strong>11</strong></p>\n\t\t\t\t\t</div>\n\t\t\t\t</div>\n\t\t\t</div>\n\t\t\t","response":null,"trial_type":"html-keyboard-response","trial_index":124,"time_elapsed":801518,"internal_node_id":"0.0-3.0-2.29","prolific_id":"5ae5b7e26735bd0001d7dfe3","session_id":"643c252dc59b04c011384289","study_id":"64370a36d30bfa807bc7e43c"},{"rt":1244,"stimulus":"\n\t\t\t\t\t<div>\n\t\t\t\t\t<h2>Trial 30 is over</h2>\n\t\t\t\t\t<p>Press <span style=\"color: red\"><strong>any key</strong></span> to continue to the next trial</p>\n\t\t\t\t\t</div>\n\t\t\t\t","response":" ","trial_type":"html-keyboard-response","trial_index":125,"time_elapsed":802767,"internal_node_id":"0.0-3.0-3.29","prolific_id":"5ae5b7e26735bd0001d7dfe3","session_id":"643c252dc59b04c011384289","study_id":"64370a36d30bfa807bc7e43c"},{"rt":null,"stimulus":"\n\t\t\t<h2>Good job! You've finished the 30 trials:p</h2>\n\t\t\t<p>In the next session, you will see two cards on the screen in each trial.</p>\n\t\t\t<p>On one card is a pattern that you have seen before in the experiment,\n\t\t\t\tand on the other card is one you have not seen.</p><br>\n\t\t\t<p>Your task is to choose the one you think you <em>have</em> seen before for every trial.</p>\n\t\t\t<p>Press '<span style=\"color: red;\"><strong>F</strong></span>' to choose the card on the left,\n\t\t\t\tand '<span style=\"color: red;\"><strong>J</strong></span>' to choose the card on the right.</p>\n\t\t\t<p>Have fun!</p>\n\t\t\t<br>\n\t\t\t<p>The trials will begin in 30 seconds</p>\n\t\t\t","response":null,"trial_type":"html-keyboard-response","trial_index":126,"time_elapsed":832771,"internal_node_id":"0.0-4.0","prolific_id":"5ae5b7e26735bd0001d7dfe3","session_id":"643c252dc59b04c011384289","study_id":"64370a36d30bfa807bc7e43c"},{"rt":2834,"stimulus":"\n\t\t\t\t\t\t<div class=\"two_card_container\">\n\t\t\t\t\t\t<div class=\"card_container\">\n\t\t\t\t\t\t<img src=img/4.png>\n\t\t\t\t\t\t</div>\n\n\t\t\t\t\t\t<div class=\"card_container\">\n\t\t\t\t\t\t<img src=img/38.png>\n\t\t\t\t\t\t</div>","response":"f","task":"response","correct_response":"f","trial_type":"html-keyboard-response","trial_index":127,"time_elapsed":835613,"internal_node_id":"0.0-5.0-0.0","prolific_id":"5ae5b7e26735bd0001d7dfe3","session_id":"643c252dc59b04c011384289","study_id":"64370a36d30bfa807bc7e43c","correct":true},{"rt":null,"stimulus":"\n\t\t\t\t\t<p>Correct!</p>\n\t\t\t\t\t","response":null,"trial_type":"html-keyboard-response","trial_index":128,"time_elapsed":836615,"internal_node_id":"0.0-5.0-1.0","prolific_id":"5ae5b7e26735bd0001d7dfe3","session_id":"643c252dc59b04c011384289","study_id":"64370a36d30bfa807bc7e43c"},{"rt":2753,"stimulus":"\n\t\t\t\t\t\t<div class=\"two_card_container\">\n\t\t\t\t\t\t<div class=\"card_container\">\n\t\t\t\t\t\t<img src=img/39.png>\n\t\t\t\t\t\t</div>\n\n\t\t\t\t\t\t<div class=\"card_container\">\n\t\t\t\t\t\t<img src=img/21.png>\n\t\t\t\t\t\t</div>","response":"j","task":"response","correct_response":"j","trial_type":"html-keyboard-response","trial_index":129,"time_elapsed":839372,"internal_node_id":"0.0-5.0-0.1","prolific_id":"5ae5b7e26735bd0001d7dfe3","session_id":"643c252dc59b04c011384289","study_id":"64370a36d30bfa807bc7e43c","correct":true},{"rt":null,"stimulus":"\n\t\t\t\t\t<p>Correct!</p>\n\t\t\t\t\t","response":null,"trial_type":"html-keyboard-response","trial_index":130,"time_elapsed":840376,"internal_node_id":"0.0-5.0-1.1","prolific_id":"5ae5b7e26735bd0001d7dfe3","session_id":"643c252dc59b04c011384289","study_id":"64370a36d30bfa807bc7e43c"},{"rt":3149,"stimulus":"\n\t\t\t\t\t\t<div class=\"two_card_container\">\n\t\t\t\t\t\t<div class=\"card_container\">\n\t\t\t\t\t\t<img src=img/35.png>\n\t\t\t\t\t\t</div>\n\n\t\t\t\t\t\t<div class=\"card_container\">\n\t\t\t\t\t\t<img src=img/3.png>\n\t\t\t\t\t\t</div>","response":"j","task":"response","correct_response":"j","trial_type":"html-keyboard-response","trial_index":131,"time_elapsed":843534,"internal_node_id":"0.0-5.0-0.2","prolific_id":"5ae5b7e26735bd0001d7dfe3","session_id":"643c252dc59b04c011384289","study_id":"64370a36d30bfa807bc7e43c","correct":true},{"rt":null,"stimulus":"\n\t\t\t\t\t<p>Correct!</p>\n\t\t\t\t\t","response":null,"trial_type":"html-keyboard-response","trial_index":132,"time_elapsed":844539,"internal_node_id":"0.0-5.0-1.2","prolific_id":"5ae5b7e26735bd0001d7dfe3","session_id":"643c252dc59b04c011384289","study_id":"64370a36d30bfa807bc7e43c"},{"rt":1720,"stimulus":"\n\t\t\t\t\t\t<div class=\"two_card_container\">\n\t\t\t\t\t\t<div class=\"card_container\">\n\t\t\t\t\t\t<img src=img/15.png>\n\t\t\t\t\t\t</div>\n\n\t\t\t\t\t\t<div class=\"card_container\">\n\t\t\t\t\t\t<img src=img/34.png>\n\t\t\t\t\t\t</div>","response":"f","task":"response","correct_response":"f","trial_type":"html-keyboard-response","trial_index":133,"time_elapsed":846268,"internal_node_id":"0.0-5.0-0.3","prolific_id":"5ae5b7e26735bd0001d7dfe3","session_id":"643c252dc59b04c011384289","study_id":"64370a36d30bfa807bc7e43c","correct":true},{"rt":null,"stimulus":"\n\t\t\t\t\t<p>Correct!</p>\n\t\t\t\t\t","response":null,"trial_type":"html-keyboard-response","trial_index":134,"time_elapsed":847271,"internal_node_id":"0.0-5.0-1.3","prolific_id":"5ae5b7e26735bd0001d7dfe3","session_id":"643c252dc59b04c011384289","study_id":"64370a36d30bfa807bc7e43c"},{"rt":2510,"stimulus":"\n\t\t\t\t\t\t<div class=\"two_card_container\">\n\t\t\t\t\t\t<div class=\"card_container\">\n\t\t\t\t\t\t<img src=img/17.png>\n\t\t\t\t\t\t</div>\n\n\t\t\t\t\t\t<div class=\"card_container\">\n\t\t\t\t\t\t<img src=img/36.png>\n\t\t\t\t\t\t</div>","response":"f","task":"response","correct_response":"f","trial_type":"html-keyboard-response","trial_index":135,"time_elapsed":849788,"internal_node_id":"0.0-5.0-0.4","prolific_id":"5ae5b7e26735bd0001d7dfe3","session_id":"643c252dc59b04c011384289","study_id":"64370a36d30bfa807bc7e43c","correct":true},{"rt":null,"stimulus":"\n\t\t\t\t\t<p>Correct!</p>\n\t\t\t\t\t","response":null,"trial_type":"html-keyboard-response","trial_index":136,"time_elapsed":850792,"internal_node_id":"0.0-5.0-1.4","prolific_id":"5ae5b7e26735bd0001d7dfe3","session_id":"643c252dc59b04c011384289","study_id":"64370a36d30bfa807bc7e43c"},{"rt":3527,"stimulus":"\n\t\t\t\t\t\t<div class=\"two_card_container\">\n\t\t\t\t\t\t<div class=\"card_container\">\n\t\t\t\t\t\t<img src=img/31.png>\n\t\t\t\t\t\t</div>\n\n\t\t\t\t\t\t<div class=\"card_container\">\n\t\t\t\t\t\t<img src=img/19.png>\n\t\t\t\t\t\t</div>","response":"f","task":"response","correct_response":"j","trial_type":"html-keyboard-response","trial_index":137,"time_elapsed":854329,"internal_node_id":"0.0-5.0-0.5","prolific_id":"5ae5b7e26735bd0001d7dfe3","session_id":"643c252dc59b04c011384289","study_id":"64370a36d30bfa807bc7e43c","correct":false},{"rt":null,"stimulus":"\n\t\t\t\t\t<p>Wrong answer</p>\n\t\t\t\t\t","response":null,"trial_type":"html-keyboard-response","trial_index":138,"time_elapsed":855334,"internal_node_id":"0.0-5.0-1.5","prolific_id":"5ae5b7e26735bd0001d7dfe3","session_id":"643c252dc59b04c011384289","study_id":"64370a36d30bfa807bc7e43c"},{"rt":1943,"stimulus":"\n\t\t\t\t\t\t<div class=\"two_card_container\">\n\t\t\t\t\t\t<div class=\"card_container\">\n\t\t\t\t\t\t<img src=img/12.png>\n\t\t\t\t\t\t</div>\n\n\t\t\t\t\t\t<div class=\"card_container\">\n\t\t\t\t\t\t<img src=img/37.png>\n\t\t\t\t\t\t</div>","response":"f","task":"response","correct_response":"f","trial_type":"html-keyboard-response","trial_index":139,"time_elapsed":857284,"internal_node_id":"0.0-5.0-0.6","prolific_id":"5ae5b7e26735bd0001d7dfe3","session_id":"643c252dc59b04c011384289","study_id":"64370a36d30bfa807bc7e43c","correct":true},{"rt":null,"stimulus":"\n\t\t\t\t\t<p>Correct!</p>\n\t\t\t\t\t","response":null,"trial_type":"html-keyboard-response","trial_index":140,"time_elapsed":858288,"internal_node_id":"0.0-5.0-1.6","prolific_id":"5ae5b7e26735bd0001d7dfe3","session_id":"643c252dc59b04c011384289","study_id":"64370a36d30bfa807bc7e43c"},{"rt":1977,"stimulus":"\n\t\t\t\t\t\t<div class=\"two_card_container\">\n\t\t\t\t\t\t<div class=\"card_container\">\n\t\t\t\t\t\t<img src=img/40.png>\n\t\t\t\t\t\t</div>\n\n\t\t\t\t\t\t<div class=\"card_container\">\n\t\t\t\t\t\t<img src=img/28.png>\n\t\t\t\t\t\t</div>","response":"j","task":"response","correct_response":"j","trial_type":"html-keyboard-response","trial_index":141,"time_elapsed":860273,"internal_node_id":"0.0-5.0-0.7","prolific_id":"5ae5b7e26735bd0001d7dfe3","session_id":"643c252dc59b04c011384289","study_id":"64370a36d30bfa807bc7e43c","correct":true},{"rt":null,"stimulus":"\n\t\t\t\t\t<p>Correct!</p>\n\t\t\t\t\t","response":null,"trial_type":"html-keyboard-response","trial_index":142,"time_elapsed":861278,"internal_node_id":"0.0-5.0-1.7","prolific_id":"5ae5b7e26735bd0001d7dfe3","session_id":"643c252dc59b04c011384289","study_id":"64370a36d30bfa807bc7e43c"},{"rt":4108,"stimulus":"\n\t\t\t\t\t\t<div class=\"two_card_container\">\n\t\t\t\t\t\t<div class=\"card_container\">\n\t\t\t\t\t\t<img src=img/20.png>\n\t\t\t\t\t\t</div>\n\n\t\t\t\t\t\t<div class=\"card_container\">\n\t\t\t\t\t\t<img src=img/32.png>\n\t\t\t\t\t\t</div>","response":"j","task":"response","correct_response":"f","trial_type":"html-keyboard-response","trial_index":143,"time_elapsed":865394,"internal_node_id":"0.0-5.0-0.8","prolific_id":"5ae5b7e26735bd0001d7dfe3","session_id":"643c252dc59b04c011384289","study_id":"64370a36d30bfa807bc7e43c","correct":false},{"rt":null,"stimulus":"\n\t\t\t\t\t<p>Wrong answer</p>\n\t\t\t\t\t","response":null,"trial_type":"html-keyboard-response","trial_index":144,"time_elapsed":866397,"internal_node_id":"0.0-5.0-1.8","prolific_id":"5ae5b7e26735bd0001d7dfe3","session_id":"643c252dc59b04c011384289","study_id":"64370a36d30bfa807bc7e43c"},{"rt":1746,"stimulus":"\n\t\t\t\t\t\t<div class=\"two_card_container\">\n\t\t\t\t\t\t<div class=\"card_container\">\n\t\t\t\t\t\t<img src=img/33.png>\n\t\t\t\t\t\t</div>\n\n\t\t\t\t\t\t<div class=\"card_container\">\n\t\t\t\t\t\t<img src=img/22.png>\n\t\t\t\t\t\t</div>","response":"j","task":"response","correct_response":"j","trial_type":"html-keyboard-response","trial_index":145,"time_elapsed":868152,"internal_node_id":"0.0-5.0-0.9","prolific_id":"5ae5b7e26735bd0001d7dfe3","session_id":"643c252dc59b04c011384289","study_id":"64370a36d30bfa807bc7e43c","correct":true},{"rt":null,"stimulus":"\n\t\t\t\t\t<p>Correct!</p>\n\t\t\t\t\t","response":null,"trial_type":"html-keyboard-response","trial_index":146,"time_elapsed":869171,"internal_node_id":"0.0-5.0-1.9","prolific_id":"5ae5b7e26735bd0001d7dfe3","session_id":"643c252dc59b04c011384289","study_id":"64370a36d30bfa807bc7e43c"},{"rt":null,"stimulus":"\n\t\t\t<h2>Good job :p</h2>\n\t\t\t<p>In the next session, you will see a trivia question on the screen in each trial.</p>\n\t\t\t<p>Each of these trivia questions is chosen from the questions you have already seen in the first session of the experiment.</p><br>\n\t\t\t<p>Your task is to answer the trivia question based on what you remember as accurately as you can.</p>\n\t\t\t<p>Have fun!</p>\n\t\t\t<br>\n\t\t\t<p>The trials will begin in 30 seconds</p>\n\t\t\t","response":null,"trial_type":"html-keyboard-response","trial_index":147,"time_elapsed":899176,"internal_node_id":"0.0-6.0","prolific_id":"5ae5b7e26735bd0001d7dfe3","session_id":"643c252dc59b04c011384289","study_id":"64370a36d30bfa807bc7e43c"},{"rt":7511,"response":{"answer":"88"},"task":"response","correct_response":"54","trial_type":"survey-text","trial_index":148,"time_elapsed":906702,"internal_node_id":"0.0-7.0-0.0","prolific_id":"5ae5b7e26735bd0001d7dfe3","session_id":"643c252dc59b04c011384289","study_id":"64370a36d30bfa807bc7e43c","difference":63},{"rt":null,"stimulus":"<h2>The correct answer is 54.</h2><p>Your answer was different from the answer by 34.</p><p>Not even close... do better next time!</p>","response":null,"trial_type":"html-keyboard-response","trial_index":149,"time_elapsed":909210,"internal_node_id":"0.0-7.0-1.0","prolific_id":"5ae5b7e26735bd0001d7dfe3","session_id":"643c252dc59b04c011384289","study_id":"64370a36d30bfa807bc7e43c"},{"rt":4569,"response":{"answer":"2007"},"task":"response","correct_response":"2007","trial_type":"survey-text","trial_index":150,"time_elapsed":913793,"internal_node_id":"0.0-7.0-0.1","prolific_id":"5ae5b7e26735bd0001d7dfe3","session_id":"643c252dc59b04c011384289","study_id":"64370a36d30bfa807bc7e43c","difference":0},{"rt":null,"stimulus":"<h2>The correct answer is 2007.</h2><p>Your answer was different from the answer by 0.</p><p>You got the right answer. Amazing work!</p>","response":null,"trial_type":"html-keyboard-response","trial_index":151,"time_elapsed":916297,"internal_node_id":"0.0-7.0-1.1","prolific_id":"5ae5b7e26735bd0001d7dfe3","session_id":"643c252dc59b04c011384289","study_id":"64370a36d30bfa807bc7e43c"},{"rt":6444,"response":{"answer":"6"},"task":"response","correct_response":"4","trial_type":"survey-text","trial_index":152,"time_elapsed":922755,"internal_node_id":"0.0-7.0-0.2","prolific_id":"5ae5b7e26735bd0001d7dfe3","session_id":"643c252dc59b04c011384289","study_id":"64370a36d30bfa807bc7e43c","difference":50},{"rt":null,"stimulus":"<h2>The correct answer is 4.</h2><p>Your answer was different from the answer by 2.</p><p>Not the worst. Can you do better on the next?</p>","response":null,"trial_type":"html-keyboard-response","trial_index":153,"time_elapsed":925258,"internal_node_id":"0.0-7.0-1.2","prolific_id":"5ae5b7e26735bd0001d7dfe3","session_id":"643c252dc59b04c011384289","study_id":"64370a36d30bfa807bc7e43c"},{"rt":3258,"response":{"answer":"4"},"task":"response","correct_response":"4","trial_type":"survey-text","trial_index":154,"time_elapsed":928531,"internal_node_id":"0.0-7.0-0.3","prolific_id":"5ae5b7e26735bd0001d7dfe3","session_id":"643c252dc59b04c011384289","study_id":"64370a36d30bfa807bc7e43c","difference":0},{"rt":null,"stimulus":"<h2>The correct answer is 4.</h2><p>Your answer was different from the answer by 0.</p><p>You got the right answer. Amazing work!</p>","response":null,"trial_type":"html-keyboard-response","trial_index":155,"time_elapsed":931035,"internal_node_id":"0.0-7.0-1.3","prolific_id":"5ae5b7e26735bd0001d7dfe3","session_id":"643c252dc59b04c011384289","study_id":"64370a36d30bfa807bc7e43c"},{"rt":5482,"response":{"answer":"163"},"task":"response","correct_response":"163","trial_type":"survey-text","trial_index":156,"time_elapsed":936524,"internal_node_id":"0.0-7.0-0.4","prolific_id":"5ae5b7e26735bd0001d7dfe3","session_id":"643c252dc59b04c011384289","study_id":"64370a36d30bfa807bc7e43c","difference":0},{"rt":null,"stimulus":"<h2>The correct answer is 163.</h2><p>Your answer was different from the answer by 0.</p><p>You got the right answer. Amazing work!</p>","response":null,"trial_type":"html-keyboard-response","trial_index":157,"time_elapsed":939028,"internal_node_id":"0.0-7.0-1.4","prolific_id":"5ae5b7e26735bd0001d7dfe3","session_id":"643c252dc59b04c011384289","study_id":"64370a36d30bfa807bc7e43c"},{"rt":3799,"response":{"answer":"19"},"task":"response","correct_response":"19","trial_type":"survey-text","trial_index":158,"time_elapsed":942839,"internal_node_id":"0.0-7.0-0.5","prolific_id":"5ae5b7e26735bd0001d7dfe3","session_id":"643c252dc59b04c011384289","study_id":"64370a36d30bfa807bc7e43c","difference":0},{"rt":null,"stimulus":"<h2>The correct answer is 19.</h2><p>Your answer was different from the answer by 0.</p><p>You got the right answer. Amazing work!</p>","response":null,"trial_type":"html-keyboard-response","trial_index":159,"time_elapsed":945343,"internal_node_id":"0.0-7.0-1.5","prolific_id":"5ae5b7e26735bd0001d7dfe3","session_id":"643c252dc59b04c011384289","study_id":"64370a36d30bfa807bc7e43c"},{"rt":4665,"response":{"answer":"88"},"task":"response","correct_response":"21","trial_type":"survey-text","trial_index":160,"time_elapsed":950018,"internal_node_id":"0.0-7.0-0.6","prolific_id":"5ae5b7e26735bd0001d7dfe3","session_id":"643c252dc59b04c011384289","study_id":"64370a36d30bfa807bc7e43c","difference":100},{"rt":null,"stimulus":"<h2>The correct answer is 21.</h2><p>Your answer was different from the answer by 67.</p><p>Not even close... do better next time!</p>","response":null,"trial_type":"html-keyboard-response","trial_index":161,"time_elapsed":952525,"internal_node_id":"0.0-7.0-1.6","prolific_id":"5ae5b7e26735bd0001d7dfe3","session_id":"643c252dc59b04c011384289","study_id":"64370a36d30bfa807bc7e43c"},{"rt":4737,"response":{"answer":"12"},"task":"response","correct_response":"12","trial_type":"survey-text","trial_index":162,"time_elapsed":957273,"internal_node_id":"0.0-7.0-0.7","prolific_id":"5ae5b7e26735bd0001d7dfe3","session_id":"643c252dc59b04c011384289","study_id":"64370a36d30bfa807bc7e43c","difference":0},{"rt":null,"stimulus":"<h2>The correct answer is 12.</h2><p>Your answer was different from the answer by 0.</p><p>You got the right answer. Amazing work!</p>","response":null,"trial_type":"html-keyboard-response","trial_index":163,"time_elapsed":959780,"internal_node_id":"0.0-7.0-1.7","prolific_id":"5ae5b7e26735bd0001d7dfe3","session_id":"643c252dc59b04c011384289","study_id":"64370a36d30bfa807bc7e43c"},{"rt":4422,"response":{"answer":"28"},"task":"response","correct_response":"28","trial_type":"survey-text","trial_index":164,"time_elapsed":964213,"internal_node_id":"0.0-7.0-0.8","prolific_id":"5ae5b7e26735bd0001d7dfe3","session_id":"643c252dc59b04c011384289","study_id":"64370a36d30bfa807bc7e43c","difference":0},{"rt":null,"stimulus":"<h2>The correct answer is 28.</h2><p>Your answer was different from the answer by 0.</p><p>You got the right answer. Amazing work!</p>","response":null,"trial_type":"html-keyboard-response","trial_index":165,"time_elapsed":966716,"internal_node_id":"0.0-7.0-1.8","prolific_id":"5ae5b7e26735bd0001d7dfe3","session_id":"643c252dc59b04c011384289","study_id":"64370a36d30bfa807bc7e43c"},{"rt":3197,"response":{"answer":"14"},"task":"response","correct_response":"14","trial_type":"survey-text","trial_index":166,"time_elapsed":969922,"internal_node_id":"0.0-7.0-0.9","prolific_id":"5ae5b7e26735bd0001d7dfe3","session_id":"643c252dc59b04c011384289","study_id":"64370a36d30bfa807bc7e43c","difference":0},{"rt":null,"stimulus":"<h2>The correct answer is 14.</h2><p>Your answer was different from the answer by 0.</p><p>You got the right answer. Amazing work!</p>","response":null,"trial_type":"html-keyboard-response","trial_index":167,"time_elapsed":972425,"internal_node_id":"0.0-7.0-1.9","prolific_id":"5ae5b7e26735bd0001d7dfe3","session_id":"643c252dc59b04c011384289","study_id":"64370a36d30bfa807bc7e43c"}]