[{"success":true,"timeout":false,"failed_images":[],"failed_audio":[],"failed_video":[],"trial_type":"preload","trial_index":0,"time_elapsed":6969,"internal_node_id":"0.0-0.0","prolific_id":"5ba854ed7c0ebe0001272f2d","session_id":"643c24d9f0190e599219754d","study_id":"64370a36d30bfa807bc7e43c"},{"rt":28113,"stimulus":"\n\t\t\t\t\t<p>Welcome and thank you for participating in this study!</p>\n\t\t\t\t\t<p>In each trial, you will be given a trivia question and then be asked to:</p><br>\n\t\t\t\t\t<div class=\"list\">\n\t\t\t\t\t<p>1) Predict the answer</p>\n\t\t\t\t\t<p>2) Rate how much you already know about the topic</p>\n\t\t\t\t\t<p>3) Rate how much you want to know the answer</p>\n\t\t\t\t\t</div>\n\t\t\t\t\t<br>\n\t\t\t\t\t<p>Then, you will see a card that flips over to reveal the answer.</p>\n\t\t\t\t\t<br>\n\t\t\t\t\t<p>Let's try a practice round. Press <span style=\"color: red\"><strong>any key</strong></span> to move to the next slide</p>\n\t\t\t\t\t","response":" ","trial_type":"html-keyboard-response","trial_index":1,"time_elapsed":35083,"internal_node_id":"0.0-1.0","prolific_id":"5ba854ed7c0ebe0001272f2d","session_id":"643c24d9f0190e599219754d","study_id":"64370a36d30bfa807bc7e43c"},{"rt":7701,"response":{"practice prediction":"6"},"task":"practice","trial_type":"survey-text","trial_index":2,"time_elapsed":42804,"internal_node_id":"0.0-2.0-0.0","prolific_id":"5ba854ed7c0ebe0001272f2d","session_id":"643c24d9f0190e599219754d","study_id":"64370a36d30bfa807bc7e43c"},{"rt":8460,"response":{"practice":3},"accuracy":[],"trial_type":"survey","trial_index":3,"time_elapsed":51319,"internal_node_id":"0.0-2.0-1.0","prolific_id":"5ba854ed7c0ebe0001272f2d","session_id":"643c24d9f0190e599219754d","study_id":"64370a36d30bfa807bc7e43c"},{"rt":null,"stimulus":"\n\t\t\t\t<div class=\"flip_card\">\n\t\t\t\t\t<div class=\"flip_card_inner\">\n\t\t\t\t\t\t<div class=\"flip_card_front\">\n\t\t\t\t\t\t\t<img src=img/practice.png>\n\t\t\t\t\t\t</div>\n\t\t\t\t\t\t<div class=\"flip_card_back\">\n\t\t\t\t\t\t\t<h2>\"How many legs does a lobster have?\"</h2>\n\t\t\t\t\t\t    <br>\n\t\t\t\t\t\t    <p>Answer: <strong>\"10\"</strong></p>\n\t\t\t\t\t    </div>\n\t\t\t\t    </div>\n\t\t\t    </div>\n\t\t\t\t","response":null,"trial_type":"html-keyboard-response","trial_index":4,"time_elapsed":56321,"internal_node_id":"0.0-2.0-2.0","prolific_id":"5ba854ed7c0ebe0001272f2d","session_id":"643c24d9f0190e599219754d","study_id":"64370a36d30bfa807bc7e43c"},{"rt":1750,"stimulus":"\n\t\t\t\t\t<div>\n\t\t\t\t\t<h2>The practice round is over</h2>\n\t\t\t\t\t<p>Press <span style=\"color: red\"><strong>any key</strong></span> to continue to the actual trials</p>\n\t\t\t\t\t<p>Good Luck!</p>\n\t\t\t\t\t</div>\n\t\t\t\t\t","response":" ","trial_type":"html-keyboard-response","trial_index":5,"time_elapsed":58071,"internal_node_id":"0.0-2.0-3.0","prolific_id":"5ba854ed7c0ebe0001272f2d","session_id":"643c24d9f0190e599219754d","study_id":"64370a36d30bfa807bc7e43c"},{"rt":7380,"response":{"prediction":"20"},"trial_type":"survey-text","trial_index":6,"time_elapsed":65454,"internal_node_id":"0.0-3.0-0.0","prolific_id":"5ba854ed7c0ebe0001272f2d","session_id":"643c24d9f0190e599219754d","study_id":"64370a36d30bfa807bc7e43c"},{"rt":5580,"response":{"prior knowledge":1,"curiosity":1},"accuracy":[],"trial_type":"survey","trial_index":7,"time_elapsed":71053,"internal_node_id":"0.0-3.0-1.0","prolific_id":"5ba854ed7c0ebe0001272f2d","session_id":"643c24d9f0190e599219754d","study_id":"64370a36d30bfa807bc7e43c"},{"rt":null,"stimulus":"\n\t\t\t<div class=\"flip_card\">\n\t\t\t\t<div class=\"flip_card_inner\">\n\t\t\t\t\t<div class=\"flip_card_front\">\n\t\t\t\t\t\t<img src=img/16.png>\n\t\t\t\t\t</div>\n\t\t\t\t\t<div class=\"flip_card_back\">\n\t\t\t\t\t\t<h2>How many countries in Africa have French as the official language?</h2>\n\t\t\t\t\t\t<br>\n\t\t\t\t\t\t<p>Answer: <strong>21</strong></p>\n\t\t\t\t\t</div>\n\t\t\t\t</div>\n\t\t\t</div>\n\t\t\t","response":null,"trial_type":"html-keyboard-response","trial_index":8,"time_elapsed":76055,"internal_node_id":"0.0-3.0-2.0","prolific_id":"5ba854ed7c0ebe0001272f2d","session_id":"643c24d9f0190e599219754d","study_id":"64370a36d30bfa807bc7e43c"},{"rt":1456,"stimulus":"\n\t\t\t\t\t<div>\n\t\t\t\t\t<h2>Trial 1 is over</h2>\n\t\t\t\t\t<p>Press <span style=\"color: red\"><strong>any key</strong></span> to continue to the next trial</p>\n\t\t\t\t\t</div>\n\t\t\t\t","response":" ","trial_type":"html-keyboard-response","trial_index":9,"time_elapsed":77512,"internal_node_id":"0.0-3.0-3.0","prolific_id":"5ba854ed7c0ebe0001272f2d","session_id":"643c24d9f0190e599219754d","study_id":"64370a36d30bfa807bc7e43c"},{"rt":7678,"response":{"prediction":"8"},"trial_type":"survey-text","trial_index":10,"time_elapsed":85193,"internal_node_id":"0.0-3.0-0.1","prolific_id":"5ba854ed7c0ebe0001272f2d","session_id":"643c24d9f0190e599219754d","study_id":"64370a36d30bfa807bc7e43c"},{"rt":3198,"response":{"prior knowledge":2,"curiosity":3},"accuracy":[],"trial_type":"survey","trial_index":11,"time_elapsed":88409,"internal_node_id":"0.0-3.0-1.1","prolific_id":"5ba854ed7c0ebe0001272f2d","session_id":"643c24d9f0190e599219754d","study_id":"64370a36d30bfa807bc7e43c"},{"rt":null,"stimulus":"\n\t\t\t<div class=\"flip_card\">\n\t\t\t\t<div class=\"flip_card_inner\">\n\t\t\t\t\t<div class=\"flip_card_front\">\n\t\t\t\t\t\t<img src=img/21.png>\n\t\t\t\t\t</div>\n\t\t\t\t\t<div class=\"flip_card_back\">\n\t\t\t\t\t\t<h2>How many countries have territory in the Arctic Circle?</h2>\n\t\t\t\t\t\t<br>\n\t\t\t\t\t\t<p>Answer: <strong>8</strong></p>\n\t\t\t\t\t</div>\n\t\t\t\t</div>\n\t\t\t</div>\n\t\t\t","response":null,"trial_type":"html-keyboard-response","trial_index":12,"time_elapsed":93411,"internal_node_id":"0.0-3.0-2.1","prolific_id":"5ba854ed7c0ebe0001272f2d","session_id":"643c24d9f0190e599219754d","study_id":"64370a36d30bfa807bc7e43c"},{"rt":841,"stimulus":"\n\t\t\t\t\t<div>\n\t\t\t\t\t<h2>Trial 2 is over</h2>\n\t\t\t\t\t<p>Press <span style=\"color: red\"><strong>any key</strong></span> to continue to the next trial</p>\n\t\t\t\t\t</div>\n\t\t\t\t","response":" ","trial_type":"html-keyboard-response","trial_index":13,"time_elapsed":94253,"internal_node_id":"0.0-3.0-3.1","prolific_id":"5ba854ed7c0ebe0001272f2d","session_id":"643c24d9f0190e599219754d","study_id":"64370a36d30bfa807bc7e43c"},{"rt":7897,"response":{"prediction":"21"},"trial_type":"survey-text","trial_index":14,"time_elapsed":102152,"internal_node_id":"0.0-3.0-0.2","prolific_id":"5ba854ed7c0ebe0001272f2d","session_id":"643c24d9f0190e599219754d","study_id":"64370a36d30bfa807bc7e43c"},{"rt":3729,"response":{"prior knowledge":1,"curiosity":3},"accuracy":[],"trial_type":"survey","trial_index":15,"time_elapsed":105898,"internal_node_id":"0.0-3.0-1.2","prolific_id":"5ba854ed7c0ebe0001272f2d","session_id":"643c24d9f0190e599219754d","study_id":"64370a36d30bfa807bc7e43c"},{"rt":null,"stimulus":"\n\t\t\t<div class=\"flip_card\">\n\t\t\t\t<div class=\"flip_card_inner\">\n\t\t\t\t\t<div class=\"flip_card_front\">\n\t\t\t\t\t\t<img src=img/2.png>\n\t\t\t\t\t</div>\n\t\t\t\t\t<div class=\"flip_card_back\">\n\t\t\t\t\t\t<h2>How old was King Tut when he died?</h2>\n\t\t\t\t\t\t<br>\n\t\t\t\t\t\t<p>Answer: <strong>19</strong></p>\n\t\t\t\t\t</div>\n\t\t\t\t</div>\n\t\t\t</div>\n\t\t\t","response":null,"trial_type":"html-keyboard-response","trial_index":16,"time_elapsed":110901,"internal_node_id":"0.0-3.0-2.2","prolific_id":"5ba854ed7c0ebe0001272f2d","session_id":"643c24d9f0190e599219754d","study_id":"64370a36d30bfa807bc7e43c"},{"rt":1421,"stimulus":"\n\t\t\t\t\t<div>\n\t\t\t\t\t<h2>Trial 3 is over</h2>\n\t\t\t\t\t<p>Press <span style=\"color: red\"><strong>any key</strong></span> to continue to the next trial</p>\n\t\t\t\t\t</div>\n\t\t\t\t","response":" ","trial_type":"html-keyboard-response","trial_index":17,"time_elapsed":112322,"internal_node_id":"0.0-3.0-3.2","prolific_id":"5ba854ed7c0ebe0001272f2d","session_id":"643c24d9f0190e599219754d","study_id":"64370a36d30bfa807bc7e43c"},{"rt":8048,"response":{"prediction":"54"},"trial_type":"survey-text","trial_index":18,"time_elapsed":120373,"internal_node_id":"0.0-3.0-0.3","prolific_id":"5ba854ed7c0ebe0001272f2d","session_id":"643c24d9f0190e599219754d","study_id":"64370a36d30bfa807bc7e43c"},{"rt":3711,"response":{"prior knowledge":0,"curiosity":3},"accuracy":[],"trial_type":"survey","trial_index":19,"time_elapsed":124102,"internal_node_id":"0.0-3.0-1.3","prolific_id":"5ba854ed7c0ebe0001272f2d","session_id":"643c24d9f0190e599219754d","study_id":"64370a36d30bfa807bc7e43c"},{"rt":null,"stimulus":"\n\t\t\t<div class=\"flip_card\">\n\t\t\t\t<div class=\"flip_card_inner\">\n\t\t\t\t\t<div class=\"flip_card_front\">\n\t\t\t\t\t\t<img src=img/28.png>\n\t\t\t\t\t</div>\n\t\t\t\t\t<div class=\"flip_card_back\">\n\t\t\t\t\t\t<h2>How many books are in the Catholic Bible?</h2>\n\t\t\t\t\t\t<br>\n\t\t\t\t\t\t<p>Answer: <strong>73</strong></p>\n\t\t\t\t\t</div>\n\t\t\t\t</div>\n\t\t\t</div>\n\t\t\t","response":null,"trial_type":"html-keyboard-response","trial_index":20,"time_elapsed":129104,"internal_node_id":"0.0-3.0-2.3","prolific_id":"5ba854ed7c0ebe0001272f2d","session_id":"643c24d9f0190e599219754d","study_id":"64370a36d30bfa807bc7e43c"},{"rt":1160,"stimulus":"\n\t\t\t\t\t<div>\n\t\t\t\t\t<h2>Trial 4 is over</h2>\n\t\t\t\t\t<p>Press <span style=\"color: red\"><strong>any key</strong></span> to continue to the next trial</p>\n\t\t\t\t\t</div>\n\t\t\t\t","response":" ","trial_type":"html-keyboard-response","trial_index":21,"time_elapsed":130264,"internal_node_id":"0.0-3.0-3.3","prolific_id":"5ba854ed7c0ebe0001272f2d","session_id":"643c24d9f0190e599219754d","study_id":"64370a36d30bfa807bc7e43c"},{"rt":10585,"response":{"prediction":"2004"},"trial_type":"survey-text","trial_index":22,"time_elapsed":140852,"internal_node_id":"0.0-3.0-0.4","prolific_id":"5ba854ed7c0ebe0001272f2d","session_id":"643c24d9f0190e599219754d","study_id":"64370a36d30bfa807bc7e43c"},{"rt":3723,"response":{"prior knowledge":2,"curiosity":3},"accuracy":[],"trial_type":"survey","trial_index":23,"time_elapsed":144589,"internal_node_id":"0.0-3.0-1.4","prolific_id":"5ba854ed7c0ebe0001272f2d","session_id":"643c24d9f0190e599219754d","study_id":"64370a36d30bfa807bc7e43c"},{"rt":null,"stimulus":"\n\t\t\t<div class=\"flip_card\">\n\t\t\t\t<div class=\"flip_card_inner\">\n\t\t\t\t\t<div class=\"flip_card_front\">\n\t\t\t\t\t\t<img src=img/3.png>\n\t\t\t\t\t</div>\n\t\t\t\t\t<div class=\"flip_card_back\">\n\t\t\t\t\t\t<h2>What year was the very first model of the iPhone released?</h2>\n\t\t\t\t\t\t<br>\n\t\t\t\t\t\t<p>Answer: <strong>2007</strong></p>\n\t\t\t\t\t</div>\n\t\t\t\t</div>\n\t\t\t</div>\n\t\t\t","response":null,"trial_type":"html-keyboard-response","trial_index":24,"time_elapsed":149591,"internal_node_id":"0.0-3.0-2.4","prolific_id":"5ba854ed7c0ebe0001272f2d","session_id":"643c24d9f0190e599219754d","study_id":"64370a36d30bfa807bc7e43c"},{"rt":656,"stimulus":"\n\t\t\t\t\t<div>\n\t\t\t\t\t<h2>Trial 5 is over</h2>\n\t\t\t\t\t<p>Press <span style=\"color: red\"><strong>any key</strong></span> to continue to the next trial</p>\n\t\t\t\t\t</div>\n\t\t\t\t","response":" ","trial_type":"html-keyboard-response","trial_index":25,"time_elapsed":150247,"internal_node_id":"0.0-3.0-3.4","prolific_id":"5ba854ed7c0ebe0001272f2d","session_id":"643c24d9f0190e599219754d","study_id":"64370a36d30bfa807bc7e43c"},{"rt":7060,"response":{"prediction":"11"},"trial_type":"survey-text","trial_index":26,"time_elapsed":157309,"internal_node_id":"0.0-3.0-0.5","prolific_id":"5ba854ed7c0ebe0001272f2d","session_id":"643c24d9f0190e599219754d","study_id":"64370a36d30bfa807bc7e43c"},{"rt":3831,"response":{"prior knowledge":4,"curiosity":2},"accuracy":[],"trial_type":"survey","trial_index":27,"time_elapsed":161158,"internal_node_id":"0.0-3.0-1.5","prolific_id":"5ba854ed7c0ebe0001272f2d","session_id":"643c24d9f0190e599219754d","study_id":"64370a36d30bfa807bc7e43c"},{"rt":null,"stimulus":"\n\t\t\t<div class=\"flip_card\">\n\t\t\t\t<div class=\"flip_card_inner\">\n\t\t\t\t\t<div class=\"flip_card_front\">\n\t\t\t\t\t\t<img src=img/4.png>\n\t\t\t\t\t</div>\n\t\t\t\t\t<div class=\"flip_card_back\">\n\t\t\t\t\t\t<h2>How many soccer players should each team have on the field at the start of each match?</h2>\n\t\t\t\t\t\t<br>\n\t\t\t\t\t\t<p>Answer: <strong>11</strong></p>\n\t\t\t\t\t</div>\n\t\t\t\t</div>\n\t\t\t</div>\n\t\t\t","response":null,"trial_type":"html-keyboard-response","trial_index":28,"time_elapsed":166160,"internal_node_id":"0.0-3.0-2.5","prolific_id":"5ba854ed7c0ebe0001272f2d","session_id":"643c24d9f0190e599219754d","study_id":"64370a36d30bfa807bc7e43c"},{"rt":566,"stimulus":"\n\t\t\t\t\t<div>\n\t\t\t\t\t<h2>Trial 6 is over</h2>\n\t\t\t\t\t<p>Press <span style=\"color: red\"><strong>any key</strong></span> to continue to the next trial</p>\n\t\t\t\t\t</div>\n\t\t\t\t","response":" ","trial_type":"html-keyboard-response","trial_index":29,"time_elapsed":166727,"internal_node_id":"0.0-3.0-3.5","prolific_id":"5ba854ed7c0ebe0001272f2d","session_id":"643c24d9f0190e599219754d","study_id":"64370a36d30bfa807bc7e43c"},{"rt":10030,"response":{"prediction":"50"},"trial_type":"survey-text","trial_index":30,"time_elapsed":176759,"internal_node_id":"0.0-3.0-0.6","prolific_id":"5ba854ed7c0ebe0001272f2d","session_id":"643c24d9f0190e599219754d","study_id":"64370a36d30bfa807bc7e43c"},{"rt":3620,"response":{"prior knowledge":0,"curiosity":1},"accuracy":[],"trial_type":"survey","trial_index":31,"time_elapsed":180396,"internal_node_id":"0.0-3.0-1.6","prolific_id":"5ba854ed7c0ebe0001272f2d","session_id":"643c24d9f0190e599219754d","study_id":"64370a36d30bfa807bc7e43c"},{"rt":null,"stimulus":"\n\t\t\t<div class=\"flip_card\">\n\t\t\t\t<div class=\"flip_card_inner\">\n\t\t\t\t\t<div class=\"flip_card_front\">\n\t\t\t\t\t\t<img src=img/20.png>\n\t\t\t\t\t</div>\n\t\t\t\t\t<div class=\"flip_card_back\">\n\t\t\t\t\t\t<h2>How many double stitches does a baseball have?</h2>\n\t\t\t\t\t\t<br>\n\t\t\t\t\t\t<p>Answer: <strong>108</strong></p>\n\t\t\t\t\t</div>\n\t\t\t\t</div>\n\t\t\t</div>\n\t\t\t","response":null,"trial_type":"html-keyboard-response","trial_index":32,"time_elapsed":185397,"internal_node_id":"0.0-3.0-2.6","prolific_id":"5ba854ed7c0ebe0001272f2d","session_id":"643c24d9f0190e599219754d","study_id":"64370a36d30bfa807bc7e43c"},{"rt":1606,"stimulus":"\n\t\t\t\t\t<div>\n\t\t\t\t\t<h2>Trial 7 is over</h2>\n\t\t\t\t\t<p>Press <span style=\"color: red\"><strong>any key</strong></span> to continue to the next trial</p>\n\t\t\t\t\t</div>\n\t\t\t\t","response":" ","trial_type":"html-keyboard-response","trial_index":33,"time_elapsed":187004,"internal_node_id":"0.0-3.0-3.6","prolific_id":"5ba854ed7c0ebe0001272f2d","session_id":"643c24d9f0190e599219754d","study_id":"64370a36d30bfa807bc7e43c"},{"rt":5676,"response":{"prediction":"1"},"trial_type":"survey-text","trial_index":34,"time_elapsed":192683,"internal_node_id":"0.0-3.0-0.7","prolific_id":"5ba854ed7c0ebe0001272f2d","session_id":"643c24d9f0190e599219754d","study_id":"64370a36d30bfa807bc7e43c"},{"rt":5617,"response":{"prior knowledge":1,"curiosity":2},"accuracy":[],"trial_type":"survey","trial_index":35,"time_elapsed":198314,"internal_node_id":"0.0-3.0-1.7","prolific_id":"5ba854ed7c0ebe0001272f2d","session_id":"643c24d9f0190e599219754d","study_id":"64370a36d30bfa807bc7e43c"},{"rt":null,"stimulus":"\n\t\t\t<div class=\"flip_card\">\n\t\t\t\t<div class=\"flip_card_inner\">\n\t\t\t\t\t<div class=\"flip_card_front\">\n\t\t\t\t\t\t<img src=img/17.png>\n\t\t\t\t\t</div>\n\t\t\t\t\t<div class=\"flip_card_back\">\n\t\t\t\t\t\t<h2>How many times a day do Muslims pray?</h2>\n\t\t\t\t\t\t<br>\n\t\t\t\t\t\t<p>Answer: <strong>5</strong></p>\n\t\t\t\t\t</div>\n\t\t\t\t</div>\n\t\t\t</div>\n\t\t\t","response":null,"trial_type":"html-keyboard-response","trial_index":36,"time_elapsed":203316,"internal_node_id":"0.0-3.0-2.7","prolific_id":"5ba854ed7c0ebe0001272f2d","session_id":"643c24d9f0190e599219754d","study_id":"64370a36d30bfa807bc7e43c"},{"rt":527,"stimulus":"\n\t\t\t\t\t<div>\n\t\t\t\t\t<h2>Trial 8 is over</h2>\n\t\t\t\t\t<p>Press <span style=\"color: red\"><strong>any key</strong></span> to continue to the next trial</p>\n\t\t\t\t\t</div>\n\t\t\t\t","response":" ","trial_type":"html-keyboard-response","trial_index":37,"time_elapsed":203844,"internal_node_id":"0.0-3.0-3.7","prolific_id":"5ba854ed7c0ebe0001272f2d","session_id":"643c24d9f0190e599219754d","study_id":"64370a36d30bfa807bc7e43c"},{"rt":9180,"response":{"prediction":"4"},"trial_type":"survey-text","trial_index":38,"time_elapsed":213025,"internal_node_id":"0.0-3.0-0.8","prolific_id":"5ba854ed7c0ebe0001272f2d","session_id":"643c24d9f0190e599219754d","study_id":"64370a36d30bfa807bc7e43c"},{"rt":3217,"response":{"prior knowledge":0,"curiosity":4},"accuracy":[],"trial_type":"survey","trial_index":39,"time_elapsed":216260,"internal_node_id":"0.0-3.0-1.8","prolific_id":"5ba854ed7c0ebe0001272f2d","session_id":"643c24d9f0190e599219754d","study_id":"64370a36d30bfa807bc7e43c"},{"rt":null,"stimulus":"\n\t\t\t<div class=\"flip_card\">\n\t\t\t\t<div class=\"flip_card_inner\">\n\t\t\t\t\t<div class=\"flip_card_front\">\n\t\t\t\t\t\t<img src=img/22.png>\n\t\t\t\t\t</div>\n\t\t\t\t\t<div class=\"flip_card_back\">\n\t\t\t\t\t\t<h2>How many lines are in a sonnet?</h2>\n\t\t\t\t\t\t<br>\n\t\t\t\t\t\t<p>Answer: <strong>14</strong></p>\n\t\t\t\t\t</div>\n\t\t\t\t</div>\n\t\t\t</div>\n\t\t\t","response":null,"trial_type":"html-keyboard-response","trial_index":40,"time_elapsed":221262,"internal_node_id":"0.0-3.0-2.8","prolific_id":"5ba854ed7c0ebe0001272f2d","session_id":"643c24d9f0190e599219754d","study_id":"64370a36d30bfa807bc7e43c"},{"rt":239,"stimulus":"\n\t\t\t\t\t<div>\n\t\t\t\t\t<h2>Trial 9 is over</h2>\n\t\t\t\t\t<p>Press <span style=\"color: red\"><strong>any key</strong></span> to continue to the next trial</p>\n\t\t\t\t\t</div>\n\t\t\t\t","response":" ","trial_type":"html-keyboard-response","trial_index":41,"time_elapsed":221502,"internal_node_id":"0.0-3.0-3.8","prolific_id":"5ba854ed7c0ebe0001272f2d","session_id":"643c24d9f0190e599219754d","study_id":"64370a36d30bfa807bc7e43c"},{"rt":6345,"response":{"prediction":"250"},"trial_type":"survey-text","trial_index":42,"time_elapsed":227850,"internal_node_id":"0.0-3.0-0.9","prolific_id":"5ba854ed7c0ebe0001272f2d","session_id":"643c24d9f0190e599219754d","study_id":"64370a36d30bfa807bc7e43c"},{"rt":4546,"response":{"prior knowledge":0,"curiosity":0},"accuracy":[],"trial_type":"survey","trial_index":43,"time_elapsed":232410,"internal_node_id":"0.0-3.0-1.9","prolific_id":"5ba854ed7c0ebe0001272f2d","session_id":"643c24d9f0190e599219754d","study_id":"64370a36d30bfa807bc7e43c"},{"rt":null,"stimulus":"\n\t\t\t<div class=\"flip_card\">\n\t\t\t\t<div class=\"flip_card_inner\">\n\t\t\t\t\t<div class=\"flip_card_front\">\n\t\t\t\t\t\t<img src=img/14.png>\n\t\t\t\t\t</div>\n\t\t\t\t\t<div class=\"flip_card_back\">\n\t\t\t\t\t\t<h2>How many floors are in the Burj Khalifa, the tallest building in the world?</h2>\n\t\t\t\t\t\t<br>\n\t\t\t\t\t\t<p>Answer: <strong>163</strong></p>\n\t\t\t\t\t</div>\n\t\t\t\t</div>\n\t\t\t</div>\n\t\t\t","response":null,"trial_type":"html-keyboard-response","trial_index":44,"time_elapsed":237412,"internal_node_id":"0.0-3.0-2.9","prolific_id":"5ba854ed7c0ebe0001272f2d","session_id":"643c24d9f0190e599219754d","study_id":"64370a36d30bfa807bc7e43c"},{"rt":567,"stimulus":"\n\t\t\t\t\t<div>\n\t\t\t\t\t<h2>Trial 10 is over</h2>\n\t\t\t\t\t<p>Press <span style=\"color: red\"><strong>any key</strong></span> to continue to the next trial</p>\n\t\t\t\t\t</div>\n\t\t\t\t","response":" ","trial_type":"html-keyboard-response","trial_index":45,"time_elapsed":237979,"internal_node_id":"0.0-3.0-3.9","prolific_id":"5ba854ed7c0ebe0001272f2d","session_id":"643c24d9f0190e599219754d","study_id":"64370a36d30bfa807bc7e43c"},{"rt":3075,"response":{"prediction":"7"},"trial_type":"survey-text","trial_index":46,"time_elapsed":241056,"internal_node_id":"0.0-3.0-0.10","prolific_id":"5ba854ed7c0ebe0001272f2d","session_id":"643c24d9f0190e599219754d","study_id":"64370a36d30bfa807bc7e43c"},{"rt":3203,"response":{"prior knowledge":0,"curiosity":0},"accuracy":[],"trial_type":"survey","trial_index":47,"time_elapsed":244276,"internal_node_id":"0.0-3.0-1.10","prolific_id":"5ba854ed7c0ebe0001272f2d","session_id":"643c24d9f0190e599219754d","study_id":"64370a36d30bfa807bc7e43c"},{"rt":null,"stimulus":"\n\t\t\t<div class=\"flip_card\">\n\t\t\t\t<div class=\"flip_card_inner\">\n\t\t\t\t\t<div class=\"flip_card_front\">\n\t\t\t\t\t\t<img src=img/24.png>\n\t\t\t\t\t</div>\n\t\t\t\t\t<div class=\"flip_card_back\">\n\t\t\t\t\t\t<h2>How many tones are in the Vietnamese language?</h2>\n\t\t\t\t\t\t<br>\n\t\t\t\t\t\t<p>Answer: <strong>6</strong></p>\n\t\t\t\t\t</div>\n\t\t\t\t</div>\n\t\t\t</div>\n\t\t\t","response":null,"trial_type":"html-keyboard-response","trial_index":48,"time_elapsed":249278,"internal_node_id":"0.0-3.0-2.10","prolific_id":"5ba854ed7c0ebe0001272f2d","session_id":"643c24d9f0190e599219754d","study_id":"64370a36d30bfa807bc7e43c"},{"rt":713,"stimulus":"\n\t\t\t\t\t<div>\n\t\t\t\t\t<h2>Trial 11 is over</h2>\n\t\t\t\t\t<p>Press <span style=\"color: red\"><strong>any key</strong></span> to continue to the next trial</p>\n\t\t\t\t\t</div>\n\t\t\t\t","response":" ","trial_type":"html-keyboard-response","trial_index":49,"time_elapsed":249991,"internal_node_id":"0.0-3.0-3.10","prolific_id":"5ba854ed7c0ebe0001272f2d","session_id":"643c24d9f0190e599219754d","study_id":"64370a36d30bfa807bc7e43c"},{"rt":3276,"response":{"prediction":"14"},"trial_type":"survey-text","trial_index":50,"time_elapsed":253269,"internal_node_id":"0.0-3.0-0.11","prolific_id":"5ba854ed7c0ebe0001272f2d","session_id":"643c24d9f0190e599219754d","study_id":"64370a36d30bfa807bc7e43c"},{"rt":4183,"response":{"prior knowledge":3,"curiosity":1},"accuracy":[],"trial_type":"survey","trial_index":51,"time_elapsed":257468,"internal_node_id":"0.0-3.0-1.11","prolific_id":"5ba854ed7c0ebe0001272f2d","session_id":"643c24d9f0190e599219754d","study_id":"64370a36d30bfa807bc7e43c"},{"rt":null,"stimulus":"\n\t\t\t<div class=\"flip_card\">\n\t\t\t\t<div class=\"flip_card_inner\">\n\t\t\t\t\t<div class=\"flip_card_front\">\n\t\t\t\t\t\t<img src=img/18.png>\n\t\t\t\t\t</div>\n\t\t\t\t\t<div class=\"flip_card_back\">\n\t\t\t\t\t\t<h2>A bar mitzvah is traditionally celebrated when Jewish males turn what age?</h2>\n\t\t\t\t\t\t<br>\n\t\t\t\t\t\t<p>Answer: <strong>13</strong></p>\n\t\t\t\t\t</div>\n\t\t\t\t</div>\n\t\t\t</div>\n\t\t\t","response":null,"trial_type":"html-keyboard-response","trial_index":52,"time_elapsed":262469,"internal_node_id":"0.0-3.0-2.11","prolific_id":"5ba854ed7c0ebe0001272f2d","session_id":"643c24d9f0190e599219754d","study_id":"64370a36d30bfa807bc7e43c"},{"rt":584,"stimulus":"\n\t\t\t\t\t<div>\n\t\t\t\t\t<h2>Trial 12 is over</h2>\n\t\t\t\t\t<p>Press <span style=\"color: red\"><strong>any key</strong></span> to continue to the next trial</p>\n\t\t\t\t\t</div>\n\t\t\t\t","response":" ","trial_type":"html-keyboard-response","trial_index":53,"time_elapsed":263054,"internal_node_id":"0.0-3.0-3.11","prolific_id":"5ba854ed7c0ebe0001272f2d","session_id":"643c24d9f0190e599219754d","study_id":"64370a36d30bfa807bc7e43c"},{"rt":5008,"response":{"prediction":"2000"},"trial_type":"survey-text","trial_index":54,"time_elapsed":268065,"internal_node_id":"0.0-3.0-0.12","prolific_id":"5ba854ed7c0ebe0001272f2d","session_id":"643c24d9f0190e599219754d","study_id":"64370a36d30bfa807bc7e43c"},{"rt":3763,"response":{"prior knowledge":1,"curiosity":2},"accuracy":[],"trial_type":"survey","trial_index":55,"time_elapsed":271841,"internal_node_id":"0.0-3.0-1.12","prolific_id":"5ba854ed7c0ebe0001272f2d","session_id":"643c24d9f0190e599219754d","study_id":"64370a36d30bfa807bc7e43c"},{"rt":null,"stimulus":"\n\t\t\t<div class=\"flip_card\">\n\t\t\t\t<div class=\"flip_card_inner\">\n\t\t\t\t\t<div class=\"flip_card_front\">\n\t\t\t\t\t\t<img src=img/1.png>\n\t\t\t\t\t</div>\n\t\t\t\t\t<div class=\"flip_card_back\">\n\t\t\t\t\t\t<h2>How long is the Great Wall of China (in miles)?</h2>\n\t\t\t\t\t\t<br>\n\t\t\t\t\t\t<p>Answer: <strong>13171</strong></p>\n\t\t\t\t\t</div>\n\t\t\t\t</div>\n\t\t\t</div>\n\t\t\t","response":null,"trial_type":"html-keyboard-response","trial_index":56,"time_elapsed":276843,"internal_node_id":"0.0-3.0-2.12","prolific_id":"5ba854ed7c0ebe0001272f2d","session_id":"643c24d9f0190e599219754d","study_id":"64370a36d30bfa807bc7e43c"},{"rt":631,"stimulus":"\n\t\t\t\t\t<div>\n\t\t\t\t\t<h2>Trial 13 is over</h2>\n\t\t\t\t\t<p>Press <span style=\"color: red\"><strong>any key</strong></span> to continue to the next trial</p>\n\t\t\t\t\t</div>\n\t\t\t\t","response":" ","trial_type":"html-keyboard-response","trial_index":57,"time_elapsed":277474,"internal_node_id":"0.0-3.0-3.12","prolific_id":"5ba854ed7c0ebe0001272f2d","session_id":"643c24d9f0190e599219754d","study_id":"64370a36d30bfa807bc7e43c"},{"rt":19938,"response":{"prediction":"1980"},"trial_type":"survey-text","trial_index":58,"time_elapsed":297415,"internal_node_id":"0.0-3.0-0.13","prolific_id":"5ba854ed7c0ebe0001272f2d","session_id":"643c24d9f0190e599219754d","study_id":"64370a36d30bfa807bc7e43c"},{"rt":3198,"response":{"prior knowledge":1,"curiosity":4},"accuracy":[],"trial_type":"survey","trial_index":59,"time_elapsed":300628,"internal_node_id":"0.0-3.0-1.13","prolific_id":"5ba854ed7c0ebe0001272f2d","session_id":"643c24d9f0190e599219754d","study_id":"64370a36d30bfa807bc7e43c"},{"rt":null,"stimulus":"\n\t\t\t<div class=\"flip_card\">\n\t\t\t\t<div class=\"flip_card_inner\">\n\t\t\t\t\t<div class=\"flip_card_front\">\n\t\t\t\t\t\t<img src=img/6.png>\n\t\t\t\t\t</div>\n\t\t\t\t\t<div class=\"flip_card_back\">\n\t\t\t\t\t\t<h2>What year did the Berlin Wall fall?</h2>\n\t\t\t\t\t\t<br>\n\t\t\t\t\t\t<p>Answer: <strong>1989</strong></p>\n\t\t\t\t\t</div>\n\t\t\t\t</div>\n\t\t\t</div>\n\t\t\t","response":null,"trial_type":"html-keyboard-response","trial_index":60,"time_elapsed":305629,"internal_node_id":"0.0-3.0-2.13","prolific_id":"5ba854ed7c0ebe0001272f2d","session_id":"643c24d9f0190e599219754d","study_id":"64370a36d30bfa807bc7e43c"},{"rt":720,"stimulus":"\n\t\t\t\t\t<div>\n\t\t\t\t\t<h2>Trial 14 is over</h2>\n\t\t\t\t\t<p>Press <span style=\"color: red\"><strong>any key</strong></span> to continue to the next trial</p>\n\t\t\t\t\t</div>\n\t\t\t\t","response":" ","trial_type":"html-keyboard-response","trial_index":61,"time_elapsed":306350,"internal_node_id":"0.0-3.0-3.13","prolific_id":"5ba854ed7c0ebe0001272f2d","session_id":"643c24d9f0190e599219754d","study_id":"64370a36d30bfa807bc7e43c"},{"rt":4642,"response":{"prediction":"54"},"trial_type":"survey-text","trial_index":62,"time_elapsed":310994,"internal_node_id":"0.0-3.0-0.14","prolific_id":"5ba854ed7c0ebe0001272f2d","session_id":"643c24d9f0190e599219754d","study_id":"64370a36d30bfa807bc7e43c"},{"rt":3714,"response":{"prior knowledge":0,"curiosity":0},"accuracy":[],"trial_type":"survey","trial_index":63,"time_elapsed":314723,"internal_node_id":"0.0-3.0-1.14","prolific_id":"5ba854ed7c0ebe0001272f2d","session_id":"643c24d9f0190e599219754d","study_id":"64370a36d30bfa807bc7e43c"},{"rt":null,"stimulus":"\n\t\t\t<div class=\"flip_card\">\n\t\t\t\t<div class=\"flip_card_inner\">\n\t\t\t\t\t<div class=\"flip_card_front\">\n\t\t\t\t\t\t<img src=img/10.png>\n\t\t\t\t\t</div>\n\t\t\t\t\t<div class=\"flip_card_back\">\n\t\t\t\t\t\t<h2>How many countries are in Africa?</h2>\n\t\t\t\t\t\t<br>\n\t\t\t\t\t\t<p>Answer: <strong>54</strong></p>\n\t\t\t\t\t</div>\n\t\t\t\t</div>\n\t\t\t</div>\n\t\t\t","response":null,"trial_type":"html-keyboard-response","trial_index":64,"time_elapsed":319726,"internal_node_id":"0.0-3.0-2.14","prolific_id":"5ba854ed7c0ebe0001272f2d","session_id":"643c24d9f0190e599219754d","study_id":"64370a36d30bfa807bc7e43c"},{"rt":616,"stimulus":"\n\t\t\t\t\t<div>\n\t\t\t\t\t<h2>Trial 15 is over</h2>\n\t\t\t\t\t<p>Press <span style=\"color: red\"><strong>any key</strong></span> to continue to the next trial</p>\n\t\t\t\t\t</div>\n\t\t\t\t","response":" ","trial_type":"html-keyboard-response","trial_index":65,"time_elapsed":320342,"internal_node_id":"0.0-3.0-3.14","prolific_id":"5ba854ed7c0ebe0001272f2d","session_id":"643c24d9f0190e599219754d","study_id":"64370a36d30bfa807bc7e43c"},{"rt":8903,"response":{"prediction":"35"},"trial_type":"survey-text","trial_index":66,"time_elapsed":329247,"internal_node_id":"0.0-3.0-0.15","prolific_id":"5ba854ed7c0ebe0001272f2d","session_id":"643c24d9f0190e599219754d","study_id":"64370a36d30bfa807bc7e43c"},{"rt":3028,"response":{"prior knowledge":0,"curiosity":0},"accuracy":[],"trial_type":"survey","trial_index":67,"time_elapsed":332291,"internal_node_id":"0.0-3.0-1.15","prolific_id":"5ba854ed7c0ebe0001272f2d","session_id":"643c24d9f0190e599219754d","study_id":"64370a36d30bfa807bc7e43c"},{"rt":null,"stimulus":"\n\t\t\t<div class=\"flip_card\">\n\t\t\t\t<div class=\"flip_card_inner\">\n\t\t\t\t\t<div class=\"flip_card_front\">\n\t\t\t\t\t\t<img src=img/27.png>\n\t\t\t\t\t</div>\n\t\t\t\t\t<div class=\"flip_card_back\">\n\t\t\t\t\t\t<h2>How many single hand gestures, or mudras, are used in Indian classical dance?</h2>\n\t\t\t\t\t\t<br>\n\t\t\t\t\t\t<p>Answer: <strong>28</strong></p>\n\t\t\t\t\t</div>\n\t\t\t\t</div>\n\t\t\t</div>\n\t\t\t","response":null,"trial_type":"html-keyboard-response","trial_index":68,"time_elapsed":337292,"internal_node_id":"0.0-3.0-2.15","prolific_id":"5ba854ed7c0ebe0001272f2d","session_id":"643c24d9f0190e599219754d","study_id":"64370a36d30bfa807bc7e43c"},{"rt":706,"stimulus":"\n\t\t\t\t\t<div>\n\t\t\t\t\t<h2>Trial 16 is over</h2>\n\t\t\t\t\t<p>Press <span style=\"color: red\"><strong>any key</strong></span> to continue to the next trial</p>\n\t\t\t\t\t</div>\n\t\t\t\t","response":" ","trial_type":"html-keyboard-response","trial_index":69,"time_elapsed":337998,"internal_node_id":"0.0-3.0-3.15","prolific_id":"5ba854ed7c0ebe0001272f2d","session_id":"643c24d9f0190e599219754d","study_id":"64370a36d30bfa807bc7e43c"},{"rt":10204,"response":{"prediction":"0"},"trial_type":"survey-text","trial_index":70,"time_elapsed":348206,"internal_node_id":"0.0-3.0-0.16","prolific_id":"5ba854ed7c0ebe0001272f2d","session_id":"643c24d9f0190e599219754d","study_id":"64370a36d30bfa807bc7e43c"},{"rt":4216,"response":{"prior knowledge":1,"curiosity":2},"accuracy":[],"trial_type":"survey","trial_index":71,"time_elapsed":352436,"internal_node_id":"0.0-3.0-1.16","prolific_id":"5ba854ed7c0ebe0001272f2d","session_id":"643c24d9f0190e599219754d","study_id":"64370a36d30bfa807bc7e43c"},{"rt":null,"stimulus":"\n\t\t\t<div class=\"flip_card\">\n\t\t\t\t<div class=\"flip_card_inner\">\n\t\t\t\t\t<div class=\"flip_card_front\">\n\t\t\t\t\t\t<img src=img/19.png>\n\t\t\t\t\t</div>\n\t\t\t\t\t<div class=\"flip_card_back\">\n\t\t\t\t\t\t<h2>How many moons does Neptune have?</h2>\n\t\t\t\t\t\t<br>\n\t\t\t\t\t\t<p>Answer: <strong>14</strong></p>\n\t\t\t\t\t</div>\n\t\t\t\t</div>\n\t\t\t</div>\n\t\t\t","response":null,"trial_type":"html-keyboard-response","trial_index":72,"time_elapsed":357438,"internal_node_id":"0.0-3.0-2.16","prolific_id":"5ba854ed7c0ebe0001272f2d","session_id":"643c24d9f0190e599219754d","study_id":"64370a36d30bfa807bc7e43c"},{"rt":492,"stimulus":"\n\t\t\t\t\t<div>\n\t\t\t\t\t<h2>Trial 17 is over</h2>\n\t\t\t\t\t<p>Press <span style=\"color: red\"><strong>any key</strong></span> to continue to the next trial</p>\n\t\t\t\t\t</div>\n\t\t\t\t","response":" ","trial_type":"html-keyboard-response","trial_index":73,"time_elapsed":357931,"internal_node_id":"0.0-3.0-3.16","prolific_id":"5ba854ed7c0ebe0001272f2d","session_id":"643c24d9f0190e599219754d","study_id":"64370a36d30bfa807bc7e43c"},{"rt":5526,"response":{"prediction":"12"},"trial_type":"survey-text","trial_index":74,"time_elapsed":363460,"internal_node_id":"0.0-3.0-0.17","prolific_id":"5ba854ed7c0ebe0001272f2d","session_id":"643c24d9f0190e599219754d","study_id":"64370a36d30bfa807bc7e43c"},{"rt":2784,"response":{"prior knowledge":0,"curiosity":2},"accuracy":[],"trial_type":"survey","trial_index":75,"time_elapsed":366258,"internal_node_id":"0.0-3.0-1.17","prolific_id":"5ba854ed7c0ebe0001272f2d","session_id":"643c24d9f0190e599219754d","study_id":"64370a36d30bfa807bc7e43c"},{"rt":null,"stimulus":"\n\t\t\t<div class=\"flip_card\">\n\t\t\t\t<div class=\"flip_card_inner\">\n\t\t\t\t\t<div class=\"flip_card_front\">\n\t\t\t\t\t\t<img src=img/5.png>\n\t\t\t\t\t</div>\n\t\t\t\t\t<div class=\"flip_card_back\">\n\t\t\t\t\t\t<h2>How much is in a Baker's Dozen?</h2>\n\t\t\t\t\t\t<br>\n\t\t\t\t\t\t<p>Answer: <strong>13</strong></p>\n\t\t\t\t\t</div>\n\t\t\t\t</div>\n\t\t\t</div>\n\t\t\t","response":null,"trial_type":"html-keyboard-response","trial_index":76,"time_elapsed":371259,"internal_node_id":"0.0-3.0-2.17","prolific_id":"5ba854ed7c0ebe0001272f2d","session_id":"643c24d9f0190e599219754d","study_id":"64370a36d30bfa807bc7e43c"},{"rt":542,"stimulus":"\n\t\t\t\t\t<div>\n\t\t\t\t\t<h2>Trial 18 is over</h2>\n\t\t\t\t\t<p>Press <span style=\"color: red\"><strong>any key</strong></span> to continue to the next trial</p>\n\t\t\t\t\t</div>\n\t\t\t\t","response":" ","trial_type":"html-keyboard-response","trial_index":77,"time_elapsed":371802,"internal_node_id":"0.0-3.0-3.17","prolific_id":"5ba854ed7c0ebe0001272f2d","session_id":"643c24d9f0190e599219754d","study_id":"64370a36d30bfa807bc7e43c"},{"rt":10019,"response":{"prediction":"1908"},"trial_type":"survey-text","trial_index":78,"time_elapsed":381823,"internal_node_id":"0.0-3.0-0.18","prolific_id":"5ba854ed7c0ebe0001272f2d","session_id":"643c24d9f0190e599219754d","study_id":"64370a36d30bfa807bc7e43c"},{"rt":6133,"response":{"prior knowledge":0,"curiosity":1},"accuracy":[],"trial_type":"survey","trial_index":79,"time_elapsed":387969,"internal_node_id":"0.0-3.0-1.18","prolific_id":"5ba854ed7c0ebe0001272f2d","session_id":"643c24d9f0190e599219754d","study_id":"64370a36d30bfa807bc7e43c"},{"rt":null,"stimulus":"\n\t\t\t<div class=\"flip_card\">\n\t\t\t\t<div class=\"flip_card_inner\">\n\t\t\t\t\t<div class=\"flip_card_front\">\n\t\t\t\t\t\t<img src=img/9.png>\n\t\t\t\t\t</div>\n\t\t\t\t\t<div class=\"flip_card_back\">\n\t\t\t\t\t\t<h2>In what year did the first Modern Olympic Games take place?</h2>\n\t\t\t\t\t\t<br>\n\t\t\t\t\t\t<p>Answer: <strong>1896</strong></p>\n\t\t\t\t\t</div>\n\t\t\t\t</div>\n\t\t\t</div>\n\t\t\t","response":null,"trial_type":"html-keyboard-response","trial_index":80,"time_elapsed":392971,"internal_node_id":"0.0-3.0-2.18","prolific_id":"5ba854ed7c0ebe0001272f2d","session_id":"643c24d9f0190e599219754d","study_id":"64370a36d30bfa807bc7e43c"},{"rt":541,"stimulus":"\n\t\t\t\t\t<div>\n\t\t\t\t\t<h2>Trial 19 is over</h2>\n\t\t\t\t\t<p>Press <span style=\"color: red\"><strong>any key</strong></span> to continue to the next trial</p>\n\t\t\t\t\t</div>\n\t\t\t\t","response":" ","trial_type":"html-keyboard-response","trial_index":81,"time_elapsed":393512,"internal_node_id":"0.0-3.0-3.18","prolific_id":"5ba854ed7c0ebe0001272f2d","session_id":"643c24d9f0190e599219754d","study_id":"64370a36d30bfa807bc7e43c"},{"rt":9294,"response":{"prediction":"7"},"trial_type":"survey-text","trial_index":82,"time_elapsed":402808,"internal_node_id":"0.0-3.0-0.19","prolific_id":"5ba854ed7c0ebe0001272f2d","session_id":"643c24d9f0190e599219754d","study_id":"64370a36d30bfa807bc7e43c"},{"rt":3417,"response":{"prior knowledge":0,"curiosity":4},"accuracy":[],"trial_type":"survey","trial_index":83,"time_elapsed":406239,"internal_node_id":"0.0-3.0-1.19","prolific_id":"5ba854ed7c0ebe0001272f2d","session_id":"643c24d9f0190e599219754d","study_id":"64370a36d30bfa807bc7e43c"},{"rt":null,"stimulus":"\n\t\t\t<div class=\"flip_card\">\n\t\t\t\t<div class=\"flip_card_inner\">\n\t\t\t\t\t<div class=\"flip_card_front\">\n\t\t\t\t\t\t<img src=img/26.png>\n\t\t\t\t\t</div>\n\t\t\t\t\t<div class=\"flip_card_back\">\n\t\t\t\t\t\t<h2>How many native species of kangaroos are found in Australia?</h2>\n\t\t\t\t\t\t<br>\n\t\t\t\t\t\t<p>Answer: <strong>4</strong></p>\n\t\t\t\t\t</div>\n\t\t\t\t</div>\n\t\t\t</div>\n\t\t\t","response":null,"trial_type":"html-keyboard-response","trial_index":84,"time_elapsed":411241,"internal_node_id":"0.0-3.0-2.19","prolific_id":"5ba854ed7c0ebe0001272f2d","session_id":"643c24d9f0190e599219754d","study_id":"64370a36d30bfa807bc7e43c"},{"rt":641,"stimulus":"\n\t\t\t\t\t<div>\n\t\t\t\t\t<h2>Trial 20 is over</h2>\n\t\t\t\t\t<p>Press <span style=\"color: red\"><strong>any key</strong></span> to continue to the next trial</p>\n\t\t\t\t\t</div>\n\t\t\t\t","response":" ","trial_type":"html-keyboard-response","trial_index":85,"time_elapsed":411883,"internal_node_id":"0.0-3.0-3.19","prolific_id":"5ba854ed7c0ebe0001272f2d","session_id":"643c24d9f0190e599219754d","study_id":"64370a36d30bfa807bc7e43c"},{"rt":4570,"response":{"prediction":"30"},"trial_type":"survey-text","trial_index":86,"time_elapsed":416454,"internal_node_id":"0.0-3.0-0.20","prolific_id":"5ba854ed7c0ebe0001272f2d","session_id":"643c24d9f0190e599219754d","study_id":"64370a36d30bfa807bc7e43c"},{"rt":3721,"response":{"prior knowledge":1,"curiosity":0},"accuracy":[],"trial_type":"survey","trial_index":87,"time_elapsed":420190,"internal_node_id":"0.0-3.0-1.20","prolific_id":"5ba854ed7c0ebe0001272f2d","session_id":"643c24d9f0190e599219754d","study_id":"64370a36d30bfa807bc7e43c"},{"rt":null,"stimulus":"\n\t\t\t<div class=\"flip_card\">\n\t\t\t\t<div class=\"flip_card_inner\">\n\t\t\t\t\t<div class=\"flip_card_front\">\n\t\t\t\t\t\t<img src=img/8.png>\n\t\t\t\t\t</div>\n\t\t\t\t\t<div class=\"flip_card_back\">\n\t\t\t\t\t\t<h2>How many books has Stephen King published?</h2>\n\t\t\t\t\t\t<br>\n\t\t\t\t\t\t<p>Answer: <strong>65</strong></p>\n\t\t\t\t\t</div>\n\t\t\t\t</div>\n\t\t\t</div>\n\t\t\t","response":null,"trial_type":"html-keyboard-response","trial_index":88,"time_elapsed":425192,"internal_node_id":"0.0-3.0-2.20","prolific_id":"5ba854ed7c0ebe0001272f2d","session_id":"643c24d9f0190e599219754d","study_id":"64370a36d30bfa807bc7e43c"},{"rt":425,"stimulus":"\n\t\t\t\t\t<div>\n\t\t\t\t\t<h2>Trial 21 is over</h2>\n\t\t\t\t\t<p>Press <span style=\"color: red\"><strong>any key</strong></span> to continue to the next trial</p>\n\t\t\t\t\t</div>\n\t\t\t\t","response":" ","trial_type":"html-keyboard-response","trial_index":89,"time_elapsed":425618,"internal_node_id":"0.0-3.0-3.20","prolific_id":"5ba854ed7c0ebe0001272f2d","session_id":"643c24d9f0190e599219754d","study_id":"64370a36d30bfa807bc7e43c"},{"rt":6281,"response":{"prediction":"200"},"trial_type":"survey-text","trial_index":90,"time_elapsed":431901,"internal_node_id":"0.0-3.0-0.21","prolific_id":"5ba854ed7c0ebe0001272f2d","session_id":"643c24d9f0190e599219754d","study_id":"64370a36d30bfa807bc7e43c"},{"rt":3375,"response":{"prior knowledge":0,"curiosity":1},"accuracy":[],"trial_type":"survey","trial_index":91,"time_elapsed":435290,"internal_node_id":"0.0-3.0-1.21","prolific_id":"5ba854ed7c0ebe0001272f2d","session_id":"643c24d9f0190e599219754d","study_id":"64370a36d30bfa807bc7e43c"},{"rt":null,"stimulus":"\n\t\t\t<div class=\"flip_card\">\n\t\t\t\t<div class=\"flip_card_inner\">\n\t\t\t\t\t<div class=\"flip_card_front\">\n\t\t\t\t\t\t<img src=img/25.png>\n\t\t\t\t\t</div>\n\t\t\t\t\t<div class=\"flip_card_back\">\n\t\t\t\t\t\t<h2>How many bones is a human baby born with?</h2>\n\t\t\t\t\t\t<br>\n\t\t\t\t\t\t<p>Answer: <strong>300</strong></p>\n\t\t\t\t\t</div>\n\t\t\t\t</div>\n\t\t\t</div>\n\t\t\t","response":null,"trial_type":"html-keyboard-response","trial_index":92,"time_elapsed":440291,"internal_node_id":"0.0-3.0-2.21","prolific_id":"5ba854ed7c0ebe0001272f2d","session_id":"643c24d9f0190e599219754d","study_id":"64370a36d30bfa807bc7e43c"},{"rt":672,"stimulus":"\n\t\t\t\t\t<div>\n\t\t\t\t\t<h2>Trial 22 is over</h2>\n\t\t\t\t\t<p>Press <span style=\"color: red\"><strong>any key</strong></span> to continue to the next trial</p>\n\t\t\t\t\t</div>\n\t\t\t\t","response":" ","trial_type":"html-keyboard-response","trial_index":93,"time_elapsed":440963,"internal_node_id":"0.0-3.0-3.21","prolific_id":"5ba854ed7c0ebe0001272f2d","session_id":"643c24d9f0190e599219754d","study_id":"64370a36d30bfa807bc7e43c"},{"rt":6160,"response":{"prediction":"12"},"trial_type":"survey-text","trial_index":94,"time_elapsed":447125,"internal_node_id":"0.0-3.0-0.22","prolific_id":"5ba854ed7c0ebe0001272f2d","session_id":"643c24d9f0190e599219754d","study_id":"64370a36d30bfa807bc7e43c"},{"rt":4824,"response":{"prior knowledge":3,"curiosity":3},"accuracy":[],"trial_type":"survey","trial_index":95,"time_elapsed":451968,"internal_node_id":"0.0-3.0-1.22","prolific_id":"5ba854ed7c0ebe0001272f2d","session_id":"643c24d9f0190e599219754d","study_id":"64370a36d30bfa807bc7e43c"},{"rt":null,"stimulus":"\n\t\t\t<div class=\"flip_card\">\n\t\t\t\t<div class=\"flip_card_inner\">\n\t\t\t\t\t<div class=\"flip_card_front\">\n\t\t\t\t\t\t<img src=img/23.png>\n\t\t\t\t\t</div>\n\t\t\t\t\t<div class=\"flip_card_back\">\n\t\t\t\t\t\t<h2>How many different animals (real or imaginary) are represented in the Chinese calendar?</h2>\n\t\t\t\t\t\t<br>\n\t\t\t\t\t\t<p>Answer: <strong>12</strong></p>\n\t\t\t\t\t</div>\n\t\t\t\t</div>\n\t\t\t</div>\n\t\t\t","response":null,"trial_type":"html-keyboard-response","trial_index":96,"time_elapsed":456970,"internal_node_id":"0.0-3.0-2.22","prolific_id":"5ba854ed7c0ebe0001272f2d","session_id":"643c24d9f0190e599219754d","study_id":"64370a36d30bfa807bc7e43c"},{"rt":544,"stimulus":"\n\t\t\t\t\t<div>\n\t\t\t\t\t<h2>Trial 23 is over</h2>\n\t\t\t\t\t<p>Press <span style=\"color: red\"><strong>any key</strong></span> to continue to the next trial</p>\n\t\t\t\t\t</div>\n\t\t\t\t","response":" ","trial_type":"html-keyboard-response","trial_index":97,"time_elapsed":457515,"internal_node_id":"0.0-3.0-3.22","prolific_id":"5ba854ed7c0ebe0001272f2d","session_id":"643c24d9f0190e599219754d","study_id":"64370a36d30bfa807bc7e43c"},{"rt":8292,"response":{"prediction":"1908"},"trial_type":"survey-text","trial_index":98,"time_elapsed":465809,"internal_node_id":"0.0-3.0-0.23","prolific_id":"5ba854ed7c0ebe0001272f2d","session_id":"643c24d9f0190e599219754d","study_id":"64370a36d30bfa807bc7e43c"},{"rt":4310,"response":{"prior knowledge":2,"curiosity":2},"accuracy":[],"trial_type":"survey","trial_index":99,"time_elapsed":470132,"internal_node_id":"0.0-3.0-1.23","prolific_id":"5ba854ed7c0ebe0001272f2d","session_id":"643c24d9f0190e599219754d","study_id":"64370a36d30bfa807bc7e43c"},{"rt":null,"stimulus":"\n\t\t\t<div class=\"flip_card\">\n\t\t\t\t<div class=\"flip_card_inner\">\n\t\t\t\t\t<div class=\"flip_card_front\">\n\t\t\t\t\t\t<img src=img/30.png>\n\t\t\t\t\t</div>\n\t\t\t\t\t<div class=\"flip_card_back\">\n\t\t\t\t\t\t<h2>What year did the titanic sink?</h2>\n\t\t\t\t\t\t<br>\n\t\t\t\t\t\t<p>Answer: <strong>1912</strong></p>\n\t\t\t\t\t</div>\n\t\t\t\t</div>\n\t\t\t</div>\n\t\t\t","response":null,"trial_type":"html-keyboard-response","trial_index":100,"time_elapsed":475134,"internal_node_id":"0.0-3.0-2.23","prolific_id":"5ba854ed7c0ebe0001272f2d","session_id":"643c24d9f0190e599219754d","study_id":"64370a36d30bfa807bc7e43c"},{"rt":584,"stimulus":"\n\t\t\t\t\t<div>\n\t\t\t\t\t<h2>Trial 24 is over</h2>\n\t\t\t\t\t<p>Press <span style=\"color: red\"><strong>any key</strong></span> to continue to the next trial</p>\n\t\t\t\t\t</div>\n\t\t\t\t","response":" ","trial_type":"html-keyboard-response","trial_index":101,"time_elapsed":475719,"internal_node_id":"0.0-3.0-3.23","prolific_id":"5ba854ed7c0ebe0001272f2d","session_id":"643c24d9f0190e599219754d","study_id":"64370a36d30bfa807bc7e43c"},{"rt":6152,"response":{"prediction":"1856"},"trial_type":"survey-text","trial_index":102,"time_elapsed":481873,"internal_node_id":"0.0-3.0-0.24","prolific_id":"5ba854ed7c0ebe0001272f2d","session_id":"643c24d9f0190e599219754d","study_id":"64370a36d30bfa807bc7e43c"},{"rt":3296,"response":{"prior knowledge":1,"curiosity":2},"accuracy":[],"trial_type":"survey","trial_index":103,"time_elapsed":485184,"internal_node_id":"0.0-3.0-1.24","prolific_id":"5ba854ed7c0ebe0001272f2d","session_id":"643c24d9f0190e599219754d","study_id":"64370a36d30bfa807bc7e43c"},{"rt":null,"stimulus":"\n\t\t\t<div class=\"flip_card\">\n\t\t\t\t<div class=\"flip_card_inner\">\n\t\t\t\t\t<div class=\"flip_card_front\">\n\t\t\t\t\t\t<img src=img/13.png>\n\t\t\t\t\t</div>\n\t\t\t\t\t<div class=\"flip_card_back\">\n\t\t\t\t\t\t<h2>In what year was the first Nobel Prize awarded?</h2>\n\t\t\t\t\t\t<br>\n\t\t\t\t\t\t<p>Answer: <strong>1901</strong></p>\n\t\t\t\t\t</div>\n\t\t\t\t</div>\n\t\t\t</div>\n\t\t\t","response":null,"trial_type":"html-keyboard-response","trial_index":104,"time_elapsed":490186,"internal_node_id":"0.0-3.0-2.24","prolific_id":"5ba854ed7c0ebe0001272f2d","session_id":"643c24d9f0190e599219754d","study_id":"64370a36d30bfa807bc7e43c"},{"rt":611,"stimulus":"\n\t\t\t\t\t<div>\n\t\t\t\t\t<h2>Trial 25 is over</h2>\n\t\t\t\t\t<p>Press <span style=\"color: red\"><strong>any key</strong></span> to continue to the next trial</p>\n\t\t\t\t\t</div>\n\t\t\t\t","response":" ","trial_type":"html-keyboard-response","trial_index":105,"time_elapsed":490798,"internal_node_id":"0.0-3.0-3.24","prolific_id":"5ba854ed7c0ebe0001272f2d","session_id":"643c24d9f0190e599219754d","study_id":"64370a36d30bfa807bc7e43c"},{"rt":4730,"response":{"prediction":"25"},"trial_type":"survey-text","trial_index":106,"time_elapsed":495529,"internal_node_id":"0.0-3.0-0.25","prolific_id":"5ba854ed7c0ebe0001272f2d","session_id":"643c24d9f0190e599219754d","study_id":"64370a36d30bfa807bc7e43c"},{"rt":3920,"response":{"prior knowledge":0,"curiosity":4},"accuracy":[],"trial_type":"survey","trial_index":107,"time_elapsed":499463,"internal_node_id":"0.0-3.0-1.25","prolific_id":"5ba854ed7c0ebe0001272f2d","session_id":"643c24d9f0190e599219754d","study_id":"64370a36d30bfa807bc7e43c"},{"rt":null,"stimulus":"\n\t\t\t<div class=\"flip_card\">\n\t\t\t\t<div class=\"flip_card_inner\">\n\t\t\t\t\t<div class=\"flip_card_front\">\n\t\t\t\t\t\t<img src=img/12.png>\n\t\t\t\t\t</div>\n\t\t\t\t\t<div class=\"flip_card_back\">\n\t\t\t\t\t\t<h2>How many constellations are there?</h2>\n\t\t\t\t\t\t<br>\n\t\t\t\t\t\t<p>Answer: <strong>88</strong></p>\n\t\t\t\t\t</div>\n\t\t\t\t</div>\n\t\t\t</div>\n\t\t\t","response":null,"trial_type":"html-keyboard-response","trial_index":108,"time_elapsed":504465,"internal_node_id":"0.0-3.0-2.25","prolific_id":"5ba854ed7c0ebe0001272f2d","session_id":"643c24d9f0190e599219754d","study_id":"64370a36d30bfa807bc7e43c"},{"rt":469,"stimulus":"\n\t\t\t\t\t<div>\n\t\t\t\t\t<h2>Trial 26 is over</h2>\n\t\t\t\t\t<p>Press <span style=\"color: red\"><strong>any key</strong></span> to continue to the next trial</p>\n\t\t\t\t\t</div>\n\t\t\t\t","response":" ","trial_type":"html-keyboard-response","trial_index":109,"time_elapsed":504935,"internal_node_id":"0.0-3.0-3.25","prolific_id":"5ba854ed7c0ebe0001272f2d","session_id":"643c24d9f0190e599219754d","study_id":"64370a36d30bfa807bc7e43c"},{"rt":17170,"response":{"prediction":"25"},"trial_type":"survey-text","trial_index":110,"time_elapsed":522106,"internal_node_id":"0.0-3.0-0.26","prolific_id":"5ba854ed7c0ebe0001272f2d","session_id":"643c24d9f0190e599219754d","study_id":"64370a36d30bfa807bc7e43c"},{"rt":3518,"response":{"prior knowledge":0,"curiosity":2},"accuracy":[],"trial_type":"survey","trial_index":111,"time_elapsed":525640,"internal_node_id":"0.0-3.0-1.26","prolific_id":"5ba854ed7c0ebe0001272f2d","session_id":"643c24d9f0190e599219754d","study_id":"64370a36d30bfa807bc7e43c"},{"rt":null,"stimulus":"\n\t\t\t<div class=\"flip_card\">\n\t\t\t\t<div class=\"flip_card_inner\">\n\t\t\t\t\t<div class=\"flip_card_front\">\n\t\t\t\t\t\t<img src=img/7.png>\n\t\t\t\t\t</div>\n\t\t\t\t\t<div class=\"flip_card_back\">\n\t\t\t\t\t\t<h2>How many people are vegan globally (in millions)?</h2>\n\t\t\t\t\t\t<br>\n\t\t\t\t\t\t<p>Answer: <strong>79</strong></p>\n\t\t\t\t\t</div>\n\t\t\t\t</div>\n\t\t\t</div>\n\t\t\t","response":null,"trial_type":"html-keyboard-response","trial_index":112,"time_elapsed":530641,"internal_node_id":"0.0-3.0-2.26","prolific_id":"5ba854ed7c0ebe0001272f2d","session_id":"643c24d9f0190e599219754d","study_id":"64370a36d30bfa807bc7e43c"},{"rt":618,"stimulus":"\n\t\t\t\t\t<div>\n\t\t\t\t\t<h2>Trial 27 is over</h2>\n\t\t\t\t\t<p>Press <span style=\"color: red\"><strong>any key</strong></span> to continue to the next trial</p>\n\t\t\t\t\t</div>\n\t\t\t\t","response":" ","trial_type":"html-keyboard-response","trial_index":113,"time_elapsed":531259,"internal_node_id":"0.0-3.0-3.26","prolific_id":"5ba854ed7c0ebe0001272f2d","session_id":"643c24d9f0190e599219754d","study_id":"64370a36d30bfa807bc7e43c"},{"rt":6120,"response":{"prediction":"1921"},"trial_type":"survey-text","trial_index":114,"time_elapsed":537381,"internal_node_id":"0.0-3.0-0.27","prolific_id":"5ba854ed7c0ebe0001272f2d","session_id":"643c24d9f0190e599219754d","study_id":"64370a36d30bfa807bc7e43c"},{"rt":3361,"response":{"prior knowledge":0,"curiosity":0},"accuracy":[],"trial_type":"survey","trial_index":115,"time_elapsed":540755,"internal_node_id":"0.0-3.0-1.27","prolific_id":"5ba854ed7c0ebe0001272f2d","session_id":"643c24d9f0190e599219754d","study_id":"64370a36d30bfa807bc7e43c"},{"rt":null,"stimulus":"\n\t\t\t<div class=\"flip_card\">\n\t\t\t\t<div class=\"flip_card_inner\">\n\t\t\t\t\t<div class=\"flip_card_front\">\n\t\t\t\t\t\t<img src=img/29.png>\n\t\t\t\t\t</div>\n\t\t\t\t\t<div class=\"flip_card_back\">\n\t\t\t\t\t\t<h2>In what year was the Mexican artist Frida Kahlo born?</h2>\n\t\t\t\t\t\t<br>\n\t\t\t\t\t\t<p>Answer: <strong>1907</strong></p>\n\t\t\t\t\t</div>\n\t\t\t\t</div>\n\t\t\t</div>\n\t\t\t","response":null,"trial_type":"html-keyboard-response","trial_index":116,"time_elapsed":545757,"internal_node_id":"0.0-3.0-2.27","prolific_id":"5ba854ed7c0ebe0001272f2d","session_id":"643c24d9f0190e599219754d","study_id":"64370a36d30bfa807bc7e43c"},{"rt":575,"stimulus":"\n\t\t\t\t\t<div>\n\t\t\t\t\t<h2>Trial 28 is over</h2>\n\t\t\t\t\t<p>Press <span style=\"color: red\"><strong>any key</strong></span> to continue to the next trial</p>\n\t\t\t\t\t</div>\n\t\t\t\t","response":" ","trial_type":"html-keyboard-response","trial_index":117,"time_elapsed":546333,"internal_node_id":"0.0-3.0-3.27","prolific_id":"5ba854ed7c0ebe0001272f2d","session_id":"643c24d9f0190e599219754d","study_id":"64370a36d30bfa807bc7e43c"},{"rt":8213,"response":{"prediction":"40000"},"trial_type":"survey-text","trial_index":118,"time_elapsed":554548,"internal_node_id":"0.0-3.0-0.28","prolific_id":"5ba854ed7c0ebe0001272f2d","session_id":"643c24d9f0190e599219754d","study_id":"64370a36d30bfa807bc7e43c"},{"rt":3780,"response":{"prior knowledge":2,"curiosity":4},"accuracy":[],"trial_type":"survey","trial_index":119,"time_elapsed":558345,"internal_node_id":"0.0-3.0-1.28","prolific_id":"5ba854ed7c0ebe0001272f2d","session_id":"643c24d9f0190e599219754d","study_id":"64370a36d30bfa807bc7e43c"},{"rt":null,"stimulus":"\n\t\t\t<div class=\"flip_card\">\n\t\t\t\t<div class=\"flip_card_inner\">\n\t\t\t\t\t<div class=\"flip_card_front\">\n\t\t\t\t\t\t<img src=img/11.png>\n\t\t\t\t\t</div>\n\t\t\t\t\t<div class=\"flip_card_back\">\n\t\t\t\t\t\t<h2>What is the diameter of Earth in miles?</h2>\n\t\t\t\t\t\t<br>\n\t\t\t\t\t\t<p>Answer: <strong>7917.5</strong></p>\n\t\t\t\t\t</div>\n\t\t\t\t</div>\n\t\t\t</div>\n\t\t\t","response":null,"trial_type":"html-keyboard-response","trial_index":120,"time_elapsed":563348,"internal_node_id":"0.0-3.0-2.28","prolific_id":"5ba854ed7c0ebe0001272f2d","session_id":"643c24d9f0190e599219754d","study_id":"64370a36d30bfa807bc7e43c"},{"rt":2535,"stimulus":"\n\t\t\t\t\t<div>\n\t\t\t\t\t<h2>Trial 29 is over</h2>\n\t\t\t\t\t<p>Press <span style=\"color: red\"><strong>any key</strong></span> to continue to the next trial</p>\n\t\t\t\t\t</div>\n\t\t\t\t","response":" ","trial_type":"html-keyboard-response","trial_index":121,"time_elapsed":565883,"internal_node_id":"0.0-3.0-3.28","prolific_id":"5ba854ed7c0ebe0001272f2d","session_id":"643c24d9f0190e599219754d","study_id":"64370a36d30bfa807bc7e43c"},{"rt":5943,"response":{"prediction":"4"},"trial_type":"survey-text","trial_index":122,"time_elapsed":571828,"internal_node_id":"0.0-3.0-0.29","prolific_id":"5ba854ed7c0ebe0001272f2d","session_id":"643c24d9f0190e599219754d","study_id":"64370a36d30bfa807bc7e43c"},{"rt":3005,"response":{"prior knowledge":0,"curiosity":2},"accuracy":[],"trial_type":"survey","trial_index":123,"time_elapsed":574847,"internal_node_id":"0.0-3.0-1.29","prolific_id":"5ba854ed7c0ebe0001272f2d","session_id":"643c24d9f0190e599219754d","study_id":"64370a36d30bfa807bc7e43c"},{"rt":null,"stimulus":"\n\t\t\t<div class=\"flip_card\">\n\t\t\t\t<div class=\"flip_card_inner\">\n\t\t\t\t\t<div class=\"flip_card_front\">\n\t\t\t\t\t\t<img src=img/15.png>\n\t\t\t\t\t</div>\n\t\t\t\t\t<div class=\"flip_card_back\">\n\t\t\t\t\t\t<h2>How many main islands make up Japan?</h2>\n\t\t\t\t\t\t<br>\n\t\t\t\t\t\t<p>Answer: <strong>4</strong></p>\n\t\t\t\t\t</div>\n\t\t\t\t</div>\n\t\t\t</div>\n\t\t\t","response":null,"trial_type":"html-keyboard-response","trial_index":124,"time_elapsed":579849,"internal_node_id":"0.0-3.0-2.29","prolific_id":"5ba854ed7c0ebe0001272f2d","session_id":"643c24d9f0190e599219754d","study_id":"64370a36d30bfa807bc7e43c"},{"rt":536,"stimulus":"\n\t\t\t\t\t<div>\n\t\t\t\t\t<h2>Trial 30 is over</h2>\n\t\t\t\t\t<p>Press <span style=\"color: red\"><strong>any key</strong></span> to continue to the next trial</p>\n\t\t\t\t\t</div>\n\t\t\t\t","response":" ","trial_type":"html-keyboard-response","trial_index":125,"time_elapsed":580385,"internal_node_id":"0.0-3.0-3.29","prolific_id":"5ba854ed7c0ebe0001272f2d","session_id":"643c24d9f0190e599219754d","study_id":"64370a36d30bfa807bc7e43c"},{"rt":9430,"stimulus":"\n\t\t\t<h2>Good job! You've finished the 30 trials:p</h2>\n\t\t\t<p>In the next session, you will see two cards on the screen in each trial.</p>\n\t\t\t<p>On one card is a pattern that you have seen before in the experiment,\n\t\t\t\tand on the other card is one you have not seen.</p><br>\n\t\t\t<p>Your task is to choose the one you think you <em>have</em> seen before for every trial.</p>\n\t\t\t<p>Press '<span style=\"color: red;\"><strong>F</strong></span>' to choose the card on the left,\n\t\t\t\tand '<span style=\"color: red;\"><strong>J</strong></span>' to choose the card on the right.</p>\n\t\t\t<p>Have fun!</p>\n\t\t\t<br>\n\t\t\t<p>The trials will begin in 30 seconds</p>\n\t\t\t","response":" ","trial_type":"html-keyboard-response","trial_index":126,"time_elapsed":589816,"internal_node_id":"0.0-4.0","prolific_id":"5ba854ed7c0ebe0001272f2d","session_id":"643c24d9f0190e599219754d","study_id":"64370a36d30bfa807bc7e43c"},{"rt":2384,"stimulus":"\n\t\t\t\t\t\t<div class=\"two_card_container\">\n\t\t\t\t\t\t<div class=\"card_container\">\n\t\t\t\t\t\t<img src=img/21.png>\n\t\t\t\t\t\t</div>\n\n\t\t\t\t\t\t<div class=\"card_container\">\n\t\t\t\t\t\t<img src=img/36.png>\n\t\t\t\t\t\t</div>","response":"f","task":"response","correct_response":"f","trial_type":"html-keyboard-response","trial_index":127,"time_elapsed":592201,"internal_node_id":"0.0-5.0-0.0","prolific_id":"5ba854ed7c0ebe0001272f2d","session_id":"643c24d9f0190e599219754d","study_id":"64370a36d30bfa807bc7e43c","correct":true},{"rt":null,"stimulus":"\n\t\t\t\t\t<p>Correct!</p>\n\t\t\t\t\t","response":null,"trial_type":"html-keyboard-response","trial_index":128,"time_elapsed":593202,"internal_node_id":"0.0-5.0-1.0","prolific_id":"5ba854ed7c0ebe0001272f2d","session_id":"643c24d9f0190e599219754d","study_id":"64370a36d30bfa807bc7e43c"},{"rt":1792,"stimulus":"\n\t\t\t\t\t\t<div class=\"two_card_container\">\n\t\t\t\t\t\t<div class=\"card_container\">\n\t\t\t\t\t\t<img src=img/32.png>\n\t\t\t\t\t\t</div>\n\n\t\t\t\t\t\t<div class=\"card_container\">\n\t\t\t\t\t\t<img src=img/2.png>\n\t\t\t\t\t\t</div>","response":"j","task":"response","correct_response":"j","trial_type":"html-keyboard-response","trial_index":129,"time_elapsed":594995,"internal_node_id":"0.0-5.0-0.1","prolific_id":"5ba854ed7c0ebe0001272f2d","session_id":"643c24d9f0190e599219754d","study_id":"64370a36d30bfa807bc7e43c","correct":true},{"rt":null,"stimulus":"\n\t\t\t\t\t<p>Correct!</p>\n\t\t\t\t\t","response":null,"trial_type":"html-keyboard-response","trial_index":130,"time_elapsed":595997,"internal_node_id":"0.0-5.0-1.1","prolific_id":"5ba854ed7c0ebe0001272f2d","session_id":"643c24d9f0190e599219754d","study_id":"64370a36d30bfa807bc7e43c"},{"rt":1004,"stimulus":"\n\t\t\t\t\t\t<div class=\"two_card_container\">\n\t\t\t\t\t\t<div class=\"card_container\">\n\t\t\t\t\t\t<img src=img/18.png>\n\t\t\t\t\t\t</div>\n\n\t\t\t\t\t\t<div class=\"card_container\">\n\t\t\t\t\t\t<img src=img/34.png>\n\t\t\t\t\t\t</div>","response":"f","task":"response","correct_response":"f","trial_type":"html-keyboard-response","trial_index":131,"time_elapsed":597002,"internal_node_id":"0.0-5.0-0.2","prolific_id":"5ba854ed7c0ebe0001272f2d","session_id":"643c24d9f0190e599219754d","study_id":"64370a36d30bfa807bc7e43c","correct":true},{"rt":null,"stimulus":"\n\t\t\t\t\t<p>Correct!</p>\n\t\t\t\t\t","response":null,"trial_type":"html-keyboard-response","trial_index":132,"time_elapsed":598003,"internal_node_id":"0.0-5.0-1.2","prolific_id":"5ba854ed7c0ebe0001272f2d","session_id":"643c24d9f0190e599219754d","study_id":"64370a36d30bfa807bc7e43c"},{"rt":860,"stimulus":"\n\t\t\t\t\t\t<div class=\"two_card_container\">\n\t\t\t\t\t\t<div class=\"card_container\">\n\t\t\t\t\t\t<img src=img/19.png>\n\t\t\t\t\t\t</div>\n\n\t\t\t\t\t\t<div class=\"card_container\">\n\t\t\t\t\t\t<img src=img/37.png>\n\t\t\t\t\t\t</div>","response":"f","task":"response","correct_response":"f","trial_type":"html-keyboard-response","trial_index":133,"time_elapsed":598864,"internal_node_id":"0.0-5.0-0.3","prolific_id":"5ba854ed7c0ebe0001272f2d","session_id":"643c24d9f0190e599219754d","study_id":"64370a36d30bfa807bc7e43c","correct":true},{"rt":null,"stimulus":"\n\t\t\t\t\t<p>Correct!</p>\n\t\t\t\t\t","response":null,"trial_type":"html-keyboard-response","trial_index":134,"time_elapsed":599866,"internal_node_id":"0.0-5.0-1.3","prolific_id":"5ba854ed7c0ebe0001272f2d","session_id":"643c24d9f0190e599219754d","study_id":"64370a36d30bfa807bc7e43c"},{"rt":1277,"stimulus":"\n\t\t\t\t\t\t<div class=\"two_card_container\">\n\t\t\t\t\t\t<div class=\"card_container\">\n\t\t\t\t\t\t<img src=img/11.png>\n\t\t\t\t\t\t</div>\n\n\t\t\t\t\t\t<div class=\"card_container\">\n\t\t\t\t\t\t<img src=img/40.png>\n\t\t\t\t\t\t</div>","response":"f","task":"response","correct_response":"f","trial_type":"html-keyboard-response","trial_index":135,"time_elapsed":601144,"internal_node_id":"0.0-5.0-0.4","prolific_id":"5ba854ed7c0ebe0001272f2d","session_id":"643c24d9f0190e599219754d","study_id":"64370a36d30bfa807bc7e43c","correct":true},{"rt":null,"stimulus":"\n\t\t\t\t\t<p>Correct!</p>\n\t\t\t\t\t","response":null,"trial_type":"html-keyboard-response","trial_index":136,"time_elapsed":602145,"internal_node_id":"0.0-5.0-1.4","prolific_id":"5ba854ed7c0ebe0001272f2d","session_id":"643c24d9f0190e599219754d","study_id":"64370a36d30bfa807bc7e43c"},{"rt":852,"stimulus":"\n\t\t\t\t\t\t<div class=\"two_card_container\">\n\t\t\t\t\t\t<div class=\"card_container\">\n\t\t\t\t\t\t<img src=img/39.png>\n\t\t\t\t\t\t</div>\n\n\t\t\t\t\t\t<div class=\"card_container\">\n\t\t\t\t\t\t<img src=img/23.png>\n\t\t\t\t\t\t</div>","response":"j","task":"response","correct_response":"j","trial_type":"html-keyboard-response","trial_index":137,"time_elapsed":602998,"internal_node_id":"0.0-5.0-0.5","prolific_id":"5ba854ed7c0ebe0001272f2d","session_id":"643c24d9f0190e599219754d","study_id":"64370a36d30bfa807bc7e43c","correct":true},{"rt":null,"stimulus":"\n\t\t\t\t\t<p>Correct!</p>\n\t\t\t\t\t","response":null,"trial_type":"html-keyboard-response","trial_index":138,"time_elapsed":603999,"internal_node_id":"0.0-5.0-1.5","prolific_id":"5ba854ed7c0ebe0001272f2d","session_id":"643c24d9f0190e599219754d","study_id":"64370a36d30bfa807bc7e43c"},{"rt":899,"stimulus":"\n\t\t\t\t\t\t<div class=\"two_card_container\">\n\t\t\t\t\t\t<div class=\"card_container\">\n\t\t\t\t\t\t<img src=img/35.png>\n\t\t\t\t\t\t</div>\n\n\t\t\t\t\t\t<div class=\"card_container\">\n\t\t\t\t\t\t<img src=img/12.png>\n\t\t\t\t\t\t</div>","response":"j","task":"response","correct_response":"j","trial_type":"html-keyboard-response","trial_index":139,"time_elapsed":604898,"internal_node_id":"0.0-5.0-0.6","prolific_id":"5ba854ed7c0ebe0001272f2d","session_id":"643c24d9f0190e599219754d","study_id":"64370a36d30bfa807bc7e43c","correct":true},{"rt":null,"stimulus":"\n\t\t\t\t\t<p>Correct!</p>\n\t\t\t\t\t","response":null,"trial_type":"html-keyboard-response","trial_index":140,"time_elapsed":605900,"internal_node_id":"0.0-5.0-1.6","prolific_id":"5ba854ed7c0ebe0001272f2d","session_id":"643c24d9f0190e599219754d","study_id":"64370a36d30bfa807bc7e43c"},{"rt":953,"stimulus":"\n\t\t\t\t\t\t<div class=\"two_card_container\">\n\t\t\t\t\t\t<div class=\"card_container\">\n\t\t\t\t\t\t<img src=img/31.png>\n\t\t\t\t\t\t</div>\n\n\t\t\t\t\t\t<div class=\"card_container\">\n\t\t\t\t\t\t<img src=img/24.png>\n\t\t\t\t\t\t</div>","response":"j","task":"response","correct_response":"j","trial_type":"html-keyboard-response","trial_index":141,"time_elapsed":606854,"internal_node_id":"0.0-5.0-0.7","prolific_id":"5ba854ed7c0ebe0001272f2d","session_id":"643c24d9f0190e599219754d","study_id":"64370a36d30bfa807bc7e43c","correct":true},{"rt":null,"stimulus":"\n\t\t\t\t\t<p>Correct!</p>\n\t\t\t\t\t","response":null,"trial_type":"html-keyboard-response","trial_index":142,"time_elapsed":607856,"internal_node_id":"0.0-5.0-1.7","prolific_id":"5ba854ed7c0ebe0001272f2d","session_id":"643c24d9f0190e599219754d","study_id":"64370a36d30bfa807bc7e43c"},{"rt":1383,"stimulus":"\n\t\t\t\t\t\t<div class=\"two_card_container\">\n\t\t\t\t\t\t<div class=\"card_container\">\n\t\t\t\t\t\t<img src=img/33.png>\n\t\t\t\t\t\t</div>\n\n\t\t\t\t\t\t<div class=\"card_container\">\n\t\t\t\t\t\t<img src=img/14.png>\n\t\t\t\t\t\t</div>","response":"f","task":"response","correct_response":"j","trial_type":"html-keyboard-response","trial_index":143,"time_elapsed":609240,"internal_node_id":"0.0-5.0-0.8","prolific_id":"5ba854ed7c0ebe0001272f2d","session_id":"643c24d9f0190e599219754d","study_id":"64370a36d30bfa807bc7e43c","correct":false},{"rt":null,"stimulus":"\n\t\t\t\t\t<p>Wrong answer</p>\n\t\t\t\t\t","response":null,"trial_type":"html-keyboard-response","trial_index":144,"time_elapsed":610241,"internal_node_id":"0.0-5.0-1.8","prolific_id":"5ba854ed7c0ebe0001272f2d","session_id":"643c24d9f0190e599219754d","study_id":"64370a36d30bfa807bc7e43c"},{"rt":1334,"stimulus":"\n\t\t\t\t\t\t<div class=\"two_card_container\">\n\t\t\t\t\t\t<div class=\"card_container\">\n\t\t\t\t\t\t<img src=img/4.png>\n\t\t\t\t\t\t</div>\n\n\t\t\t\t\t\t<div class=\"card_container\">\n\t\t\t\t\t\t<img src=img/38.png>\n\t\t\t\t\t\t</div>","response":"f","task":"response","correct_response":"f","trial_type":"html-keyboard-response","trial_index":145,"time_elapsed":611576,"internal_node_id":"0.0-5.0-0.9","prolific_id":"5ba854ed7c0ebe0001272f2d","session_id":"643c24d9f0190e599219754d","study_id":"64370a36d30bfa807bc7e43c","correct":true},{"rt":null,"stimulus":"\n\t\t\t\t\t<p>Correct!</p>\n\t\t\t\t\t","response":null,"trial_type":"html-keyboard-response","trial_index":146,"time_elapsed":612578,"internal_node_id":"0.0-5.0-1.9","prolific_id":"5ba854ed7c0ebe0001272f2d","session_id":"643c24d9f0190e599219754d","study_id":"64370a36d30bfa807bc7e43c"},{"rt":8732,"stimulus":"\n\t\t\t<h2>Good job :p</h2>\n\t\t\t<p>In the next session, you will see a trivia question on the screen in each trial.</p>\n\t\t\t<p>Each of these trivia questions is chosen from the questions you have already seen in the first session of the experiment.</p><br>\n\t\t\t<p>Your task is to answer the trivia question based on what you remember as accurately as you can.</p>\n\t\t\t<p>Have fun!</p>\n\t\t\t<br>\n\t\t\t<p>The trials will begin in 30 seconds</p>\n\t\t\t","response":" ","trial_type":"html-keyboard-response","trial_index":147,"time_elapsed":621310,"internal_node_id":"0.0-6.0","prolific_id":"5ba854ed7c0ebe0001272f2d","session_id":"643c24d9f0190e599219754d","study_id":"64370a36d30bfa807bc7e43c"},{"rt":4484,"response":{"answer":"27"},"task":"response","correct_response":"28","trial_type":"survey-text","trial_index":148,"time_elapsed":625797,"internal_node_id":"0.0-7.0-0.0","prolific_id":"5ba854ed7c0ebe0001272f2d","session_id":"643c24d9f0190e599219754d","study_id":"64370a36d30bfa807bc7e43c","difference":4},{"rt":null,"stimulus":"<h2>The correct answer is 28.</h2><p>Your answer was different from the answer by 1.</p><p>Excellent. Kudos to you!</p>","response":null,"trial_type":"html-keyboard-response","trial_index":149,"time_elapsed":628298,"internal_node_id":"0.0-7.0-1.0","prolific_id":"5ba854ed7c0ebe0001272f2d","session_id":"643c24d9f0190e599219754d","study_id":"64370a36d30bfa807bc7e43c"},{"rt":3684,"response":{"answer":"54"},"task":"response","correct_response":"54","trial_type":"survey-text","trial_index":150,"time_elapsed":631984,"internal_node_id":"0.0-7.0-0.1","prolific_id":"5ba854ed7c0ebe0001272f2d","session_id":"643c24d9f0190e599219754d","study_id":"64370a36d30bfa807bc7e43c","difference":0},{"rt":null,"stimulus":"<h2>The correct answer is 54.</h2><p>Your answer was different from the answer by 0.</p><p>You got the right answer. Amazing work!</p>","response":null,"trial_type":"html-keyboard-response","trial_index":151,"time_elapsed":634486,"internal_node_id":"0.0-7.0-1.1","prolific_id":"5ba854ed7c0ebe0001272f2d","session_id":"643c24d9f0190e599219754d","study_id":"64370a36d30bfa807bc7e43c"},{"rt":2278,"response":{"answer":"300"},"task":"response","correct_response":"300","trial_type":"survey-text","trial_index":152,"time_elapsed":636765,"internal_node_id":"0.0-7.0-0.2","prolific_id":"5ba854ed7c0ebe0001272f2d","session_id":"643c24d9f0190e599219754d","study_id":"64370a36d30bfa807bc7e43c","difference":0},{"rt":null,"stimulus":"<h2>The correct answer is 300.</h2><p>Your answer was different from the answer by 0.</p><p>You got the right answer. Amazing work!</p>","response":null,"trial_type":"html-keyboard-response","trial_index":153,"time_elapsed":639267,"internal_node_id":"0.0-7.0-1.2","prolific_id":"5ba854ed7c0ebe0001272f2d","session_id":"643c24d9f0190e599219754d","study_id":"64370a36d30bfa807bc7e43c"},{"rt":3552,"response":{"answer":"7914"},"task":"response","correct_response":"7917.5","trial_type":"survey-text","trial_index":154,"time_elapsed":642822,"internal_node_id":"0.0-7.0-0.3","prolific_id":"5ba854ed7c0ebe0001272f2d","session_id":"643c24d9f0190e599219754d","study_id":"64370a36d30bfa807bc7e43c","difference":0},{"rt":null,"stimulus":"<h2>The correct answer is 7917.5.</h2><p>Your answer was different from the answer by 3.5.</p><p>Excellent. Kudos to you!</p>","response":null,"trial_type":"html-keyboard-response","trial_index":155,"time_elapsed":645323,"internal_node_id":"0.0-7.0-1.3","prolific_id":"5ba854ed7c0ebe0001272f2d","session_id":"643c24d9f0190e599219754d","study_id":"64370a36d30bfa807bc7e43c"},{"rt":1597,"response":{"answer":"7"},"task":"response","correct_response":"6","trial_type":"survey-text","trial_index":156,"time_elapsed":646922,"internal_node_id":"0.0-7.0-0.4","prolific_id":"5ba854ed7c0ebe0001272f2d","session_id":"643c24d9f0190e599219754d","study_id":"64370a36d30bfa807bc7e43c","difference":17},{"rt":null,"stimulus":"<h2>The correct answer is 6.</h2><p>Your answer was different from the answer by 1.</p><p>A pretty good job indeed.</p>","response":null,"trial_type":"html-keyboard-response","trial_index":157,"time_elapsed":649424,"internal_node_id":"0.0-7.0-1.4","prolific_id":"5ba854ed7c0ebe0001272f2d","session_id":"643c24d9f0190e599219754d","study_id":"64370a36d30bfa807bc7e43c"},{"rt":2986,"response":{"answer":"13000"},"task":"response","correct_response":"13171","trial_type":"survey-text","trial_index":158,"time_elapsed":652414,"internal_node_id":"0.0-7.0-0.5","prolific_id":"5ba854ed7c0ebe0001272f2d","session_id":"643c24d9f0190e599219754d","study_id":"64370a36d30bfa807bc7e43c","difference":1},{"rt":null,"stimulus":"<h2>The correct answer is 13171.</h2><p>Your answer was different from the answer by 171.</p><p>Excellent. Kudos to you!</p>","response":null,"trial_type":"html-keyboard-response","trial_index":159,"time_elapsed":654915,"internal_node_id":"0.0-7.0-1.5","prolific_id":"5ba854ed7c0ebe0001272f2d","session_id":"643c24d9f0190e599219754d","study_id":"64370a36d30bfa807bc7e43c"},{"rt":1895,"response":{"answer":"11"},"task":"response","correct_response":"11","trial_type":"survey-text","trial_index":160,"time_elapsed":656812,"internal_node_id":"0.0-7.0-0.6","prolific_id":"5ba854ed7c0ebe0001272f2d","session_id":"643c24d9f0190e599219754d","study_id":"64370a36d30bfa807bc7e43c","difference":0},{"rt":null,"stimulus":"<h2>The correct answer is 11.</h2><p>Your answer was different from the answer by 0.</p><p>You got the right answer. Amazing work!</p>","response":null,"trial_type":"html-keyboard-response","trial_index":161,"time_elapsed":659314,"internal_node_id":"0.0-7.0-1.6","prolific_id":"5ba854ed7c0ebe0001272f2d","session_id":"643c24d9f0190e599219754d","study_id":"64370a36d30bfa807bc7e43c"},{"rt":1582,"response":{"answer":"88"},"task":"response","correct_response":"88","trial_type":"survey-text","trial_index":162,"time_elapsed":660898,"internal_node_id":"0.0-7.0-0.7","prolific_id":"5ba854ed7c0ebe0001272f2d","session_id":"643c24d9f0190e599219754d","study_id":"64370a36d30bfa807bc7e43c","difference":0},{"rt":null,"stimulus":"<h2>The correct answer is 88.</h2><p>Your answer was different from the answer by 0.</p><p>You got the right answer. Amazing work!</p>","response":null,"trial_type":"html-keyboard-response","trial_index":163,"time_elapsed":663400,"internal_node_id":"0.0-7.0-1.7","prolific_id":"5ba854ed7c0ebe0001272f2d","session_id":"643c24d9f0190e599219754d","study_id":"64370a36d30bfa807bc7e43c"},{"rt":1939,"response":{"answer":"13"},"task":"response","correct_response":"13","trial_type":"survey-text","trial_index":164,"time_elapsed":665341,"internal_node_id":"0.0-7.0-0.8","prolific_id":"5ba854ed7c0ebe0001272f2d","session_id":"643c24d9f0190e599219754d","study_id":"64370a36d30bfa807bc7e43c","difference":0},{"rt":null,"stimulus":"<h2>The correct answer is 13.</h2><p>Your answer was different from the answer by 0.</p><p>You got the right answer. Amazing work!</p>","response":null,"trial_type":"html-keyboard-response","trial_index":165,"time_elapsed":667842,"internal_node_id":"0.0-7.0-1.8","prolific_id":"5ba854ed7c0ebe0001272f2d","session_id":"643c24d9f0190e599219754d","study_id":"64370a36d30bfa807bc7e43c"},{"rt":2408,"response":{"answer":"108"},"task":"response","correct_response":"108","trial_type":"survey-text","trial_index":166,"time_elapsed":670252,"internal_node_id":"0.0-7.0-0.9","prolific_id":"5ba854ed7c0ebe0001272f2d","session_id":"643c24d9f0190e599219754d","study_id":"64370a36d30bfa807bc7e43c","difference":0},{"rt":null,"stimulus":"<h2>The correct answer is 108.</h2><p>Your answer was different from the answer by 0.</p><p>You got the right answer. Amazing work!</p>","response":null,"trial_type":"html-keyboard-response","trial_index":167,"time_elapsed":672753,"internal_node_id":"0.0-7.0-1.9","prolific_id":"5ba854ed7c0ebe0001272f2d","session_id":"643c24d9f0190e599219754d","study_id":"64370a36d30bfa807bc7e43c"}]