[{"success":true,"timeout":false,"failed_images":[],"failed_audio":[],"failed_video":[],"trial_type":"preload","trial_index":0,"time_elapsed":2895,"internal_node_id":"0.0-0.0","prolific_id":"5c52bfa7d3cc6b0001d9352e","session_id":"643c24ed8acb6df5963398d7","study_id":"64370a36d30bfa807bc7e43c"},{"rt":9556,"stimulus":"\n\t\t\t\t\t<p>Welcome and thank you for participating in this study!</p>\n\t\t\t\t\t<p>In each trial, you will be given a trivia question and then be asked to:</p><br>\n\t\t\t\t\t<div class=\"list\">\n\t\t\t\t\t<p>1) Predict the answer</p>\n\t\t\t\t\t<p>2) Rate how much you already know about the topic</p>\n\t\t\t\t\t<p>3) Rate how much you want to know the answer</p>\n\t\t\t\t\t</div>\n\t\t\t\t\t<br>\n\t\t\t\t\t<p>Then, you will see a card that flips over to reveal the answer.</p>\n\t\t\t\t\t<br>\n\t\t\t\t\t<p>Let's try a practice round. Press <span style=\"color: red\"><strong>any key</strong></span> to move to the next slide</p>\n\t\t\t\t\t","response":"d","trial_type":"html-keyboard-response","trial_index":1,"time_elapsed":12451,"internal_node_id":"0.0-1.0","prolific_id":"5c52bfa7d3cc6b0001d9352e","session_id":"643c24ed8acb6df5963398d7","study_id":"64370a36d30bfa807bc7e43c"},{"rt":9540,"response":{"practice prediction":"6"},"task":"practice","trial_type":"survey-text","trial_index":2,"time_elapsed":22004,"internal_node_id":"0.0-2.0-0.0","prolific_id":"5c52bfa7d3cc6b0001d9352e","session_id":"643c24ed8acb6df5963398d7","study_id":"64370a36d30bfa807bc7e43c"},{"rt":7147,"response":{"practice":5},"accuracy":[],"trial_type":"survey","trial_index":3,"time_elapsed":29178,"internal_node_id":"0.0-2.0-1.0","prolific_id":"5c52bfa7d3cc6b0001d9352e","session_id":"643c24ed8acb6df5963398d7","study_id":"64370a36d30bfa807bc7e43c"},{"rt":null,"stimulus":"\n\t\t\t\t<div class=\"flip_card\">\n\t\t\t\t\t<div class=\"flip_card_inner\">\n\t\t\t\t\t\t<div class=\"flip_card_front\">\n\t\t\t\t\t\t\t<img src=img/practice.png>\n\t\t\t\t\t\t</div>\n\t\t\t\t\t\t<div class=\"flip_card_back\">\n\t\t\t\t\t\t\t<h2>\"How many legs does a lobster have?\"</h2>\n\t\t\t\t\t\t    <br>\n\t\t\t\t\t\t    <p>Answer: <strong>\"10\"</strong></p>\n\t\t\t\t\t    </div>\n\t\t\t\t    </div>\n\t\t\t    </div>\n\t\t\t\t","response":null,"trial_type":"html-keyboard-response","trial_index":4,"time_elapsed":34187,"internal_node_id":"0.0-2.0-2.0","prolific_id":"5c52bfa7d3cc6b0001d9352e","session_id":"643c24ed8acb6df5963398d7","study_id":"64370a36d30bfa807bc7e43c"},{"rt":5320,"stimulus":"\n\t\t\t\t\t<div>\n\t\t\t\t\t<h2>The practice round is over</h2>\n\t\t\t\t\t<p>Press <span style=\"color: red\"><strong>any key</strong></span> to continue to the actual trials</p>\n\t\t\t\t\t<p>Good Luck!</p>\n\t\t\t\t\t</div>\n\t\t\t\t\t","response":"6","trial_type":"html-keyboard-response","trial_index":5,"time_elapsed":39508,"internal_node_id":"0.0-2.0-3.0","prolific_id":"5c52bfa7d3cc6b0001d9352e","session_id":"643c24ed8acb6df5963398d7","study_id":"64370a36d30bfa807bc7e43c"},{"rt":6160,"response":{"prediction":"1753"},"trial_type":"survey-text","trial_index":6,"time_elapsed":45670,"internal_node_id":"0.0-3.0-0.0","prolific_id":"5c52bfa7d3cc6b0001d9352e","session_id":"643c24ed8acb6df5963398d7","study_id":"64370a36d30bfa807bc7e43c"},{"rt":2662,"response":{"prior knowledge":0,"curiosity":5},"accuracy":[],"trial_type":"survey","trial_index":7,"time_elapsed":48340,"internal_node_id":"0.0-3.0-1.0","prolific_id":"5c52bfa7d3cc6b0001d9352e","session_id":"643c24ed8acb6df5963398d7","study_id":"64370a36d30bfa807bc7e43c"},{"rt":null,"stimulus":"\n\t\t\t<div class=\"flip_card\">\n\t\t\t\t<div class=\"flip_card_inner\">\n\t\t\t\t\t<div class=\"flip_card_front\">\n\t\t\t\t\t\t<img src=img/27.png>\n\t\t\t\t\t</div>\n\t\t\t\t\t<div class=\"flip_card_back\">\n\t\t\t\t\t\t<h2>In what year was the Mexican artist Frida Kahlo born?</h2>\n\t\t\t\t\t\t<br>\n\t\t\t\t\t\t<p>Answer: <strong>1907</strong></p>\n\t\t\t\t\t</div>\n\t\t\t\t</div>\n\t\t\t</div>\n\t\t\t","response":null,"trial_type":"html-keyboard-response","trial_index":8,"time_elapsed":53355,"internal_node_id":"0.0-3.0-2.0","prolific_id":"5c52bfa7d3cc6b0001d9352e","session_id":"643c24ed8acb6df5963398d7","study_id":"64370a36d30bfa807bc7e43c"},{"rt":1312,"stimulus":"\n\t\t\t\t\t<div>\n\t\t\t\t\t<h2>Trial 1 is over</h2>\n\t\t\t\t\t<p>Press <span style=\"color: red\"><strong>any key</strong></span> to continue to the next trial</p>\n\t\t\t\t\t</div>\n\t\t\t\t","response":"s","trial_type":"html-keyboard-response","trial_index":9,"time_elapsed":54667,"internal_node_id":"0.0-3.0-3.0","prolific_id":"5c52bfa7d3cc6b0001d9352e","session_id":"643c24ed8acb6df5963398d7","study_id":"64370a36d30bfa807bc7e43c"},{"rt":4377,"response":{"prediction":"24"},"trial_type":"survey-text","trial_index":10,"time_elapsed":59046,"internal_node_id":"0.0-3.0-0.1","prolific_id":"5c52bfa7d3cc6b0001d9352e","session_id":"643c24ed8acb6df5963398d7","study_id":"64370a36d30bfa807bc7e43c"},{"rt":2076,"response":{"prior knowledge":0,"curiosity":5},"accuracy":[],"trial_type":"survey","trial_index":11,"time_elapsed":61129,"internal_node_id":"0.0-3.0-1.1","prolific_id":"5c52bfa7d3cc6b0001d9352e","session_id":"643c24ed8acb6df5963398d7","study_id":"64370a36d30bfa807bc7e43c"},{"rt":null,"stimulus":"\n\t\t\t<div class=\"flip_card\">\n\t\t\t\t<div class=\"flip_card_inner\">\n\t\t\t\t\t<div class=\"flip_card_front\">\n\t\t\t\t\t\t<img src=img/1.png>\n\t\t\t\t\t</div>\n\t\t\t\t\t<div class=\"flip_card_back\">\n\t\t\t\t\t\t<h2>How many countries are in Africa?</h2>\n\t\t\t\t\t\t<br>\n\t\t\t\t\t\t<p>Answer: <strong>54</strong></p>\n\t\t\t\t\t</div>\n\t\t\t\t</div>\n\t\t\t</div>\n\t\t\t","response":null,"trial_type":"html-keyboard-response","trial_index":12,"time_elapsed":66877,"internal_node_id":"0.0-3.0-2.1","prolific_id":"5c52bfa7d3cc6b0001d9352e","session_id":"643c24ed8acb6df5963398d7","study_id":"64370a36d30bfa807bc7e43c"},{"rt":2975,"stimulus":"\n\t\t\t\t\t<div>\n\t\t\t\t\t<h2>Trial 2 is over</h2>\n\t\t\t\t\t<p>Press <span style=\"color: red\"><strong>any key</strong></span> to continue to the next trial</p>\n\t\t\t\t\t</div>\n\t\t\t\t","response":"d","trial_type":"html-keyboard-response","trial_index":13,"time_elapsed":69852,"internal_node_id":"0.0-3.0-3.1","prolific_id":"5c52bfa7d3cc6b0001d9352e","session_id":"643c24ed8acb6df5963398d7","study_id":"64370a36d30bfa807bc7e43c"},{"rt":5211,"response":{"prediction":"108"},"trial_type":"survey-text","trial_index":14,"time_elapsed":75065,"internal_node_id":"0.0-3.0-0.2","prolific_id":"5c52bfa7d3cc6b0001d9352e","session_id":"643c24ed8acb6df5963398d7","study_id":"64370a36d30bfa807bc7e43c"},{"rt":4079,"response":{"prior knowledge":1,"curiosity":5},"accuracy":[],"trial_type":"survey","trial_index":15,"time_elapsed":79152,"internal_node_id":"0.0-3.0-1.2","prolific_id":"5c52bfa7d3cc6b0001d9352e","session_id":"643c24ed8acb6df5963398d7","study_id":"64370a36d30bfa807bc7e43c"},{"rt":null,"stimulus":"\n\t\t\t<div class=\"flip_card\">\n\t\t\t\t<div class=\"flip_card_inner\">\n\t\t\t\t\t<div class=\"flip_card_front\">\n\t\t\t\t\t\t<img src=img/12.png>\n\t\t\t\t\t</div>\n\t\t\t\t\t<div class=\"flip_card_back\">\n\t\t\t\t\t\t<h2>How many double stitches does a baseball have?</h2>\n\t\t\t\t\t\t<br>\n\t\t\t\t\t\t<p>Answer: <strong>108</strong></p>\n\t\t\t\t\t</div>\n\t\t\t\t</div>\n\t\t\t</div>\n\t\t\t","response":null,"trial_type":"html-keyboard-response","trial_index":16,"time_elapsed":84161,"internal_node_id":"0.0-3.0-2.2","prolific_id":"5c52bfa7d3cc6b0001d9352e","session_id":"643c24ed8acb6df5963398d7","study_id":"64370a36d30bfa807bc7e43c"},{"rt":14458,"stimulus":"\n\t\t\t\t\t<div>\n\t\t\t\t\t<h2>Trial 3 is over</h2>\n\t\t\t\t\t<p>Press <span style=\"color: red\"><strong>any key</strong></span> to continue to the next trial</p>\n\t\t\t\t\t</div>\n\t\t\t\t","response":"d","trial_type":"html-keyboard-response","trial_index":17,"time_elapsed":98618,"internal_node_id":"0.0-3.0-3.2","prolific_id":"5c52bfa7d3cc6b0001d9352e","session_id":"643c24ed8acb6df5963398d7","study_id":"64370a36d30bfa807bc7e43c"},{"rt":7366,"response":{"prediction":"40000"},"trial_type":"survey-text","trial_index":18,"time_elapsed":105985,"internal_node_id":"0.0-3.0-0.3","prolific_id":"5c52bfa7d3cc6b0001d9352e","session_id":"643c24ed8acb6df5963398d7","study_id":"64370a36d30bfa807bc7e43c"},{"rt":3514,"response":{"prior knowledge":1,"curiosity":5},"accuracy":[],"trial_type":"survey","trial_index":19,"time_elapsed":109509,"internal_node_id":"0.0-3.0-1.3","prolific_id":"5c52bfa7d3cc6b0001d9352e","session_id":"643c24ed8acb6df5963398d7","study_id":"64370a36d30bfa807bc7e43c"},{"rt":null,"stimulus":"\n\t\t\t<div class=\"flip_card\">\n\t\t\t\t<div class=\"flip_card_inner\">\n\t\t\t\t\t<div class=\"flip_card_front\">\n\t\t\t\t\t\t<img src=img/26.png>\n\t\t\t\t\t</div>\n\t\t\t\t\t<div class=\"flip_card_back\">\n\t\t\t\t\t\t<h2>What is the diameter of Earth in miles?</h2>\n\t\t\t\t\t\t<br>\n\t\t\t\t\t\t<p>Answer: <strong>7917.5</strong></p>\n\t\t\t\t\t</div>\n\t\t\t\t</div>\n\t\t\t</div>\n\t\t\t","response":null,"trial_type":"html-keyboard-response","trial_index":20,"time_elapsed":114510,"internal_node_id":"0.0-3.0-2.3","prolific_id":"5c52bfa7d3cc6b0001d9352e","session_id":"643c24ed8acb6df5963398d7","study_id":"64370a36d30bfa807bc7e43c"},{"rt":1280,"stimulus":"\n\t\t\t\t\t<div>\n\t\t\t\t\t<h2>Trial 4 is over</h2>\n\t\t\t\t\t<p>Press <span style=\"color: red\"><strong>any key</strong></span> to continue to the next trial</p>\n\t\t\t\t\t</div>\n\t\t\t\t","response":"d","trial_type":"html-keyboard-response","trial_index":21,"time_elapsed":115791,"internal_node_id":"0.0-3.0-3.3","prolific_id":"5c52bfa7d3cc6b0001d9352e","session_id":"643c24ed8acb6df5963398d7","study_id":"64370a36d30bfa807bc7e43c"},{"rt":4254,"response":{"prediction":"1"},"trial_type":"survey-text","trial_index":22,"time_elapsed":120046,"internal_node_id":"0.0-3.0-0.4","prolific_id":"5c52bfa7d3cc6b0001d9352e","session_id":"643c24ed8acb6df5963398d7","study_id":"64370a36d30bfa807bc7e43c"},{"rt":3042,"response":{"prior knowledge":2,"curiosity":5},"accuracy":[],"trial_type":"survey","trial_index":23,"time_elapsed":123096,"internal_node_id":"0.0-3.0-1.4","prolific_id":"5c52bfa7d3cc6b0001d9352e","session_id":"643c24ed8acb6df5963398d7","study_id":"64370a36d30bfa807bc7e43c"},{"rt":null,"stimulus":"\n\t\t\t<div class=\"flip_card\">\n\t\t\t\t<div class=\"flip_card_inner\">\n\t\t\t\t\t<div class=\"flip_card_front\">\n\t\t\t\t\t\t<img src=img/22.png>\n\t\t\t\t\t</div>\n\t\t\t\t\t<div class=\"flip_card_back\">\n\t\t\t\t\t\t<h2>How many times a day do Muslims pray?</h2>\n\t\t\t\t\t\t<br>\n\t\t\t\t\t\t<p>Answer: <strong>5</strong></p>\n\t\t\t\t\t</div>\n\t\t\t\t</div>\n\t\t\t</div>\n\t\t\t","response":null,"trial_type":"html-keyboard-response","trial_index":24,"time_elapsed":128098,"internal_node_id":"0.0-3.0-2.4","prolific_id":"5c52bfa7d3cc6b0001d9352e","session_id":"643c24ed8acb6df5963398d7","study_id":"64370a36d30bfa807bc7e43c"},{"rt":1599,"stimulus":"\n\t\t\t\t\t<div>\n\t\t\t\t\t<h2>Trial 5 is over</h2>\n\t\t\t\t\t<p>Press <span style=\"color: red\"><strong>any key</strong></span> to continue to the next trial</p>\n\t\t\t\t\t</div>\n\t\t\t\t","response":"d","trial_type":"html-keyboard-response","trial_index":25,"time_elapsed":129697,"internal_node_id":"0.0-3.0-3.4","prolific_id":"5c52bfa7d3cc6b0001d9352e","session_id":"643c24ed8acb6df5963398d7","study_id":"64370a36d30bfa807bc7e43c"},{"rt":6130,"response":{"prediction":"5"},"trial_type":"survey-text","trial_index":26,"time_elapsed":135829,"internal_node_id":"0.0-3.0-0.5","prolific_id":"5c52bfa7d3cc6b0001d9352e","session_id":"643c24ed8acb6df5963398d7","study_id":"64370a36d30bfa807bc7e43c"},{"rt":2906,"response":{"prior knowledge":1,"curiosity":5},"accuracy":[],"trial_type":"survey","trial_index":27,"time_elapsed":138743,"internal_node_id":"0.0-3.0-1.5","prolific_id":"5c52bfa7d3cc6b0001d9352e","session_id":"643c24ed8acb6df5963398d7","study_id":"64370a36d30bfa807bc7e43c"},{"rt":null,"stimulus":"\n\t\t\t<div class=\"flip_card\">\n\t\t\t\t<div class=\"flip_card_inner\">\n\t\t\t\t\t<div class=\"flip_card_front\">\n\t\t\t\t\t\t<img src=img/8.png>\n\t\t\t\t\t</div>\n\t\t\t\t\t<div class=\"flip_card_back\">\n\t\t\t\t\t\t<h2>How many lines are in a sonnet?</h2>\n\t\t\t\t\t\t<br>\n\t\t\t\t\t\t<p>Answer: <strong>14</strong></p>\n\t\t\t\t\t</div>\n\t\t\t\t</div>\n\t\t\t</div>\n\t\t\t","response":null,"trial_type":"html-keyboard-response","trial_index":28,"time_elapsed":143747,"internal_node_id":"0.0-3.0-2.5","prolific_id":"5c52bfa7d3cc6b0001d9352e","session_id":"643c24ed8acb6df5963398d7","study_id":"64370a36d30bfa807bc7e43c"},{"rt":1045,"stimulus":"\n\t\t\t\t\t<div>\n\t\t\t\t\t<h2>Trial 6 is over</h2>\n\t\t\t\t\t<p>Press <span style=\"color: red\"><strong>any key</strong></span> to continue to the next trial</p>\n\t\t\t\t\t</div>\n\t\t\t\t","response":"s","trial_type":"html-keyboard-response","trial_index":29,"time_elapsed":144792,"internal_node_id":"0.0-3.0-3.5","prolific_id":"5c52bfa7d3cc6b0001d9352e","session_id":"643c24ed8acb6df5963398d7","study_id":"64370a36d30bfa807bc7e43c"},{"rt":6469,"response":{"prediction":"206"},"trial_type":"survey-text","trial_index":30,"time_elapsed":151262,"internal_node_id":"0.0-3.0-0.6","prolific_id":"5c52bfa7d3cc6b0001d9352e","session_id":"643c24ed8acb6df5963398d7","study_id":"64370a36d30bfa807bc7e43c"},{"rt":3895,"response":{"prior knowledge":1,"curiosity":5},"accuracy":[],"trial_type":"survey","trial_index":31,"time_elapsed":155165,"internal_node_id":"0.0-3.0-1.6","prolific_id":"5c52bfa7d3cc6b0001d9352e","session_id":"643c24ed8acb6df5963398d7","study_id":"64370a36d30bfa807bc7e43c"},{"rt":null,"stimulus":"\n\t\t\t<div class=\"flip_card\">\n\t\t\t\t<div class=\"flip_card_inner\">\n\t\t\t\t\t<div class=\"flip_card_front\">\n\t\t\t\t\t\t<img src=img/14.png>\n\t\t\t\t\t</div>\n\t\t\t\t\t<div class=\"flip_card_back\">\n\t\t\t\t\t\t<h2>How many bones is a human baby born with?</h2>\n\t\t\t\t\t\t<br>\n\t\t\t\t\t\t<p>Answer: <strong>300</strong></p>\n\t\t\t\t\t</div>\n\t\t\t\t</div>\n\t\t\t</div>\n\t\t\t","response":null,"trial_type":"html-keyboard-response","trial_index":32,"time_elapsed":160166,"internal_node_id":"0.0-3.0-2.6","prolific_id":"5c52bfa7d3cc6b0001d9352e","session_id":"643c24ed8acb6df5963398d7","study_id":"64370a36d30bfa807bc7e43c"},{"rt":978,"stimulus":"\n\t\t\t\t\t<div>\n\t\t\t\t\t<h2>Trial 7 is over</h2>\n\t\t\t\t\t<p>Press <span style=\"color: red\"><strong>any key</strong></span> to continue to the next trial</p>\n\t\t\t\t\t</div>\n\t\t\t\t","response":"d","trial_type":"html-keyboard-response","trial_index":33,"time_elapsed":161144,"internal_node_id":"0.0-3.0-3.6","prolific_id":"5c52bfa7d3cc6b0001d9352e","session_id":"643c24ed8acb6df5963398d7","study_id":"64370a36d30bfa807bc7e43c"},{"rt":7138,"response":{"prediction":"1985"},"trial_type":"survey-text","trial_index":34,"time_elapsed":168284,"internal_node_id":"0.0-3.0-0.7","prolific_id":"5c52bfa7d3cc6b0001d9352e","session_id":"643c24ed8acb6df5963398d7","study_id":"64370a36d30bfa807bc7e43c"},{"rt":4358,"response":{"prior knowledge":3,"curiosity":5},"accuracy":[],"trial_type":"survey","trial_index":35,"time_elapsed":172651,"internal_node_id":"0.0-3.0-1.7","prolific_id":"5c52bfa7d3cc6b0001d9352e","session_id":"643c24ed8acb6df5963398d7","study_id":"64370a36d30bfa807bc7e43c"},{"rt":null,"stimulus":"\n\t\t\t<div class=\"flip_card\">\n\t\t\t\t<div class=\"flip_card_inner\">\n\t\t\t\t\t<div class=\"flip_card_front\">\n\t\t\t\t\t\t<img src=img/6.png>\n\t\t\t\t\t</div>\n\t\t\t\t\t<div class=\"flip_card_back\">\n\t\t\t\t\t\t<h2>What year did the Berlin Wall fall?</h2>\n\t\t\t\t\t\t<br>\n\t\t\t\t\t\t<p>Answer: <strong>1989</strong></p>\n\t\t\t\t\t</div>\n\t\t\t\t</div>\n\t\t\t</div>\n\t\t\t","response":null,"trial_type":"html-keyboard-response","trial_index":36,"time_elapsed":177668,"internal_node_id":"0.0-3.0-2.7","prolific_id":"5c52bfa7d3cc6b0001d9352e","session_id":"643c24ed8acb6df5963398d7","study_id":"64370a36d30bfa807bc7e43c"},{"rt":808,"stimulus":"\n\t\t\t\t\t<div>\n\t\t\t\t\t<h2>Trial 8 is over</h2>\n\t\t\t\t\t<p>Press <span style=\"color: red\"><strong>any key</strong></span> to continue to the next trial</p>\n\t\t\t\t\t</div>\n\t\t\t\t","response":"d","trial_type":"html-keyboard-response","trial_index":37,"time_elapsed":178476,"internal_node_id":"0.0-3.0-3.7","prolific_id":"5c52bfa7d3cc6b0001d9352e","session_id":"643c24ed8acb6df5963398d7","study_id":"64370a36d30bfa807bc7e43c"},{"rt":5752,"response":{"prediction":"9"},"trial_type":"survey-text","trial_index":38,"time_elapsed":184230,"internal_node_id":"0.0-3.0-0.8","prolific_id":"5c52bfa7d3cc6b0001d9352e","session_id":"643c24ed8acb6df5963398d7","study_id":"64370a36d30bfa807bc7e43c"},{"rt":8002,"response":{"prior knowledge":2,"curiosity":5},"accuracy":[],"trial_type":"survey","trial_index":39,"time_elapsed":192240,"internal_node_id":"0.0-3.0-1.8","prolific_id":"5c52bfa7d3cc6b0001d9352e","session_id":"643c24ed8acb6df5963398d7","study_id":"64370a36d30bfa807bc7e43c"},{"rt":null,"stimulus":"\n\t\t\t<div class=\"flip_card\">\n\t\t\t\t<div class=\"flip_card_inner\">\n\t\t\t\t\t<div class=\"flip_card_front\">\n\t\t\t\t\t\t<img src=img/4.png>\n\t\t\t\t\t</div>\n\t\t\t\t\t<div class=\"flip_card_back\">\n\t\t\t\t\t\t<h2>How many soccer players should each team have on the field at the start of each match?</h2>\n\t\t\t\t\t\t<br>\n\t\t\t\t\t\t<p>Answer: <strong>11</strong></p>\n\t\t\t\t\t</div>\n\t\t\t\t</div>\n\t\t\t</div>\n\t\t\t","response":null,"trial_type":"html-keyboard-response","trial_index":40,"time_elapsed":197245,"internal_node_id":"0.0-3.0-2.8","prolific_id":"5c52bfa7d3cc6b0001d9352e","session_id":"643c24ed8acb6df5963398d7","study_id":"64370a36d30bfa807bc7e43c"},{"rt":1109,"stimulus":"\n\t\t\t\t\t<div>\n\t\t\t\t\t<h2>Trial 9 is over</h2>\n\t\t\t\t\t<p>Press <span style=\"color: red\"><strong>any key</strong></span> to continue to the next trial</p>\n\t\t\t\t\t</div>\n\t\t\t\t","response":"f","trial_type":"html-keyboard-response","trial_index":41,"time_elapsed":198354,"internal_node_id":"0.0-3.0-3.8","prolific_id":"5c52bfa7d3cc6b0001d9352e","session_id":"643c24ed8acb6df5963398d7","study_id":"64370a36d30bfa807bc7e43c"},{"rt":5835,"response":{"prediction":"400"},"trial_type":"survey-text","trial_index":42,"time_elapsed":204190,"internal_node_id":"0.0-3.0-0.9","prolific_id":"5c52bfa7d3cc6b0001d9352e","session_id":"643c24ed8acb6df5963398d7","study_id":"64370a36d30bfa807bc7e43c"},{"rt":3270,"response":{"prior knowledge":0,"curiosity":5},"accuracy":[],"trial_type":"survey","trial_index":43,"time_elapsed":207470,"internal_node_id":"0.0-3.0-1.9","prolific_id":"5c52bfa7d3cc6b0001d9352e","session_id":"643c24ed8acb6df5963398d7","study_id":"64370a36d30bfa807bc7e43c"},{"rt":null,"stimulus":"\n\t\t\t<div class=\"flip_card\">\n\t\t\t\t<div class=\"flip_card_inner\">\n\t\t\t\t\t<div class=\"flip_card_front\">\n\t\t\t\t\t\t<img src=img/15.png>\n\t\t\t\t\t</div>\n\t\t\t\t\t<div class=\"flip_card_back\">\n\t\t\t\t\t\t<h2>How many people are vegan globally (in millions)?</h2>\n\t\t\t\t\t\t<br>\n\t\t\t\t\t\t<p>Answer: <strong>79</strong></p>\n\t\t\t\t\t</div>\n\t\t\t\t</div>\n\t\t\t</div>\n\t\t\t","response":null,"trial_type":"html-keyboard-response","trial_index":44,"time_elapsed":212472,"internal_node_id":"0.0-3.0-2.9","prolific_id":"5c52bfa7d3cc6b0001d9352e","session_id":"643c24ed8acb6df5963398d7","study_id":"64370a36d30bfa807bc7e43c"},{"rt":16041,"stimulus":"\n\t\t\t\t\t<div>\n\t\t\t\t\t<h2>Trial 10 is over</h2>\n\t\t\t\t\t<p>Press <span style=\"color: red\"><strong>any key</strong></span> to continue to the next trial</p>\n\t\t\t\t\t</div>\n\t\t\t\t","response":"d","trial_type":"html-keyboard-response","trial_index":45,"time_elapsed":228514,"internal_node_id":"0.0-3.0-3.9","prolific_id":"5c52bfa7d3cc6b0001d9352e","session_id":"643c24ed8acb6df5963398d7","study_id":"64370a36d30bfa807bc7e43c"},{"rt":4048,"response":{"prediction":"9"},"trial_type":"survey-text","trial_index":46,"time_elapsed":232563,"internal_node_id":"0.0-3.0-0.10","prolific_id":"5c52bfa7d3cc6b0001d9352e","session_id":"643c24ed8acb6df5963398d7","study_id":"64370a36d30bfa807bc7e43c"},{"rt":3397,"response":{"prior knowledge":2,"curiosity":5},"accuracy":[],"trial_type":"survey","trial_index":47,"time_elapsed":235969,"internal_node_id":"0.0-3.0-1.10","prolific_id":"5c52bfa7d3cc6b0001d9352e","session_id":"643c24ed8acb6df5963398d7","study_id":"64370a36d30bfa807bc7e43c"},{"rt":null,"stimulus":"\n\t\t\t<div class=\"flip_card\">\n\t\t\t\t<div class=\"flip_card_inner\">\n\t\t\t\t\t<div class=\"flip_card_front\">\n\t\t\t\t\t\t<img src=img/2.png>\n\t\t\t\t\t</div>\n\t\t\t\t\t<div class=\"flip_card_back\">\n\t\t\t\t\t\t<h2>How many moons does Neptune have?</h2>\n\t\t\t\t\t\t<br>\n\t\t\t\t\t\t<p>Answer: <strong>14</strong></p>\n\t\t\t\t\t</div>\n\t\t\t\t</div>\n\t\t\t</div>\n\t\t\t","response":null,"trial_type":"html-keyboard-response","trial_index":48,"time_elapsed":240970,"internal_node_id":"0.0-3.0-2.10","prolific_id":"5c52bfa7d3cc6b0001d9352e","session_id":"643c24ed8acb6df5963398d7","study_id":"64370a36d30bfa807bc7e43c"},{"rt":641,"stimulus":"\n\t\t\t\t\t<div>\n\t\t\t\t\t<h2>Trial 11 is over</h2>\n\t\t\t\t\t<p>Press <span style=\"color: red\"><strong>any key</strong></span> to continue to the next trial</p>\n\t\t\t\t\t</div>\n\t\t\t\t","response":"s","trial_type":"html-keyboard-response","trial_index":49,"time_elapsed":241610,"internal_node_id":"0.0-3.0-3.10","prolific_id":"5c52bfa7d3cc6b0001d9352e","session_id":"643c24ed8acb6df5963398d7","study_id":"64370a36d30bfa807bc7e43c"},{"rt":4826,"response":{"prediction":"0"},"trial_type":"survey-text","trial_index":50,"time_elapsed":246437,"internal_node_id":"0.0-3.0-0.11","prolific_id":"5c52bfa7d3cc6b0001d9352e","session_id":"643c24ed8acb6df5963398d7","study_id":"64370a36d30bfa807bc7e43c"},{"rt":3808,"response":{"prior knowledge":2,"curiosity":4},"accuracy":[],"trial_type":"survey","trial_index":51,"time_elapsed":250254,"internal_node_id":"0.0-3.0-1.11","prolific_id":"5c52bfa7d3cc6b0001d9352e","session_id":"643c24ed8acb6df5963398d7","study_id":"64370a36d30bfa807bc7e43c"},{"rt":null,"stimulus":"\n\t\t\t<div class=\"flip_card\">\n\t\t\t\t<div class=\"flip_card_inner\">\n\t\t\t\t\t<div class=\"flip_card_front\">\n\t\t\t\t\t\t<img src=img/28.png>\n\t\t\t\t\t</div>\n\t\t\t\t\t<div class=\"flip_card_back\">\n\t\t\t\t\t\t<h2>How many countries have territory in the Arctic Circle?</h2>\n\t\t\t\t\t\t<br>\n\t\t\t\t\t\t<p>Answer: <strong>8</strong></p>\n\t\t\t\t\t</div>\n\t\t\t\t</div>\n\t\t\t</div>\n\t\t\t","response":null,"trial_type":"html-keyboard-response","trial_index":52,"time_elapsed":255257,"internal_node_id":"0.0-3.0-2.11","prolific_id":"5c52bfa7d3cc6b0001d9352e","session_id":"643c24ed8acb6df5963398d7","study_id":"64370a36d30bfa807bc7e43c"},{"rt":797,"stimulus":"\n\t\t\t\t\t<div>\n\t\t\t\t\t<h2>Trial 12 is over</h2>\n\t\t\t\t\t<p>Press <span style=\"color: red\"><strong>any key</strong></span> to continue to the next trial</p>\n\t\t\t\t\t</div>\n\t\t\t\t","response":"s","trial_type":"html-keyboard-response","trial_index":53,"time_elapsed":256054,"internal_node_id":"0.0-3.0-3.11","prolific_id":"5c52bfa7d3cc6b0001d9352e","session_id":"643c24ed8acb6df5963398d7","study_id":"64370a36d30bfa807bc7e43c"},{"rt":3063,"response":{"prediction":"13"},"trial_type":"survey-text","trial_index":54,"time_elapsed":259119,"internal_node_id":"0.0-3.0-0.12","prolific_id":"5c52bfa7d3cc6b0001d9352e","session_id":"643c24ed8acb6df5963398d7","study_id":"64370a36d30bfa807bc7e43c"},{"rt":4524,"response":{"prior knowledge":5,"curiosity":0},"accuracy":[],"trial_type":"survey","trial_index":55,"time_elapsed":263651,"internal_node_id":"0.0-3.0-1.12","prolific_id":"5c52bfa7d3cc6b0001d9352e","session_id":"643c24ed8acb6df5963398d7","study_id":"64370a36d30bfa807bc7e43c"},{"rt":null,"stimulus":"\n\t\t\t<div class=\"flip_card\">\n\t\t\t\t<div class=\"flip_card_inner\">\n\t\t\t\t\t<div class=\"flip_card_front\">\n\t\t\t\t\t\t<img src=img/5.png>\n\t\t\t\t\t</div>\n\t\t\t\t\t<div class=\"flip_card_back\">\n\t\t\t\t\t\t<h2>How much is in a Baker's Dozen?</h2>\n\t\t\t\t\t\t<br>\n\t\t\t\t\t\t<p>Answer: <strong>13</strong></p>\n\t\t\t\t\t</div>\n\t\t\t\t</div>\n\t\t\t</div>\n\t\t\t","response":null,"trial_type":"html-keyboard-response","trial_index":56,"time_elapsed":268661,"internal_node_id":"0.0-3.0-2.12","prolific_id":"5c52bfa7d3cc6b0001d9352e","session_id":"643c24ed8acb6df5963398d7","study_id":"64370a36d30bfa807bc7e43c"},{"rt":665,"stimulus":"\n\t\t\t\t\t<div>\n\t\t\t\t\t<h2>Trial 13 is over</h2>\n\t\t\t\t\t<p>Press <span style=\"color: red\"><strong>any key</strong></span> to continue to the next trial</p>\n\t\t\t\t\t</div>\n\t\t\t\t","response":"s","trial_type":"html-keyboard-response","trial_index":57,"time_elapsed":269326,"internal_node_id":"0.0-3.0-3.12","prolific_id":"5c52bfa7d3cc6b0001d9352e","session_id":"643c24ed8acb6df5963398d7","study_id":"64370a36d30bfa807bc7e43c"},{"rt":4370,"response":{"prediction":"2"},"trial_type":"survey-text","trial_index":58,"time_elapsed":273698,"internal_node_id":"0.0-3.0-0.13","prolific_id":"5c52bfa7d3cc6b0001d9352e","session_id":"643c24ed8acb6df5963398d7","study_id":"64370a36d30bfa807bc7e43c"},{"rt":6425,"response":{"prior knowledge":2,"curiosity":5},"accuracy":[],"trial_type":"survey","trial_index":59,"time_elapsed":280131,"internal_node_id":"0.0-3.0-1.13","prolific_id":"5c52bfa7d3cc6b0001d9352e","session_id":"643c24ed8acb6df5963398d7","study_id":"64370a36d30bfa807bc7e43c"},{"rt":null,"stimulus":"\n\t\t\t<div class=\"flip_card\">\n\t\t\t\t<div class=\"flip_card_inner\">\n\t\t\t\t\t<div class=\"flip_card_front\">\n\t\t\t\t\t\t<img src=img/17.png>\n\t\t\t\t\t</div>\n\t\t\t\t\t<div class=\"flip_card_back\">\n\t\t\t\t\t\t<h2>How many main islands make up Japan?</h2>\n\t\t\t\t\t\t<br>\n\t\t\t\t\t\t<p>Answer: <strong>4</strong></p>\n\t\t\t\t\t</div>\n\t\t\t\t</div>\n\t\t\t</div>\n\t\t\t","response":null,"trial_type":"html-keyboard-response","trial_index":60,"time_elapsed":285133,"internal_node_id":"0.0-3.0-2.13","prolific_id":"5c52bfa7d3cc6b0001d9352e","session_id":"643c24ed8acb6df5963398d7","study_id":"64370a36d30bfa807bc7e43c"},{"rt":1821,"stimulus":"\n\t\t\t\t\t<div>\n\t\t\t\t\t<h2>Trial 14 is over</h2>\n\t\t\t\t\t<p>Press <span style=\"color: red\"><strong>any key</strong></span> to continue to the next trial</p>\n\t\t\t\t\t</div>\n\t\t\t\t","response":"d","trial_type":"html-keyboard-response","trial_index":61,"time_elapsed":286954,"internal_node_id":"0.0-3.0-3.13","prolific_id":"5c52bfa7d3cc6b0001d9352e","session_id":"643c24ed8acb6df5963398d7","study_id":"64370a36d30bfa807bc7e43c"},{"rt":5312,"response":{"prediction":"32"},"trial_type":"survey-text","trial_index":62,"time_elapsed":292267,"internal_node_id":"0.0-3.0-0.14","prolific_id":"5c52bfa7d3cc6b0001d9352e","session_id":"643c24ed8acb6df5963398d7","study_id":"64370a36d30bfa807bc7e43c"},{"rt":2644,"response":{"prior knowledge":0,"curiosity":4},"accuracy":[],"trial_type":"survey","trial_index":63,"time_elapsed":294919,"internal_node_id":"0.0-3.0-1.14","prolific_id":"5c52bfa7d3cc6b0001d9352e","session_id":"643c24ed8acb6df5963398d7","study_id":"64370a36d30bfa807bc7e43c"},{"rt":null,"stimulus":"\n\t\t\t<div class=\"flip_card\">\n\t\t\t\t<div class=\"flip_card_inner\">\n\t\t\t\t\t<div class=\"flip_card_front\">\n\t\t\t\t\t\t<img src=img/9.png>\n\t\t\t\t\t</div>\n\t\t\t\t\t<div class=\"flip_card_back\">\n\t\t\t\t\t\t<h2>How many single hand gestures, or mudras, are used in Indian classical dance?</h2>\n\t\t\t\t\t\t<br>\n\t\t\t\t\t\t<p>Answer: <strong>28</strong></p>\n\t\t\t\t\t</div>\n\t\t\t\t</div>\n\t\t\t</div>\n\t\t\t","response":null,"trial_type":"html-keyboard-response","trial_index":64,"time_elapsed":299920,"internal_node_id":"0.0-3.0-2.14","prolific_id":"5c52bfa7d3cc6b0001d9352e","session_id":"643c24ed8acb6df5963398d7","study_id":"64370a36d30bfa807bc7e43c"},{"rt":936,"stimulus":"\n\t\t\t\t\t<div>\n\t\t\t\t\t<h2>Trial 15 is over</h2>\n\t\t\t\t\t<p>Press <span style=\"color: red\"><strong>any key</strong></span> to continue to the next trial</p>\n\t\t\t\t\t</div>\n\t\t\t\t","response":"d","trial_type":"html-keyboard-response","trial_index":65,"time_elapsed":300856,"internal_node_id":"0.0-3.0-3.14","prolific_id":"5c52bfa7d3cc6b0001d9352e","session_id":"643c24ed8acb6df5963398d7","study_id":"64370a36d30bfa807bc7e43c"},{"rt":4381,"response":{"prediction":"16"},"trial_type":"survey-text","trial_index":66,"time_elapsed":305238,"internal_node_id":"0.0-3.0-0.15","prolific_id":"5c52bfa7d3cc6b0001d9352e","session_id":"643c24ed8acb6df5963398d7","study_id":"64370a36d30bfa807bc7e43c"},{"rt":2083,"response":{"prior knowledge":0,"curiosity":4},"accuracy":[],"trial_type":"survey","trial_index":67,"time_elapsed":307330,"internal_node_id":"0.0-3.0-1.15","prolific_id":"5c52bfa7d3cc6b0001d9352e","session_id":"643c24ed8acb6df5963398d7","study_id":"64370a36d30bfa807bc7e43c"},{"rt":null,"stimulus":"\n\t\t\t<div class=\"flip_card\">\n\t\t\t\t<div class=\"flip_card_inner\">\n\t\t\t\t\t<div class=\"flip_card_front\">\n\t\t\t\t\t\t<img src=img/24.png>\n\t\t\t\t\t</div>\n\t\t\t\t\t<div class=\"flip_card_back\">\n\t\t\t\t\t\t<h2>How many tones are in the Vietnamese language?</h2>\n\t\t\t\t\t\t<br>\n\t\t\t\t\t\t<p>Answer: <strong>6</strong></p>\n\t\t\t\t\t</div>\n\t\t\t\t</div>\n\t\t\t</div>\n\t\t\t","response":null,"trial_type":"html-keyboard-response","trial_index":68,"time_elapsed":312331,"internal_node_id":"0.0-3.0-2.15","prolific_id":"5c52bfa7d3cc6b0001d9352e","session_id":"643c24ed8acb6df5963398d7","study_id":"64370a36d30bfa807bc7e43c"},{"rt":918,"stimulus":"\n\t\t\t\t\t<div>\n\t\t\t\t\t<h2>Trial 16 is over</h2>\n\t\t\t\t\t<p>Press <span style=\"color: red\"><strong>any key</strong></span> to continue to the next trial</p>\n\t\t\t\t\t</div>\n\t\t\t\t","response":"s","trial_type":"html-keyboard-response","trial_index":69,"time_elapsed":313249,"internal_node_id":"0.0-3.0-3.15","prolific_id":"5c52bfa7d3cc6b0001d9352e","session_id":"643c24ed8acb6df5963398d7","study_id":"64370a36d30bfa807bc7e43c"},{"rt":5802,"response":{"prediction":"753"},"trial_type":"survey-text","trial_index":70,"time_elapsed":319052,"internal_node_id":"0.0-3.0-0.16","prolific_id":"5c52bfa7d3cc6b0001d9352e","session_id":"643c24ed8acb6df5963398d7","study_id":"64370a36d30bfa807bc7e43c"},{"rt":4639,"response":{"prior knowledge":1,"curiosity":4},"accuracy":[],"trial_type":"survey","trial_index":71,"time_elapsed":323698,"internal_node_id":"0.0-3.0-1.16","prolific_id":"5c52bfa7d3cc6b0001d9352e","session_id":"643c24ed8acb6df5963398d7","study_id":"64370a36d30bfa807bc7e43c"},{"rt":null,"stimulus":"\n\t\t\t<div class=\"flip_card\">\n\t\t\t\t<div class=\"flip_card_inner\">\n\t\t\t\t\t<div class=\"flip_card_front\">\n\t\t\t\t\t\t<img src=img/29.png>\n\t\t\t\t\t</div>\n\t\t\t\t\t<div class=\"flip_card_back\">\n\t\t\t\t\t\t<h2>How long is the Great Wall of China (in miles)?</h2>\n\t\t\t\t\t\t<br>\n\t\t\t\t\t\t<p>Answer: <strong>13171</strong></p>\n\t\t\t\t\t</div>\n\t\t\t\t</div>\n\t\t\t</div>\n\t\t\t","response":null,"trial_type":"html-keyboard-response","trial_index":72,"time_elapsed":328713,"internal_node_id":"0.0-3.0-2.16","prolific_id":"5c52bfa7d3cc6b0001d9352e","session_id":"643c24ed8acb6df5963398d7","study_id":"64370a36d30bfa807bc7e43c"},{"rt":4737,"stimulus":"\n\t\t\t\t\t<div>\n\t\t\t\t\t<h2>Trial 17 is over</h2>\n\t\t\t\t\t<p>Press <span style=\"color: red\"><strong>any key</strong></span> to continue to the next trial</p>\n\t\t\t\t\t</div>\n\t\t\t\t","response":"d","trial_type":"html-keyboard-response","trial_index":73,"time_elapsed":333450,"internal_node_id":"0.0-3.0-3.16","prolific_id":"5c52bfa7d3cc6b0001d9352e","session_id":"643c24ed8acb6df5963398d7","study_id":"64370a36d30bfa807bc7e43c"},{"rt":2816,"response":{"prediction":"15"},"trial_type":"survey-text","trial_index":74,"time_elapsed":336267,"internal_node_id":"0.0-3.0-0.17","prolific_id":"5c52bfa7d3cc6b0001d9352e","session_id":"643c24ed8acb6df5963398d7","study_id":"64370a36d30bfa807bc7e43c"},{"rt":3133,"response":{"prior knowledge":3,"curiosity":4},"accuracy":[],"trial_type":"survey","trial_index":75,"time_elapsed":339409,"internal_node_id":"0.0-3.0-1.17","prolific_id":"5c52bfa7d3cc6b0001d9352e","session_id":"643c24ed8acb6df5963398d7","study_id":"64370a36d30bfa807bc7e43c"},{"rt":null,"stimulus":"\n\t\t\t<div class=\"flip_card\">\n\t\t\t\t<div class=\"flip_card_inner\">\n\t\t\t\t\t<div class=\"flip_card_front\">\n\t\t\t\t\t\t<img src=img/20.png>\n\t\t\t\t\t</div>\n\t\t\t\t\t<div class=\"flip_card_back\">\n\t\t\t\t\t\t<h2>How old was King Tut when he died?</h2>\n\t\t\t\t\t\t<br>\n\t\t\t\t\t\t<p>Answer: <strong>19</strong></p>\n\t\t\t\t\t</div>\n\t\t\t\t</div>\n\t\t\t</div>\n\t\t\t","response":null,"trial_type":"html-keyboard-response","trial_index":76,"time_elapsed":344414,"internal_node_id":"0.0-3.0-2.17","prolific_id":"5c52bfa7d3cc6b0001d9352e","session_id":"643c24ed8acb6df5963398d7","study_id":"64370a36d30bfa807bc7e43c"},{"rt":1620,"stimulus":"\n\t\t\t\t\t<div>\n\t\t\t\t\t<h2>Trial 18 is over</h2>\n\t\t\t\t\t<p>Press <span style=\"color: red\"><strong>any key</strong></span> to continue to the next trial</p>\n\t\t\t\t\t</div>\n\t\t\t\t","response":"d","trial_type":"html-keyboard-response","trial_index":77,"time_elapsed":346034,"internal_node_id":"0.0-3.0-3.17","prolific_id":"5c52bfa7d3cc6b0001d9352e","session_id":"643c24ed8acb6df5963398d7","study_id":"64370a36d30bfa807bc7e43c"},{"rt":8126,"response":{"prediction":"1905"},"trial_type":"survey-text","trial_index":78,"time_elapsed":354161,"internal_node_id":"0.0-3.0-0.18","prolific_id":"5c52bfa7d3cc6b0001d9352e","session_id":"643c24ed8acb6df5963398d7","study_id":"64370a36d30bfa807bc7e43c"},{"rt":28176,"response":{"prior knowledge":4,"curiosity":2},"accuracy":[],"trial_type":"survey","trial_index":79,"time_elapsed":382346,"internal_node_id":"0.0-3.0-1.18","prolific_id":"5c52bfa7d3cc6b0001d9352e","session_id":"643c24ed8acb6df5963398d7","study_id":"64370a36d30bfa807bc7e43c"},{"rt":null,"stimulus":"\n\t\t\t<div class=\"flip_card\">\n\t\t\t\t<div class=\"flip_card_inner\">\n\t\t\t\t\t<div class=\"flip_card_front\">\n\t\t\t\t\t\t<img src=img/18.png>\n\t\t\t\t\t</div>\n\t\t\t\t\t<div class=\"flip_card_back\">\n\t\t\t\t\t\t<h2>In what year did the first Modern Olympic Games take place?</h2>\n\t\t\t\t\t\t<br>\n\t\t\t\t\t\t<p>Answer: <strong>1896</strong></p>\n\t\t\t\t\t</div>\n\t\t\t\t</div>\n\t\t\t</div>\n\t\t\t","response":null,"trial_type":"html-keyboard-response","trial_index":80,"time_elapsed":387355,"internal_node_id":"0.0-3.0-2.18","prolific_id":"5c52bfa7d3cc6b0001d9352e","session_id":"643c24ed8acb6df5963398d7","study_id":"64370a36d30bfa807bc7e43c"},{"rt":511,"stimulus":"\n\t\t\t\t\t<div>\n\t\t\t\t\t<h2>Trial 19 is over</h2>\n\t\t\t\t\t<p>Press <span style=\"color: red\"><strong>any key</strong></span> to continue to the next trial</p>\n\t\t\t\t\t</div>\n\t\t\t\t","response":"w","trial_type":"html-keyboard-response","trial_index":81,"time_elapsed":387866,"internal_node_id":"0.0-3.0-3.18","prolific_id":"5c52bfa7d3cc6b0001d9352e","session_id":"643c24ed8acb6df5963398d7","study_id":"64370a36d30bfa807bc7e43c"},{"rt":2879,"response":{"prediction":"1"},"trial_type":"survey-text","trial_index":82,"time_elapsed":390747,"internal_node_id":"0.0-3.0-0.19","prolific_id":"5c52bfa7d3cc6b0001d9352e","session_id":"643c24ed8acb6df5963398d7","study_id":"64370a36d30bfa807bc7e43c"},{"rt":4094,"response":{"prior knowledge":2,"curiosity":5},"accuracy":[],"trial_type":"survey","trial_index":83,"time_elapsed":394849,"internal_node_id":"0.0-3.0-1.19","prolific_id":"5c52bfa7d3cc6b0001d9352e","session_id":"643c24ed8acb6df5963398d7","study_id":"64370a36d30bfa807bc7e43c"},{"rt":null,"stimulus":"\n\t\t\t<div class=\"flip_card\">\n\t\t\t\t<div class=\"flip_card_inner\">\n\t\t\t\t\t<div class=\"flip_card_front\">\n\t\t\t\t\t\t<img src=img/10.png>\n\t\t\t\t\t</div>\n\t\t\t\t\t<div class=\"flip_card_back\">\n\t\t\t\t\t\t<h2>How many native species of kangaroos are found in Australia?</h2>\n\t\t\t\t\t\t<br>\n\t\t\t\t\t\t<p>Answer: <strong>4</strong></p>\n\t\t\t\t\t</div>\n\t\t\t\t</div>\n\t\t\t</div>\n\t\t\t","response":null,"trial_type":"html-keyboard-response","trial_index":84,"time_elapsed":399852,"internal_node_id":"0.0-3.0-2.19","prolific_id":"5c52bfa7d3cc6b0001d9352e","session_id":"643c24ed8acb6df5963398d7","study_id":"64370a36d30bfa807bc7e43c"},{"rt":944,"stimulus":"\n\t\t\t\t\t<div>\n\t\t\t\t\t<h2>Trial 20 is over</h2>\n\t\t\t\t\t<p>Press <span style=\"color: red\"><strong>any key</strong></span> to continue to the next trial</p>\n\t\t\t\t\t</div>\n\t\t\t\t","response":"w","trial_type":"html-keyboard-response","trial_index":85,"time_elapsed":400796,"internal_node_id":"0.0-3.0-3.19","prolific_id":"5c52bfa7d3cc6b0001d9352e","session_id":"643c24ed8acb6df5963398d7","study_id":"64370a36d30bfa807bc7e43c"},{"rt":7485,"response":{"prediction":"52"},"trial_type":"survey-text","trial_index":86,"time_elapsed":408282,"internal_node_id":"0.0-3.0-0.20","prolific_id":"5c52bfa7d3cc6b0001d9352e","session_id":"643c24ed8acb6df5963398d7","study_id":"64370a36d30bfa807bc7e43c"},{"rt":3091,"response":{"prior knowledge":0,"curiosity":5},"accuracy":[],"trial_type":"survey","trial_index":87,"time_elapsed":411381,"internal_node_id":"0.0-3.0-1.20","prolific_id":"5c52bfa7d3cc6b0001d9352e","session_id":"643c24ed8acb6df5963398d7","study_id":"64370a36d30bfa807bc7e43c"},{"rt":null,"stimulus":"\n\t\t\t<div class=\"flip_card\">\n\t\t\t\t<div class=\"flip_card_inner\">\n\t\t\t\t\t<div class=\"flip_card_front\">\n\t\t\t\t\t\t<img src=img/16.png>\n\t\t\t\t\t</div>\n\t\t\t\t\t<div class=\"flip_card_back\">\n\t\t\t\t\t\t<h2>How many floors are in the Burj Khalifa, the tallest building in the world?</h2>\n\t\t\t\t\t\t<br>\n\t\t\t\t\t\t<p>Answer: <strong>163</strong></p>\n\t\t\t\t\t</div>\n\t\t\t\t</div>\n\t\t\t</div>\n\t\t\t","response":null,"trial_type":"html-keyboard-response","trial_index":88,"time_elapsed":416382,"internal_node_id":"0.0-3.0-2.20","prolific_id":"5c52bfa7d3cc6b0001d9352e","session_id":"643c24ed8acb6df5963398d7","study_id":"64370a36d30bfa807bc7e43c"},{"rt":768,"stimulus":"\n\t\t\t\t\t<div>\n\t\t\t\t\t<h2>Trial 21 is over</h2>\n\t\t\t\t\t<p>Press <span style=\"color: red\"><strong>any key</strong></span> to continue to the next trial</p>\n\t\t\t\t\t</div>\n\t\t\t\t","response":"d","trial_type":"html-keyboard-response","trial_index":89,"time_elapsed":417150,"internal_node_id":"0.0-3.0-3.20","prolific_id":"5c52bfa7d3cc6b0001d9352e","session_id":"643c24ed8acb6df5963398d7","study_id":"64370a36d30bfa807bc7e43c"},{"rt":6341,"response":{"prediction":"15"},"trial_type":"survey-text","trial_index":90,"time_elapsed":423493,"internal_node_id":"0.0-3.0-0.21","prolific_id":"5c52bfa7d3cc6b0001d9352e","session_id":"643c24ed8acb6df5963398d7","study_id":"64370a36d30bfa807bc7e43c"},{"rt":2731,"response":{"prior knowledge":0,"curiosity":5},"accuracy":[],"trial_type":"survey","trial_index":91,"time_elapsed":426232,"internal_node_id":"0.0-3.0-1.21","prolific_id":"5c52bfa7d3cc6b0001d9352e","session_id":"643c24ed8acb6df5963398d7","study_id":"64370a36d30bfa807bc7e43c"},{"rt":null,"stimulus":"\n\t\t\t<div class=\"flip_card\">\n\t\t\t\t<div class=\"flip_card_inner\">\n\t\t\t\t\t<div class=\"flip_card_front\">\n\t\t\t\t\t\t<img src=img/25.png>\n\t\t\t\t\t</div>\n\t\t\t\t\t<div class=\"flip_card_back\">\n\t\t\t\t\t\t<h2>How many different animals (real or imaginary) are represented in the Chinese calendar?</h2>\n\t\t\t\t\t\t<br>\n\t\t\t\t\t\t<p>Answer: <strong>12</strong></p>\n\t\t\t\t\t</div>\n\t\t\t\t</div>\n\t\t\t</div>\n\t\t\t","response":null,"trial_type":"html-keyboard-response","trial_index":92,"time_elapsed":431242,"internal_node_id":"0.0-3.0-2.21","prolific_id":"5c52bfa7d3cc6b0001d9352e","session_id":"643c24ed8acb6df5963398d7","study_id":"64370a36d30bfa807bc7e43c"},{"rt":571,"stimulus":"\n\t\t\t\t\t<div>\n\t\t\t\t\t<h2>Trial 22 is over</h2>\n\t\t\t\t\t<p>Press <span style=\"color: red\"><strong>any key</strong></span> to continue to the next trial</p>\n\t\t\t\t\t</div>\n\t\t\t\t","response":"e","trial_type":"html-keyboard-response","trial_index":93,"time_elapsed":431813,"internal_node_id":"0.0-3.0-3.21","prolific_id":"5c52bfa7d3cc6b0001d9352e","session_id":"643c24ed8acb6df5963398d7","study_id":"64370a36d30bfa807bc7e43c"},{"rt":6156,"response":{"prediction":"2007"},"trial_type":"survey-text","trial_index":94,"time_elapsed":437971,"internal_node_id":"0.0-3.0-0.22","prolific_id":"5c52bfa7d3cc6b0001d9352e","session_id":"643c24ed8acb6df5963398d7","study_id":"64370a36d30bfa807bc7e43c"},{"rt":4328,"response":{"prior knowledge":3,"curiosity":4},"accuracy":[],"trial_type":"survey","trial_index":95,"time_elapsed":442305,"internal_node_id":"0.0-3.0-1.22","prolific_id":"5c52bfa7d3cc6b0001d9352e","session_id":"643c24ed8acb6df5963398d7","study_id":"64370a36d30bfa807bc7e43c"},{"rt":null,"stimulus":"\n\t\t\t<div class=\"flip_card\">\n\t\t\t\t<div class=\"flip_card_inner\">\n\t\t\t\t\t<div class=\"flip_card_front\">\n\t\t\t\t\t\t<img src=img/3.png>\n\t\t\t\t\t</div>\n\t\t\t\t\t<div class=\"flip_card_back\">\n\t\t\t\t\t\t<h2>What year was the very first model of the iPhone released?</h2>\n\t\t\t\t\t\t<br>\n\t\t\t\t\t\t<p>Answer: <strong>2007</strong></p>\n\t\t\t\t\t</div>\n\t\t\t\t</div>\n\t\t\t</div>\n\t\t\t","response":null,"trial_type":"html-keyboard-response","trial_index":96,"time_elapsed":447307,"internal_node_id":"0.0-3.0-2.22","prolific_id":"5c52bfa7d3cc6b0001d9352e","session_id":"643c24ed8acb6df5963398d7","study_id":"64370a36d30bfa807bc7e43c"},{"rt":975,"stimulus":"\n\t\t\t\t\t<div>\n\t\t\t\t\t<h2>Trial 23 is over</h2>\n\t\t\t\t\t<p>Press <span style=\"color: red\"><strong>any key</strong></span> to continue to the next trial</p>\n\t\t\t\t\t</div>\n\t\t\t\t","response":"d","trial_type":"html-keyboard-response","trial_index":97,"time_elapsed":448283,"internal_node_id":"0.0-3.0-3.22","prolific_id":"5c52bfa7d3cc6b0001d9352e","session_id":"643c24ed8acb6df5963398d7","study_id":"64370a36d30bfa807bc7e43c"},{"rt":5838,"response":{"prediction":"1921"},"trial_type":"survey-text","trial_index":98,"time_elapsed":454121,"internal_node_id":"0.0-3.0-0.23","prolific_id":"5c52bfa7d3cc6b0001d9352e","session_id":"643c24ed8acb6df5963398d7","study_id":"64370a36d30bfa807bc7e43c"},{"rt":2558,"response":{"prior knowledge":3,"curiosity":4},"accuracy":[],"trial_type":"survey","trial_index":99,"time_elapsed":456687,"internal_node_id":"0.0-3.0-1.23","prolific_id":"5c52bfa7d3cc6b0001d9352e","session_id":"643c24ed8acb6df5963398d7","study_id":"64370a36d30bfa807bc7e43c"},{"rt":null,"stimulus":"\n\t\t\t<div class=\"flip_card\">\n\t\t\t\t<div class=\"flip_card_inner\">\n\t\t\t\t\t<div class=\"flip_card_front\">\n\t\t\t\t\t\t<img src=img/7.png>\n\t\t\t\t\t</div>\n\t\t\t\t\t<div class=\"flip_card_back\">\n\t\t\t\t\t\t<h2>What year did the titanic sink?</h2>\n\t\t\t\t\t\t<br>\n\t\t\t\t\t\t<p>Answer: <strong>1912</strong></p>\n\t\t\t\t\t</div>\n\t\t\t\t</div>\n\t\t\t</div>\n\t\t\t","response":null,"trial_type":"html-keyboard-response","trial_index":100,"time_elapsed":461916,"internal_node_id":"0.0-3.0-2.23","prolific_id":"5c52bfa7d3cc6b0001d9352e","session_id":"643c24ed8acb6df5963398d7","study_id":"64370a36d30bfa807bc7e43c"},{"rt":4013,"stimulus":"\n\t\t\t\t\t<div>\n\t\t\t\t\t<h2>Trial 24 is over</h2>\n\t\t\t\t\t<p>Press <span style=\"color: red\"><strong>any key</strong></span> to continue to the next trial</p>\n\t\t\t\t\t</div>\n\t\t\t\t","response":"s","trial_type":"html-keyboard-response","trial_index":101,"time_elapsed":465929,"internal_node_id":"0.0-3.0-3.23","prolific_id":"5c52bfa7d3cc6b0001d9352e","session_id":"643c24ed8acb6df5963398d7","study_id":"64370a36d30bfa807bc7e43c"},{"rt":3613,"response":{"prediction":"13"},"trial_type":"survey-text","trial_index":102,"time_elapsed":469543,"internal_node_id":"0.0-3.0-0.24","prolific_id":"5c52bfa7d3cc6b0001d9352e","session_id":"643c24ed8acb6df5963398d7","study_id":"64370a36d30bfa807bc7e43c"},{"rt":3451,"response":{"prior knowledge":5,"curiosity":5},"accuracy":[],"trial_type":"survey","trial_index":103,"time_elapsed":473003,"internal_node_id":"0.0-3.0-1.24","prolific_id":"5c52bfa7d3cc6b0001d9352e","session_id":"643c24ed8acb6df5963398d7","study_id":"64370a36d30bfa807bc7e43c"},{"rt":null,"stimulus":"\n\t\t\t<div class=\"flip_card\">\n\t\t\t\t<div class=\"flip_card_inner\">\n\t\t\t\t\t<div class=\"flip_card_front\">\n\t\t\t\t\t\t<img src=img/21.png>\n\t\t\t\t\t</div>\n\t\t\t\t\t<div class=\"flip_card_back\">\n\t\t\t\t\t\t<h2>A bar mitzvah is traditionally celebrated when Jewish males turn what age?</h2>\n\t\t\t\t\t\t<br>\n\t\t\t\t\t\t<p>Answer: <strong>13</strong></p>\n\t\t\t\t\t</div>\n\t\t\t\t</div>\n\t\t\t</div>\n\t\t\t","response":null,"trial_type":"html-keyboard-response","trial_index":104,"time_elapsed":478007,"internal_node_id":"0.0-3.0-2.24","prolific_id":"5c52bfa7d3cc6b0001d9352e","session_id":"643c24ed8acb6df5963398d7","study_id":"64370a36d30bfa807bc7e43c"},{"rt":508,"stimulus":"\n\t\t\t\t\t<div>\n\t\t\t\t\t<h2>Trial 25 is over</h2>\n\t\t\t\t\t<p>Press <span style=\"color: red\"><strong>any key</strong></span> to continue to the next trial</p>\n\t\t\t\t\t</div>\n\t\t\t\t","response":"s","trial_type":"html-keyboard-response","trial_index":105,"time_elapsed":478516,"internal_node_id":"0.0-3.0-3.24","prolific_id":"5c52bfa7d3cc6b0001d9352e","session_id":"643c24ed8acb6df5963398d7","study_id":"64370a36d30bfa807bc7e43c"},{"rt":4426,"response":{"prediction":"1902"},"trial_type":"survey-text","trial_index":106,"time_elapsed":482943,"internal_node_id":"0.0-3.0-0.25","prolific_id":"5c52bfa7d3cc6b0001d9352e","session_id":"643c24ed8acb6df5963398d7","study_id":"64370a36d30bfa807bc7e43c"},{"rt":3134,"response":{"prior knowledge":1,"curiosity":4},"accuracy":[],"trial_type":"survey","trial_index":107,"time_elapsed":486085,"internal_node_id":"0.0-3.0-1.25","prolific_id":"5c52bfa7d3cc6b0001d9352e","session_id":"643c24ed8acb6df5963398d7","study_id":"64370a36d30bfa807bc7e43c"},{"rt":null,"stimulus":"\n\t\t\t<div class=\"flip_card\">\n\t\t\t\t<div class=\"flip_card_inner\">\n\t\t\t\t\t<div class=\"flip_card_front\">\n\t\t\t\t\t\t<img src=img/23.png>\n\t\t\t\t\t</div>\n\t\t\t\t\t<div class=\"flip_card_back\">\n\t\t\t\t\t\t<h2>In what year was the first Nobel Prize awarded?</h2>\n\t\t\t\t\t\t<br>\n\t\t\t\t\t\t<p>Answer: <strong>1901</strong></p>\n\t\t\t\t\t</div>\n\t\t\t\t</div>\n\t\t\t</div>\n\t\t\t","response":null,"trial_type":"html-keyboard-response","trial_index":108,"time_elapsed":491098,"internal_node_id":"0.0-3.0-2.25","prolific_id":"5c52bfa7d3cc6b0001d9352e","session_id":"643c24ed8acb6df5963398d7","study_id":"64370a36d30bfa807bc7e43c"},{"rt":933,"stimulus":"\n\t\t\t\t\t<div>\n\t\t\t\t\t<h2>Trial 26 is over</h2>\n\t\t\t\t\t<p>Press <span style=\"color: red\"><strong>any key</strong></span> to continue to the next trial</p>\n\t\t\t\t\t</div>\n\t\t\t\t","response":"d","trial_type":"html-keyboard-response","trial_index":109,"time_elapsed":492031,"internal_node_id":"0.0-3.0-3.25","prolific_id":"5c52bfa7d3cc6b0001d9352e","session_id":"643c24ed8acb6df5963398d7","study_id":"64370a36d30bfa807bc7e43c"},{"rt":4952,"response":{"prediction":"2"},"trial_type":"survey-text","trial_index":110,"time_elapsed":496984,"internal_node_id":"0.0-3.0-0.26","prolific_id":"5c52bfa7d3cc6b0001d9352e","session_id":"643c24ed8acb6df5963398d7","study_id":"64370a36d30bfa807bc7e43c"},{"rt":2552,"response":{"prior knowledge":0,"curiosity":4},"accuracy":[],"trial_type":"survey","trial_index":111,"time_elapsed":499544,"internal_node_id":"0.0-3.0-1.26","prolific_id":"5c52bfa7d3cc6b0001d9352e","session_id":"643c24ed8acb6df5963398d7","study_id":"64370a36d30bfa807bc7e43c"},{"rt":null,"stimulus":"\n\t\t\t<div class=\"flip_card\">\n\t\t\t\t<div class=\"flip_card_inner\">\n\t\t\t\t\t<div class=\"flip_card_front\">\n\t\t\t\t\t\t<img src=img/19.png>\n\t\t\t\t\t</div>\n\t\t\t\t\t<div class=\"flip_card_back\">\n\t\t\t\t\t\t<h2>How many countries in Africa have French as the official language?</h2>\n\t\t\t\t\t\t<br>\n\t\t\t\t\t\t<p>Answer: <strong>21</strong></p>\n\t\t\t\t\t</div>\n\t\t\t\t</div>\n\t\t\t</div>\n\t\t\t","response":null,"trial_type":"html-keyboard-response","trial_index":112,"time_elapsed":504561,"internal_node_id":"0.0-3.0-2.26","prolific_id":"5c52bfa7d3cc6b0001d9352e","session_id":"643c24ed8acb6df5963398d7","study_id":"64370a36d30bfa807bc7e43c"},{"rt":4560,"stimulus":"\n\t\t\t\t\t<div>\n\t\t\t\t\t<h2>Trial 27 is over</h2>\n\t\t\t\t\t<p>Press <span style=\"color: red\"><strong>any key</strong></span> to continue to the next trial</p>\n\t\t\t\t\t</div>\n\t\t\t\t","response":"f","trial_type":"html-keyboard-response","trial_index":113,"time_elapsed":509121,"internal_node_id":"0.0-3.0-3.26","prolific_id":"5c52bfa7d3cc6b0001d9352e","session_id":"643c24ed8acb6df5963398d7","study_id":"64370a36d30bfa807bc7e43c"},{"rt":3221,"response":{"prediction":"14"},"trial_type":"survey-text","trial_index":114,"time_elapsed":512343,"internal_node_id":"0.0-3.0-0.27","prolific_id":"5c52bfa7d3cc6b0001d9352e","session_id":"643c24ed8acb6df5963398d7","study_id":"64370a36d30bfa807bc7e43c"},{"rt":2302,"response":{"prior knowledge":0,"curiosity":5},"accuracy":[],"trial_type":"survey","trial_index":115,"time_elapsed":514652,"internal_node_id":"0.0-3.0-1.27","prolific_id":"5c52bfa7d3cc6b0001d9352e","session_id":"643c24ed8acb6df5963398d7","study_id":"64370a36d30bfa807bc7e43c"},{"rt":null,"stimulus":"\n\t\t\t<div class=\"flip_card\">\n\t\t\t\t<div class=\"flip_card_inner\">\n\t\t\t\t\t<div class=\"flip_card_front\">\n\t\t\t\t\t\t<img src=img/13.png>\n\t\t\t\t\t</div>\n\t\t\t\t\t<div class=\"flip_card_back\">\n\t\t\t\t\t\t<h2>How many books are in the Catholic Bible?</h2>\n\t\t\t\t\t\t<br>\n\t\t\t\t\t\t<p>Answer: <strong>73</strong></p>\n\t\t\t\t\t</div>\n\t\t\t\t</div>\n\t\t\t</div>\n\t\t\t","response":null,"trial_type":"html-keyboard-response","trial_index":116,"time_elapsed":519654,"internal_node_id":"0.0-3.0-2.27","prolific_id":"5c52bfa7d3cc6b0001d9352e","session_id":"643c24ed8acb6df5963398d7","study_id":"64370a36d30bfa807bc7e43c"},{"rt":1117,"stimulus":"\n\t\t\t\t\t<div>\n\t\t\t\t\t<h2>Trial 28 is over</h2>\n\t\t\t\t\t<p>Press <span style=\"color: red\"><strong>any key</strong></span> to continue to the next trial</p>\n\t\t\t\t\t</div>\n\t\t\t\t","response":"d","trial_type":"html-keyboard-response","trial_index":117,"time_elapsed":520771,"internal_node_id":"0.0-3.0-3.27","prolific_id":"5c52bfa7d3cc6b0001d9352e","session_id":"643c24ed8acb6df5963398d7","study_id":"64370a36d30bfa807bc7e43c"},{"rt":5074,"response":{"prediction":"100"},"trial_type":"survey-text","trial_index":118,"time_elapsed":525846,"internal_node_id":"0.0-3.0-0.28","prolific_id":"5c52bfa7d3cc6b0001d9352e","session_id":"643c24ed8acb6df5963398d7","study_id":"64370a36d30bfa807bc7e43c"},{"rt":3836,"response":{"prior knowledge":1,"curiosity":5},"accuracy":[],"trial_type":"survey","trial_index":119,"time_elapsed":529691,"internal_node_id":"0.0-3.0-1.28","prolific_id":"5c52bfa7d3cc6b0001d9352e","session_id":"643c24ed8acb6df5963398d7","study_id":"64370a36d30bfa807bc7e43c"},{"rt":null,"stimulus":"\n\t\t\t<div class=\"flip_card\">\n\t\t\t\t<div class=\"flip_card_inner\">\n\t\t\t\t\t<div class=\"flip_card_front\">\n\t\t\t\t\t\t<img src=img/30.png>\n\t\t\t\t\t</div>\n\t\t\t\t\t<div class=\"flip_card_back\">\n\t\t\t\t\t\t<h2>How many books has Stephen King published?</h2>\n\t\t\t\t\t\t<br>\n\t\t\t\t\t\t<p>Answer: <strong>65</strong></p>\n\t\t\t\t\t</div>\n\t\t\t\t</div>\n\t\t\t</div>\n\t\t\t","response":null,"trial_type":"html-keyboard-response","trial_index":120,"time_elapsed":534692,"internal_node_id":"0.0-3.0-2.28","prolific_id":"5c52bfa7d3cc6b0001d9352e","session_id":"643c24ed8acb6df5963398d7","study_id":"64370a36d30bfa807bc7e43c"},{"rt":634,"stimulus":"\n\t\t\t\t\t<div>\n\t\t\t\t\t<h2>Trial 29 is over</h2>\n\t\t\t\t\t<p>Press <span style=\"color: red\"><strong>any key</strong></span> to continue to the next trial</p>\n\t\t\t\t\t</div>\n\t\t\t\t","response":"w","trial_type":"html-keyboard-response","trial_index":121,"time_elapsed":535326,"internal_node_id":"0.0-3.0-3.28","prolific_id":"5c52bfa7d3cc6b0001d9352e","session_id":"643c24ed8acb6df5963398d7","study_id":"64370a36d30bfa807bc7e43c"},{"rt":2815,"response":{"prediction":"1000"},"trial_type":"survey-text","trial_index":122,"time_elapsed":538142,"internal_node_id":"0.0-3.0-0.29","prolific_id":"5c52bfa7d3cc6b0001d9352e","session_id":"643c24ed8acb6df5963398d7","study_id":"64370a36d30bfa807bc7e43c"},{"rt":3087,"response":{"prior knowledge":0,"curiosity":3},"accuracy":[],"trial_type":"survey","trial_index":123,"time_elapsed":541238,"internal_node_id":"0.0-3.0-1.29","prolific_id":"5c52bfa7d3cc6b0001d9352e","session_id":"643c24ed8acb6df5963398d7","study_id":"64370a36d30bfa807bc7e43c"},{"rt":null,"stimulus":"\n\t\t\t<div class=\"flip_card\">\n\t\t\t\t<div class=\"flip_card_inner\">\n\t\t\t\t\t<div class=\"flip_card_front\">\n\t\t\t\t\t\t<img src=img/11.png>\n\t\t\t\t\t</div>\n\t\t\t\t\t<div class=\"flip_card_back\">\n\t\t\t\t\t\t<h2>How many constellations are there?</h2>\n\t\t\t\t\t\t<br>\n\t\t\t\t\t\t<p>Answer: <strong>88</strong></p>\n\t\t\t\t\t</div>\n\t\t\t\t</div>\n\t\t\t</div>\n\t\t\t","response":null,"trial_type":"html-keyboard-response","trial_index":124,"time_elapsed":546239,"internal_node_id":"0.0-3.0-2.29","prolific_id":"5c52bfa7d3cc6b0001d9352e","session_id":"643c24ed8acb6df5963398d7","study_id":"64370a36d30bfa807bc7e43c"},{"rt":530,"stimulus":"\n\t\t\t\t\t<div>\n\t\t\t\t\t<h2>Trial 30 is over</h2>\n\t\t\t\t\t<p>Press <span style=\"color: red\"><strong>any key</strong></span> to continue to the next trial</p>\n\t\t\t\t\t</div>\n\t\t\t\t","response":"w","trial_type":"html-keyboard-response","trial_index":125,"time_elapsed":546769,"internal_node_id":"0.0-3.0-3.29","prolific_id":"5c52bfa7d3cc6b0001d9352e","session_id":"643c24ed8acb6df5963398d7","study_id":"64370a36d30bfa807bc7e43c"},{"rt":null,"stimulus":"\n\t\t\t<h2>Good job! You've finished the 30 trials:p</h2>\n\t\t\t<p>In the next session, you will see two cards on the screen in each trial.</p>\n\t\t\t<p>On one card is a pattern that you have seen before in the experiment,\n\t\t\t\tand on the other card is one you have not seen.</p><br>\n\t\t\t<p>Your task is to choose the one you think you <em>have</em> seen before for every trial.</p>\n\t\t\t<p>Press '<span style=\"color: red;\"><strong>F</strong></span>' to choose the card on the left,\n\t\t\t\tand '<span style=\"color: red;\"><strong>J</strong></span>' to choose the card on the right.</p>\n\t\t\t<p>Have fun!</p>\n\t\t\t<br>\n\t\t\t<p>The trials will begin in 30 seconds</p>\n\t\t\t","response":null,"trial_type":"html-keyboard-response","trial_index":126,"time_elapsed":576785,"internal_node_id":"0.0-4.0","prolific_id":"5c52bfa7d3cc6b0001d9352e","session_id":"643c24ed8acb6df5963398d7","study_id":"64370a36d30bfa807bc7e43c"},{"rt":1487,"stimulus":"\n\t\t\t\t\t\t<div class=\"two_card_container\">\n\t\t\t\t\t\t<div class=\"card_container\">\n\t\t\t\t\t\t<img src=img/6.png>\n\t\t\t\t\t\t</div>\n\n\t\t\t\t\t\t<div class=\"card_container\">\n\t\t\t\t\t\t<img src=img/33.png>\n\t\t\t\t\t\t</div>","response":"f","task":"response","correct_response":"f","trial_type":"html-keyboard-response","trial_index":127,"time_elapsed":578273,"internal_node_id":"0.0-5.0-0.0","prolific_id":"5c52bfa7d3cc6b0001d9352e","session_id":"643c24ed8acb6df5963398d7","study_id":"64370a36d30bfa807bc7e43c","correct":true},{"rt":null,"stimulus":"\n\t\t\t\t\t<p>Correct!</p>\n\t\t\t\t\t","response":null,"trial_type":"html-keyboard-response","trial_index":128,"time_elapsed":579288,"internal_node_id":"0.0-5.0-1.0","prolific_id":"5c52bfa7d3cc6b0001d9352e","session_id":"643c24ed8acb6df5963398d7","study_id":"64370a36d30bfa807bc7e43c"},{"rt":792,"stimulus":"\n\t\t\t\t\t\t<div class=\"two_card_container\">\n\t\t\t\t\t\t<div class=\"card_container\">\n\t\t\t\t\t\t<img src=img/40.png>\n\t\t\t\t\t\t</div>\n\n\t\t\t\t\t\t<div class=\"card_container\">\n\t\t\t\t\t\t<img src=img/21.png>\n\t\t\t\t\t\t</div>","response":"j","task":"response","correct_response":"j","trial_type":"html-keyboard-response","trial_index":129,"time_elapsed":580081,"internal_node_id":"0.0-5.0-0.1","prolific_id":"5c52bfa7d3cc6b0001d9352e","session_id":"643c24ed8acb6df5963398d7","study_id":"64370a36d30bfa807bc7e43c","correct":true},{"rt":null,"stimulus":"\n\t\t\t\t\t<p>Correct!</p>\n\t\t\t\t\t","response":null,"trial_type":"html-keyboard-response","trial_index":130,"time_elapsed":581094,"internal_node_id":"0.0-5.0-1.1","prolific_id":"5c52bfa7d3cc6b0001d9352e","session_id":"643c24ed8acb6df5963398d7","study_id":"64370a36d30bfa807bc7e43c"},{"rt":879,"stimulus":"\n\t\t\t\t\t\t<div class=\"two_card_container\">\n\t\t\t\t\t\t<div class=\"card_container\">\n\t\t\t\t\t\t<img src=img/32.png>\n\t\t\t\t\t\t</div>\n\n\t\t\t\t\t\t<div class=\"card_container\">\n\t\t\t\t\t\t<img src=img/14.png>\n\t\t\t\t\t\t</div>","response":"j","task":"response","correct_response":"j","trial_type":"html-keyboard-response","trial_index":131,"time_elapsed":581974,"internal_node_id":"0.0-5.0-0.2","prolific_id":"5c52bfa7d3cc6b0001d9352e","session_id":"643c24ed8acb6df5963398d7","study_id":"64370a36d30bfa807bc7e43c","correct":true},{"rt":null,"stimulus":"\n\t\t\t\t\t<p>Correct!</p>\n\t\t\t\t\t","response":null,"trial_type":"html-keyboard-response","trial_index":132,"time_elapsed":582989,"internal_node_id":"0.0-5.0-1.2","prolific_id":"5c52bfa7d3cc6b0001d9352e","session_id":"643c24ed8acb6df5963398d7","study_id":"64370a36d30bfa807bc7e43c"},{"rt":1306,"stimulus":"\n\t\t\t\t\t\t<div class=\"two_card_container\">\n\t\t\t\t\t\t<div class=\"card_container\">\n\t\t\t\t\t\t<img src=img/38.png>\n\t\t\t\t\t\t</div>\n\n\t\t\t\t\t\t<div class=\"card_container\">\n\t\t\t\t\t\t<img src=img/13.png>\n\t\t\t\t\t\t</div>","response":"j","task":"response","correct_response":"j","trial_type":"html-keyboard-response","trial_index":133,"time_elapsed":584296,"internal_node_id":"0.0-5.0-0.3","prolific_id":"5c52bfa7d3cc6b0001d9352e","session_id":"643c24ed8acb6df5963398d7","study_id":"64370a36d30bfa807bc7e43c","correct":true},{"rt":null,"stimulus":"\n\t\t\t\t\t<p>Correct!</p>\n\t\t\t\t\t","response":null,"trial_type":"html-keyboard-response","trial_index":134,"time_elapsed":585312,"internal_node_id":"0.0-5.0-1.3","prolific_id":"5c52bfa7d3cc6b0001d9352e","session_id":"643c24ed8acb6df5963398d7","study_id":"64370a36d30bfa807bc7e43c"},{"rt":1194,"stimulus":"\n\t\t\t\t\t\t<div class=\"two_card_container\">\n\t\t\t\t\t\t<div class=\"card_container\">\n\t\t\t\t\t\t<img src=img/35.png>\n\t\t\t\t\t\t</div>\n\n\t\t\t\t\t\t<div class=\"card_container\">\n\t\t\t\t\t\t<img src=img/29.png>\n\t\t\t\t\t\t</div>","response":"f","task":"response","correct_response":"j","trial_type":"html-keyboard-response","trial_index":135,"time_elapsed":586506,"internal_node_id":"0.0-5.0-0.4","prolific_id":"5c52bfa7d3cc6b0001d9352e","session_id":"643c24ed8acb6df5963398d7","study_id":"64370a36d30bfa807bc7e43c","correct":false},{"rt":null,"stimulus":"\n\t\t\t\t\t<p>Wrong answer</p>\n\t\t\t\t\t","response":null,"trial_type":"html-keyboard-response","trial_index":136,"time_elapsed":587514,"internal_node_id":"0.0-5.0-1.4","prolific_id":"5c52bfa7d3cc6b0001d9352e","session_id":"643c24ed8acb6df5963398d7","study_id":"64370a36d30bfa807bc7e43c"},{"rt":986,"stimulus":"\n\t\t\t\t\t\t<div class=\"two_card_container\">\n\t\t\t\t\t\t<div class=\"card_container\">\n\t\t\t\t\t\t<img src=img/37.png>\n\t\t\t\t\t\t</div>\n\n\t\t\t\t\t\t<div class=\"card_container\">\n\t\t\t\t\t\t<img src=img/17.png>\n\t\t\t\t\t\t</div>","response":"j","task":"response","correct_response":"j","trial_type":"html-keyboard-response","trial_index":137,"time_elapsed":588501,"internal_node_id":"0.0-5.0-0.5","prolific_id":"5c52bfa7d3cc6b0001d9352e","session_id":"643c24ed8acb6df5963398d7","study_id":"64370a36d30bfa807bc7e43c","correct":true},{"rt":null,"stimulus":"\n\t\t\t\t\t<p>Correct!</p>\n\t\t\t\t\t","response":null,"trial_type":"html-keyboard-response","trial_index":138,"time_elapsed":589504,"internal_node_id":"0.0-5.0-1.5","prolific_id":"5c52bfa7d3cc6b0001d9352e","session_id":"643c24ed8acb6df5963398d7","study_id":"64370a36d30bfa807bc7e43c"},{"rt":886,"stimulus":"\n\t\t\t\t\t\t<div class=\"two_card_container\">\n\t\t\t\t\t\t<div class=\"card_container\">\n\t\t\t\t\t\t<img src=img/7.png>\n\t\t\t\t\t\t</div>\n\n\t\t\t\t\t\t<div class=\"card_container\">\n\t\t\t\t\t\t<img src=img/34.png>\n\t\t\t\t\t\t</div>","response":"f","task":"response","correct_response":"f","trial_type":"html-keyboard-response","trial_index":139,"time_elapsed":590390,"internal_node_id":"0.0-5.0-0.6","prolific_id":"5c52bfa7d3cc6b0001d9352e","session_id":"643c24ed8acb6df5963398d7","study_id":"64370a36d30bfa807bc7e43c","correct":true},{"rt":null,"stimulus":"\n\t\t\t\t\t<p>Correct!</p>\n\t\t\t\t\t","response":null,"trial_type":"html-keyboard-response","trial_index":140,"time_elapsed":591406,"internal_node_id":"0.0-5.0-1.6","prolific_id":"5c52bfa7d3cc6b0001d9352e","session_id":"643c24ed8acb6df5963398d7","study_id":"64370a36d30bfa807bc7e43c"},{"rt":900,"stimulus":"\n\t\t\t\t\t\t<div class=\"two_card_container\">\n\t\t\t\t\t\t<div class=\"card_container\">\n\t\t\t\t\t\t<img src=img/16.png>\n\t\t\t\t\t\t</div>\n\n\t\t\t\t\t\t<div class=\"card_container\">\n\t\t\t\t\t\t<img src=img/31.png>\n\t\t\t\t\t\t</div>","response":"f","task":"response","correct_response":"f","trial_type":"html-keyboard-response","trial_index":141,"time_elapsed":592307,"internal_node_id":"0.0-5.0-0.7","prolific_id":"5c52bfa7d3cc6b0001d9352e","session_id":"643c24ed8acb6df5963398d7","study_id":"64370a36d30bfa807bc7e43c","correct":true},{"rt":null,"stimulus":"\n\t\t\t\t\t<p>Correct!</p>\n\t\t\t\t\t","response":null,"trial_type":"html-keyboard-response","trial_index":142,"time_elapsed":593315,"internal_node_id":"0.0-5.0-1.7","prolific_id":"5c52bfa7d3cc6b0001d9352e","session_id":"643c24ed8acb6df5963398d7","study_id":"64370a36d30bfa807bc7e43c"},{"rt":1028,"stimulus":"\n\t\t\t\t\t\t<div class=\"two_card_container\">\n\t\t\t\t\t\t<div class=\"card_container\">\n\t\t\t\t\t\t<img src=img/1.png>\n\t\t\t\t\t\t</div>\n\n\t\t\t\t\t\t<div class=\"card_container\">\n\t\t\t\t\t\t<img src=img/36.png>\n\t\t\t\t\t\t</div>","response":"f","task":"response","correct_response":"f","trial_type":"html-keyboard-response","trial_index":143,"time_elapsed":594343,"internal_node_id":"0.0-5.0-0.8","prolific_id":"5c52bfa7d3cc6b0001d9352e","session_id":"643c24ed8acb6df5963398d7","study_id":"64370a36d30bfa807bc7e43c","correct":true},{"rt":null,"stimulus":"\n\t\t\t\t\t<p>Correct!</p>\n\t\t\t\t\t","response":null,"trial_type":"html-keyboard-response","trial_index":144,"time_elapsed":595358,"internal_node_id":"0.0-5.0-1.8","prolific_id":"5c52bfa7d3cc6b0001d9352e","session_id":"643c24ed8acb6df5963398d7","study_id":"64370a36d30bfa807bc7e43c"},{"rt":1010,"stimulus":"\n\t\t\t\t\t\t<div class=\"two_card_container\">\n\t\t\t\t\t\t<div class=\"card_container\">\n\t\t\t\t\t\t<img src=img/27.png>\n\t\t\t\t\t\t</div>\n\n\t\t\t\t\t\t<div class=\"card_container\">\n\t\t\t\t\t\t<img src=img/39.png>\n\t\t\t\t\t\t</div>","response":"f","task":"response","correct_response":"f","trial_type":"html-keyboard-response","trial_index":145,"time_elapsed":596369,"internal_node_id":"0.0-5.0-0.9","prolific_id":"5c52bfa7d3cc6b0001d9352e","session_id":"643c24ed8acb6df5963398d7","study_id":"64370a36d30bfa807bc7e43c","correct":true},{"rt":null,"stimulus":"\n\t\t\t\t\t<p>Correct!</p>\n\t\t\t\t\t","response":null,"trial_type":"html-keyboard-response","trial_index":146,"time_elapsed":597382,"internal_node_id":"0.0-5.0-1.9","prolific_id":"5c52bfa7d3cc6b0001d9352e","session_id":"643c24ed8acb6df5963398d7","study_id":"64370a36d30bfa807bc7e43c"},{"rt":null,"stimulus":"\n\t\t\t<h2>Good job :p</h2>\n\t\t\t<p>In the next session, you will see a trivia question on the screen in each trial.</p>\n\t\t\t<p>Each of these trivia questions is chosen from the questions you have already seen in the first session of the experiment.</p><br>\n\t\t\t<p>Your task is to answer the trivia question based on what you remember as accurately as you can.</p>\n\t\t\t<p>Have fun!</p>\n\t\t\t<br>\n\t\t\t<p>The trials will begin in 30 seconds</p>\n\t\t\t","response":null,"trial_type":"html-keyboard-response","trial_index":147,"time_elapsed":627398,"internal_node_id":"0.0-6.0","prolific_id":"5c52bfa7d3cc6b0001d9352e","session_id":"643c24ed8acb6df5963398d7","study_id":"64370a36d30bfa807bc7e43c"},{"rt":4129,"response":{"answer":"14"},"task":"response","correct_response":"14","trial_type":"survey-text","trial_index":148,"time_elapsed":631528,"internal_node_id":"0.0-7.0-0.0","prolific_id":"5c52bfa7d3cc6b0001d9352e","session_id":"643c24ed8acb6df5963398d7","study_id":"64370a36d30bfa807bc7e43c","difference":0},{"rt":null,"stimulus":"<h2>The correct answer is 14.</h2><p>Your answer was different from the answer by 0.</p><p>You got the right answer. Amazing work!</p>","response":null,"trial_type":"html-keyboard-response","trial_index":149,"time_elapsed":634029,"internal_node_id":"0.0-7.0-1.0","prolific_id":"5c52bfa7d3cc6b0001d9352e","session_id":"643c24ed8acb6df5963398d7","study_id":"64370a36d30bfa807bc7e43c"},{"rt":3509,"response":{"answer":"2007"},"task":"response","correct_response":"2007","trial_type":"survey-text","trial_index":150,"time_elapsed":637539,"internal_node_id":"0.0-7.0-0.1","prolific_id":"5c52bfa7d3cc6b0001d9352e","session_id":"643c24ed8acb6df5963398d7","study_id":"64370a36d30bfa807bc7e43c","difference":0},{"rt":null,"stimulus":"<h2>The correct answer is 2007.</h2><p>Your answer was different from the answer by 0.</p><p>You got the right answer. Amazing work!</p>","response":null,"trial_type":"html-keyboard-response","trial_index":151,"time_elapsed":640043,"internal_node_id":"0.0-7.0-1.1","prolific_id":"5c52bfa7d3cc6b0001d9352e","session_id":"643c24ed8acb6df5963398d7","study_id":"64370a36d30bfa807bc7e43c"},{"rt":3205,"response":{"answer":"88"},"task":"response","correct_response":"88","trial_type":"survey-text","trial_index":152,"time_elapsed":643249,"internal_node_id":"0.0-7.0-0.2","prolific_id":"5c52bfa7d3cc6b0001d9352e","session_id":"643c24ed8acb6df5963398d7","study_id":"64370a36d30bfa807bc7e43c","difference":0},{"rt":null,"stimulus":"<h2>The correct answer is 88.</h2><p>Your answer was different from the answer by 0.</p><p>You got the right answer. Amazing work!</p>","response":null,"trial_type":"html-keyboard-response","trial_index":153,"time_elapsed":645758,"internal_node_id":"0.0-7.0-1.2","prolific_id":"5c52bfa7d3cc6b0001d9352e","session_id":"643c24ed8acb6df5963398d7","study_id":"64370a36d30bfa807bc7e43c"},{"rt":7479,"response":{"answer":"64"},"task":"response","correct_response":"54","trial_type":"survey-text","trial_index":154,"time_elapsed":653238,"internal_node_id":"0.0-7.0-0.3","prolific_id":"5c52bfa7d3cc6b0001d9352e","session_id":"643c24ed8acb6df5963398d7","study_id":"64370a36d30bfa807bc7e43c","difference":19},{"rt":null,"stimulus":"<h2>The correct answer is 54.</h2><p>Your answer was different from the answer by 10.</p><p>A pretty good job indeed.</p>","response":null,"trial_type":"html-keyboard-response","trial_index":155,"time_elapsed":655739,"internal_node_id":"0.0-7.0-1.3","prolific_id":"5c52bfa7d3cc6b0001d9352e","session_id":"643c24ed8acb6df5963398d7","study_id":"64370a36d30bfa807bc7e43c"},{"rt":2274,"response":{"answer":"8"},"task":"response","correct_response":"4","trial_type":"survey-text","trial_index":156,"time_elapsed":658014,"internal_node_id":"0.0-7.0-0.4","prolific_id":"5c52bfa7d3cc6b0001d9352e","session_id":"643c24ed8acb6df5963398d7","study_id":"64370a36d30bfa807bc7e43c","difference":100},{"rt":null,"stimulus":"<h2>The correct answer is 4.</h2><p>Your answer was different from the answer by 4.</p><p>Not even close... do better next time!</p>","response":null,"trial_type":"html-keyboard-response","trial_index":157,"time_elapsed":660529,"internal_node_id":"0.0-7.0-1.4","prolific_id":"5c52bfa7d3cc6b0001d9352e","session_id":"643c24ed8acb6df5963398d7","study_id":"64370a36d30bfa807bc7e43c"},{"rt":1906,"response":{"answer":"13"},"task":"response","correct_response":"13","trial_type":"survey-text","trial_index":158,"time_elapsed":662436,"internal_node_id":"0.0-7.0-0.5","prolific_id":"5c52bfa7d3cc6b0001d9352e","session_id":"643c24ed8acb6df5963398d7","study_id":"64370a36d30bfa807bc7e43c","difference":0},{"rt":null,"stimulus":"<h2>The correct answer is 13.</h2><p>Your answer was different from the answer by 0.</p><p>You got the right answer. Amazing work!</p>","response":null,"trial_type":"html-keyboard-response","trial_index":159,"time_elapsed":664949,"internal_node_id":"0.0-7.0-1.5","prolific_id":"5c52bfa7d3cc6b0001d9352e","session_id":"643c24ed8acb6df5963398d7","study_id":"64370a36d30bfa807bc7e43c"},{"rt":3082,"response":{"answer":"7980"},"task":"response","correct_response":"13171","trial_type":"survey-text","trial_index":160,"time_elapsed":668032,"internal_node_id":"0.0-7.0-0.6","prolific_id":"5c52bfa7d3cc6b0001d9352e","session_id":"643c24ed8acb6df5963398d7","study_id":"64370a36d30bfa807bc7e43c","difference":39},{"rt":null,"stimulus":"<h2>The correct answer is 13171.</h2><p>Your answer was different from the answer by 5191.</p><p>Not the worst. Can you do better on the next?</p>","response":null,"trial_type":"html-keyboard-response","trial_index":161,"time_elapsed":670543,"internal_node_id":"0.0-7.0-1.6","prolific_id":"5c52bfa7d3cc6b0001d9352e","session_id":"643c24ed8acb6df5963398d7","study_id":"64370a36d30bfa807bc7e43c"},{"rt":2205,"response":{"answer":"7980"},"task":"response","correct_response":"7917.5","trial_type":"survey-text","trial_index":162,"time_elapsed":672750,"internal_node_id":"0.0-7.0-0.7","prolific_id":"5c52bfa7d3cc6b0001d9352e","session_id":"643c24ed8acb6df5963398d7","study_id":"64370a36d30bfa807bc7e43c","difference":1},{"rt":null,"stimulus":"<h2>The correct answer is 7917.5.</h2><p>Your answer was different from the answer by 62.5.</p><p>Excellent. Kudos to you!</p>","response":null,"trial_type":"html-keyboard-response","trial_index":163,"time_elapsed":675263,"internal_node_id":"0.0-7.0-1.7","prolific_id":"5c52bfa7d3cc6b0001d9352e","session_id":"643c24ed8acb6df5963398d7","study_id":"64370a36d30bfa807bc7e43c"},{"rt":3388,"response":{"answer":"1902"},"task":"response","correct_response":"1907","trial_type":"survey-text","trial_index":164,"time_elapsed":678652,"internal_node_id":"0.0-7.0-0.8","prolific_id":"5c52bfa7d3cc6b0001d9352e","session_id":"643c24ed8acb6df5963398d7","study_id":"64370a36d30bfa807bc7e43c","difference":0},{"rt":null,"stimulus":"<h2>The correct answer is 1907.</h2><p>Your answer was different from the answer by 5.</p><p>Excellent. Kudos to you!</p>","response":null,"trial_type":"html-keyboard-response","trial_index":165,"time_elapsed":681158,"internal_node_id":"0.0-7.0-1.8","prolific_id":"5c52bfa7d3cc6b0001d9352e","session_id":"643c24ed8acb6df5963398d7","study_id":"64370a36d30bfa807bc7e43c"},{"rt":3100,"response":{"answer":"12"},"task":"response","correct_response":"12","trial_type":"survey-text","trial_index":166,"time_elapsed":684259,"internal_node_id":"0.0-7.0-0.9","prolific_id":"5c52bfa7d3cc6b0001d9352e","session_id":"643c24ed8acb6df5963398d7","study_id":"64370a36d30bfa807bc7e43c","difference":0},{"rt":null,"stimulus":"<h2>The correct answer is 12.</h2><p>Your answer was different from the answer by 0.</p><p>You got the right answer. Amazing work!</p>","response":null,"trial_type":"html-keyboard-response","trial_index":167,"time_elapsed":686769,"internal_node_id":"0.0-7.0-1.9","prolific_id":"5c52bfa7d3cc6b0001d9352e","session_id":"643c24ed8acb6df5963398d7","study_id":"64370a36d30bfa807bc7e43c"}]