[{"success":true,"timeout":false,"failed_images":[],"failed_audio":[],"failed_video":[],"trial_type":"preload","trial_index":0,"time_elapsed":42443,"internal_node_id":"0.0-0.0","prolific_id":"5caa4435fd086000196ddf13","session_id":"643c252273c9ad07683adebe","study_id":"64370a36d30bfa807bc7e43c"},{"rt":87792,"stimulus":"\n\t\t\t\t\t<p>Welcome and thank you for participating in this study!</p>\n\t\t\t\t\t<p>In each trial, you will be given a trivia question and then be asked to:</p><br>\n\t\t\t\t\t<div class=\"list\">\n\t\t\t\t\t<p>1) Predict the answer</p>\n\t\t\t\t\t<p>2) Rate how much you already know about the topic</p>\n\t\t\t\t\t<p>3) Rate how much you want to know the answer</p>\n\t\t\t\t\t</div>\n\t\t\t\t\t<br>\n\t\t\t\t\t<p>Then, you will see a card that flips over to reveal the answer.</p>\n\t\t\t\t\t<br>\n\t\t\t\t\t<p>Let's try a practice round. Press <span style=\"color: red\"><strong>any key</strong></span> to move to the next slide</p>\n\t\t\t\t\t","response":" ","trial_type":"html-keyboard-response","trial_index":1,"time_elapsed":130234,"internal_node_id":"0.0-1.0","prolific_id":"5caa4435fd086000196ddf13","session_id":"643c252273c9ad07683adebe","study_id":"64370a36d30bfa807bc7e43c"},{"rt":6190,"response":{"practice prediction":"6"},"task":"practice","trial_type":"survey-text","trial_index":2,"time_elapsed":136430,"internal_node_id":"0.0-2.0-0.0","prolific_id":"5caa4435fd086000196ddf13","session_id":"643c252273c9ad07683adebe","study_id":"64370a36d30bfa807bc7e43c"},{"rt":9265,"response":{"practice":5},"accuracy":[],"trial_type":"survey","trial_index":3,"time_elapsed":145736,"internal_node_id":"0.0-2.0-1.0","prolific_id":"5caa4435fd086000196ddf13","session_id":"643c252273c9ad07683adebe","study_id":"64370a36d30bfa807bc7e43c"},{"rt":null,"stimulus":"\n\t\t\t\t<div class=\"flip_card\">\n\t\t\t\t\t<div class=\"flip_card_inner\">\n\t\t\t\t\t\t<div class=\"flip_card_front\">\n\t\t\t\t\t\t\t<img src=img/practice.png>\n\t\t\t\t\t\t</div>\n\t\t\t\t\t\t<div class=\"flip_card_back\">\n\t\t\t\t\t\t\t<h2>\"How many legs does a lobster have?\"</h2>\n\t\t\t\t\t\t    <br>\n\t\t\t\t\t\t    <p>Answer: <strong>\"10\"</strong></p>\n\t\t\t\t\t    </div>\n\t\t\t\t    </div>\n\t\t\t    </div>\n\t\t\t\t","response":null,"trial_type":"html-keyboard-response","trial_index":4,"time_elapsed":150742,"internal_node_id":"0.0-2.0-2.0","prolific_id":"5caa4435fd086000196ddf13","session_id":"643c252273c9ad07683adebe","study_id":"64370a36d30bfa807bc7e43c"},{"rt":36968,"stimulus":"\n\t\t\t\t\t<div>\n\t\t\t\t\t<h2>The practice round is over</h2>\n\t\t\t\t\t<p>Press <span style=\"color: red\"><strong>any key</strong></span> to continue to the actual trials</p>\n\t\t\t\t\t<p>Good Luck!</p>\n\t\t\t\t\t</div>\n\t\t\t\t\t","response":" ","trial_type":"html-keyboard-response","trial_index":5,"time_elapsed":187710,"internal_node_id":"0.0-2.0-3.0","prolific_id":"5caa4435fd086000196ddf13","session_id":"643c252273c9ad07683adebe","study_id":"64370a36d30bfa807bc7e43c"},{"rt":12459,"response":{"prediction":"11"},"trial_type":"survey-text","trial_index":6,"time_elapsed":200171,"internal_node_id":"0.0-3.0-0.0","prolific_id":"5caa4435fd086000196ddf13","session_id":"643c252273c9ad07683adebe","study_id":"64370a36d30bfa807bc7e43c"},{"rt":8573,"response":{"prior knowledge":1,"curiosity":3},"accuracy":[],"trial_type":"survey","trial_index":7,"time_elapsed":208760,"internal_node_id":"0.0-3.0-1.0","prolific_id":"5caa4435fd086000196ddf13","session_id":"643c252273c9ad07683adebe","study_id":"64370a36d30bfa807bc7e43c"},{"rt":null,"stimulus":"\n\t\t\t<div class=\"flip_card\">\n\t\t\t\t<div class=\"flip_card_inner\">\n\t\t\t\t\t<div class=\"flip_card_front\">\n\t\t\t\t\t\t<img src=img/7.png>\n\t\t\t\t\t</div>\n\t\t\t\t\t<div class=\"flip_card_back\">\n\t\t\t\t\t\t<h2>How many soccer players should each team have on the field at the start of each match?</h2>\n\t\t\t\t\t\t<br>\n\t\t\t\t\t\t<p>Answer: <strong>11</strong></p>\n\t\t\t\t\t</div>\n\t\t\t\t</div>\n\t\t\t</div>\n\t\t\t","response":null,"trial_type":"html-keyboard-response","trial_index":8,"time_elapsed":213766,"internal_node_id":"0.0-3.0-2.0","prolific_id":"5caa4435fd086000196ddf13","session_id":"643c252273c9ad07683adebe","study_id":"64370a36d30bfa807bc7e43c"},{"rt":4059,"stimulus":"\n\t\t\t\t\t<div>\n\t\t\t\t\t<h2>Trial 1 is over</h2>\n\t\t\t\t\t<p>Press <span style=\"color: red\"><strong>any key</strong></span> to continue to the next trial</p>\n\t\t\t\t\t</div>\n\t\t\t\t","response":" ","trial_type":"html-keyboard-response","trial_index":9,"time_elapsed":217827,"internal_node_id":"0.0-3.0-3.0","prolific_id":"5caa4435fd086000196ddf13","session_id":"643c252273c9ad07683adebe","study_id":"64370a36d30bfa807bc7e43c"},{"rt":6924,"response":{"prediction":"12"},"trial_type":"survey-text","trial_index":10,"time_elapsed":224753,"internal_node_id":"0.0-3.0-0.1","prolific_id":"5caa4435fd086000196ddf13","session_id":"643c252273c9ad07683adebe","study_id":"64370a36d30bfa807bc7e43c"},{"rt":6143,"response":{"prior knowledge":3,"curiosity":4},"accuracy":[],"trial_type":"survey","trial_index":11,"time_elapsed":230911,"internal_node_id":"0.0-3.0-1.1","prolific_id":"5caa4435fd086000196ddf13","session_id":"643c252273c9ad07683adebe","study_id":"64370a36d30bfa807bc7e43c"},{"rt":null,"stimulus":"\n\t\t\t<div class=\"flip_card\">\n\t\t\t\t<div class=\"flip_card_inner\">\n\t\t\t\t\t<div class=\"flip_card_front\">\n\t\t\t\t\t\t<img src=img/17.png>\n\t\t\t\t\t</div>\n\t\t\t\t\t<div class=\"flip_card_back\">\n\t\t\t\t\t\t<h2>How many different animals (real or imaginary) are represented in the Chinese calendar?</h2>\n\t\t\t\t\t\t<br>\n\t\t\t\t\t\t<p>Answer: <strong>12</strong></p>\n\t\t\t\t\t</div>\n\t\t\t\t</div>\n\t\t\t</div>\n\t\t\t","response":null,"trial_type":"html-keyboard-response","trial_index":12,"time_elapsed":235917,"internal_node_id":"0.0-3.0-2.1","prolific_id":"5caa4435fd086000196ddf13","session_id":"643c252273c9ad07683adebe","study_id":"64370a36d30bfa807bc7e43c"},{"rt":15469,"stimulus":"\n\t\t\t\t\t<div>\n\t\t\t\t\t<h2>Trial 2 is over</h2>\n\t\t\t\t\t<p>Press <span style=\"color: red\"><strong>any key</strong></span> to continue to the next trial</p>\n\t\t\t\t\t</div>\n\t\t\t\t","response":" ","trial_type":"html-keyboard-response","trial_index":13,"time_elapsed":251386,"internal_node_id":"0.0-3.0-3.1","prolific_id":"5caa4435fd086000196ddf13","session_id":"643c252273c9ad07683adebe","study_id":"64370a36d30bfa807bc7e43c"},{"rt":6429,"response":{"prediction":"3"},"trial_type":"survey-text","trial_index":14,"time_elapsed":257817,"internal_node_id":"0.0-3.0-0.2","prolific_id":"5caa4435fd086000196ddf13","session_id":"643c252273c9ad07683adebe","study_id":"64370a36d30bfa807bc7e43c"},{"rt":5062,"response":{"prior knowledge":0,"curiosity":4},"accuracy":[],"trial_type":"survey","trial_index":15,"time_elapsed":262894,"internal_node_id":"0.0-3.0-1.2","prolific_id":"5caa4435fd086000196ddf13","session_id":"643c252273c9ad07683adebe","study_id":"64370a36d30bfa807bc7e43c"},{"rt":null,"stimulus":"\n\t\t\t<div class=\"flip_card\">\n\t\t\t\t<div class=\"flip_card_inner\">\n\t\t\t\t\t<div class=\"flip_card_front\">\n\t\t\t\t\t\t<img src=img/19.png>\n\t\t\t\t\t</div>\n\t\t\t\t\t<div class=\"flip_card_back\">\n\t\t\t\t\t\t<h2>How many main islands make up Japan?</h2>\n\t\t\t\t\t\t<br>\n\t\t\t\t\t\t<p>Answer: <strong>4</strong></p>\n\t\t\t\t\t</div>\n\t\t\t\t</div>\n\t\t\t</div>\n\t\t\t","response":null,"trial_type":"html-keyboard-response","trial_index":16,"time_elapsed":267900,"internal_node_id":"0.0-3.0-2.2","prolific_id":"5caa4435fd086000196ddf13","session_id":"643c252273c9ad07683adebe","study_id":"64370a36d30bfa807bc7e43c"},{"rt":4265,"stimulus":"\n\t\t\t\t\t<div>\n\t\t\t\t\t<h2>Trial 3 is over</h2>\n\t\t\t\t\t<p>Press <span style=\"color: red\"><strong>any key</strong></span> to continue to the next trial</p>\n\t\t\t\t\t</div>\n\t\t\t\t","response":" ","trial_type":"html-keyboard-response","trial_index":17,"time_elapsed":272165,"internal_node_id":"0.0-3.0-3.2","prolific_id":"5caa4435fd086000196ddf13","session_id":"643c252273c9ad07683adebe","study_id":"64370a36d30bfa807bc7e43c"},{"rt":6801,"response":{"prediction":"3"},"trial_type":"survey-text","trial_index":18,"time_elapsed":278967,"internal_node_id":"0.0-3.0-0.3","prolific_id":"5caa4435fd086000196ddf13","session_id":"643c252273c9ad07683adebe","study_id":"64370a36d30bfa807bc7e43c"},{"rt":4312,"response":{"prior knowledge":0,"curiosity":5},"accuracy":[],"trial_type":"survey","trial_index":19,"time_elapsed":283289,"internal_node_id":"0.0-3.0-1.3","prolific_id":"5caa4435fd086000196ddf13","session_id":"643c252273c9ad07683adebe","study_id":"64370a36d30bfa807bc7e43c"},{"rt":null,"stimulus":"\n\t\t\t<div class=\"flip_card\">\n\t\t\t\t<div class=\"flip_card_inner\">\n\t\t\t\t\t<div class=\"flip_card_front\">\n\t\t\t\t\t\t<img src=img/6.png>\n\t\t\t\t\t</div>\n\t\t\t\t\t<div class=\"flip_card_back\">\n\t\t\t\t\t\t<h2>How many native species of kangaroos are found in Australia?</h2>\n\t\t\t\t\t\t<br>\n\t\t\t\t\t\t<p>Answer: <strong>4</strong></p>\n\t\t\t\t\t</div>\n\t\t\t\t</div>\n\t\t\t</div>\n\t\t\t","response":null,"trial_type":"html-keyboard-response","trial_index":20,"time_elapsed":288291,"internal_node_id":"0.0-3.0-2.3","prolific_id":"5caa4435fd086000196ddf13","session_id":"643c252273c9ad07683adebe","study_id":"64370a36d30bfa807bc7e43c"},{"rt":9671,"stimulus":"\n\t\t\t\t\t<div>\n\t\t\t\t\t<h2>Trial 4 is over</h2>\n\t\t\t\t\t<p>Press <span style=\"color: red\"><strong>any key</strong></span> to continue to the next trial</p>\n\t\t\t\t\t</div>\n\t\t\t\t","response":" ","trial_type":"html-keyboard-response","trial_index":21,"time_elapsed":297961,"internal_node_id":"0.0-3.0-3.3","prolific_id":"5caa4435fd086000196ddf13","session_id":"643c252273c9ad07683adebe","study_id":"64370a36d30bfa807bc7e43c"},{"rt":4258,"response":{"prediction":"13"},"trial_type":"survey-text","trial_index":22,"time_elapsed":302221,"internal_node_id":"0.0-3.0-0.4","prolific_id":"5caa4435fd086000196ddf13","session_id":"643c252273c9ad07683adebe","study_id":"64370a36d30bfa807bc7e43c"},{"rt":4481,"response":{"prior knowledge":5,"curiosity":5},"accuracy":[],"trial_type":"survey","trial_index":23,"time_elapsed":306712,"internal_node_id":"0.0-3.0-1.4","prolific_id":"5caa4435fd086000196ddf13","session_id":"643c252273c9ad07683adebe","study_id":"64370a36d30bfa807bc7e43c"},{"rt":null,"stimulus":"\n\t\t\t<div class=\"flip_card\">\n\t\t\t\t<div class=\"flip_card_inner\">\n\t\t\t\t\t<div class=\"flip_card_front\">\n\t\t\t\t\t\t<img src=img/4.png>\n\t\t\t\t\t</div>\n\t\t\t\t\t<div class=\"flip_card_back\">\n\t\t\t\t\t\t<h2>How much is in a Baker's Dozen?</h2>\n\t\t\t\t\t\t<br>\n\t\t\t\t\t\t<p>Answer: <strong>13</strong></p>\n\t\t\t\t\t</div>\n\t\t\t\t</div>\n\t\t\t</div>\n\t\t\t","response":null,"trial_type":"html-keyboard-response","trial_index":24,"time_elapsed":311718,"internal_node_id":"0.0-3.0-2.4","prolific_id":"5caa4435fd086000196ddf13","session_id":"643c252273c9ad07683adebe","study_id":"64370a36d30bfa807bc7e43c"},{"rt":6054,"stimulus":"\n\t\t\t\t\t<div>\n\t\t\t\t\t<h2>Trial 5 is over</h2>\n\t\t\t\t\t<p>Press <span style=\"color: red\"><strong>any key</strong></span> to continue to the next trial</p>\n\t\t\t\t\t</div>\n\t\t\t\t","response":" ","trial_type":"html-keyboard-response","trial_index":25,"time_elapsed":317772,"internal_node_id":"0.0-3.0-3.4","prolific_id":"5caa4435fd086000196ddf13","session_id":"643c252273c9ad07683adebe","study_id":"64370a36d30bfa807bc7e43c"},{"rt":7509,"response":{"prediction":"13"},"trial_type":"survey-text","trial_index":26,"time_elapsed":325284,"internal_node_id":"0.0-3.0-0.5","prolific_id":"5caa4435fd086000196ddf13","session_id":"643c252273c9ad07683adebe","study_id":"64370a36d30bfa807bc7e43c"},{"rt":5010,"response":{"prior knowledge":2,"curiosity":5},"accuracy":[],"trial_type":"survey","trial_index":27,"time_elapsed":330304,"internal_node_id":"0.0-3.0-1.5","prolific_id":"5caa4435fd086000196ddf13","session_id":"643c252273c9ad07683adebe","study_id":"64370a36d30bfa807bc7e43c"},{"rt":null,"stimulus":"\n\t\t\t<div class=\"flip_card\">\n\t\t\t\t<div class=\"flip_card_inner\">\n\t\t\t\t\t<div class=\"flip_card_front\">\n\t\t\t\t\t\t<img src=img/10.png>\n\t\t\t\t\t</div>\n\t\t\t\t\t<div class=\"flip_card_back\">\n\t\t\t\t\t\t<h2>How many lines are in a sonnet?</h2>\n\t\t\t\t\t\t<br>\n\t\t\t\t\t\t<p>Answer: <strong>14</strong></p>\n\t\t\t\t\t</div>\n\t\t\t\t</div>\n\t\t\t</div>\n\t\t\t","response":null,"trial_type":"html-keyboard-response","trial_index":28,"time_elapsed":335310,"internal_node_id":"0.0-3.0-2.5","prolific_id":"5caa4435fd086000196ddf13","session_id":"643c252273c9ad07683adebe","study_id":"64370a36d30bfa807bc7e43c"},{"rt":2533,"stimulus":"\n\t\t\t\t\t<div>\n\t\t\t\t\t<h2>Trial 6 is over</h2>\n\t\t\t\t\t<p>Press <span style=\"color: red\"><strong>any key</strong></span> to continue to the next trial</p>\n\t\t\t\t\t</div>\n\t\t\t\t","response":" ","trial_type":"html-keyboard-response","trial_index":29,"time_elapsed":337843,"internal_node_id":"0.0-3.0-3.5","prolific_id":"5caa4435fd086000196ddf13","session_id":"643c252273c9ad07683adebe","study_id":"64370a36d30bfa807bc7e43c"},{"rt":9366,"response":{"prediction":"47"},"trial_type":"survey-text","trial_index":30,"time_elapsed":347211,"internal_node_id":"0.0-3.0-0.6","prolific_id":"5caa4435fd086000196ddf13","session_id":"643c252273c9ad07683adebe","study_id":"64370a36d30bfa807bc7e43c"},{"rt":4079,"response":{"prior knowledge":0,"curiosity":5},"accuracy":[],"trial_type":"survey","trial_index":31,"time_elapsed":351298,"internal_node_id":"0.0-3.0-1.6","prolific_id":"5caa4435fd086000196ddf13","session_id":"643c252273c9ad07683adebe","study_id":"64370a36d30bfa807bc7e43c"},{"rt":null,"stimulus":"\n\t\t\t<div class=\"flip_card\">\n\t\t\t\t<div class=\"flip_card_inner\">\n\t\t\t\t\t<div class=\"flip_card_front\">\n\t\t\t\t\t\t<img src=img/16.png>\n\t\t\t\t\t</div>\n\t\t\t\t\t<div class=\"flip_card_back\">\n\t\t\t\t\t\t<h2>How many double stitches does a baseball have?</h2>\n\t\t\t\t\t\t<br>\n\t\t\t\t\t\t<p>Answer: <strong>108</strong></p>\n\t\t\t\t\t</div>\n\t\t\t\t</div>\n\t\t\t</div>\n\t\t\t","response":null,"trial_type":"html-keyboard-response","trial_index":32,"time_elapsed":356304,"internal_node_id":"0.0-3.0-2.6","prolific_id":"5caa4435fd086000196ddf13","session_id":"643c252273c9ad07683adebe","study_id":"64370a36d30bfa807bc7e43c"},{"rt":8180,"stimulus":"\n\t\t\t\t\t<div>\n\t\t\t\t\t<h2>Trial 7 is over</h2>\n\t\t\t\t\t<p>Press <span style=\"color: red\"><strong>any key</strong></span> to continue to the next trial</p>\n\t\t\t\t\t</div>\n\t\t\t\t","response":" ","trial_type":"html-keyboard-response","trial_index":33,"time_elapsed":364483,"internal_node_id":"0.0-3.0-3.6","prolific_id":"5caa4435fd086000196ddf13","session_id":"643c252273c9ad07683adebe","study_id":"64370a36d30bfa807bc7e43c"},{"rt":6992,"response":{"prediction":"5"},"trial_type":"survey-text","trial_index":34,"time_elapsed":371477,"internal_node_id":"0.0-3.0-0.7","prolific_id":"5caa4435fd086000196ddf13","session_id":"643c252273c9ad07683adebe","study_id":"64370a36d30bfa807bc7e43c"},{"rt":4323,"response":{"prior knowledge":0,"curiosity":5},"accuracy":[],"trial_type":"survey","trial_index":35,"time_elapsed":375811,"internal_node_id":"0.0-3.0-1.7","prolific_id":"5caa4435fd086000196ddf13","session_id":"643c252273c9ad07683adebe","study_id":"64370a36d30bfa807bc7e43c"},{"rt":null,"stimulus":"\n\t\t\t<div class=\"flip_card\">\n\t\t\t\t<div class=\"flip_card_inner\">\n\t\t\t\t\t<div class=\"flip_card_front\">\n\t\t\t\t\t\t<img src=img/26.png>\n\t\t\t\t\t</div>\n\t\t\t\t\t<div class=\"flip_card_back\">\n\t\t\t\t\t\t<h2>How many countries have territory in the Arctic Circle?</h2>\n\t\t\t\t\t\t<br>\n\t\t\t\t\t\t<p>Answer: <strong>8</strong></p>\n\t\t\t\t\t</div>\n\t\t\t\t</div>\n\t\t\t</div>\n\t\t\t","response":null,"trial_type":"html-keyboard-response","trial_index":36,"time_elapsed":380816,"internal_node_id":"0.0-3.0-2.7","prolific_id":"5caa4435fd086000196ddf13","session_id":"643c252273c9ad07683adebe","study_id":"64370a36d30bfa807bc7e43c"},{"rt":14807,"stimulus":"\n\t\t\t\t\t<div>\n\t\t\t\t\t<h2>Trial 8 is over</h2>\n\t\t\t\t\t<p>Press <span style=\"color: red\"><strong>any key</strong></span> to continue to the next trial</p>\n\t\t\t\t\t</div>\n\t\t\t\t","response":" ","trial_type":"html-keyboard-response","trial_index":37,"time_elapsed":395624,"internal_node_id":"0.0-3.0-3.7","prolific_id":"5caa4435fd086000196ddf13","session_id":"643c252273c9ad07683adebe","study_id":"64370a36d30bfa807bc7e43c"},{"rt":8050,"response":{"prediction":"5"},"trial_type":"survey-text","trial_index":38,"time_elapsed":403676,"internal_node_id":"0.0-3.0-0.8","prolific_id":"5caa4435fd086000196ddf13","session_id":"643c252273c9ad07683adebe","study_id":"64370a36d30bfa807bc7e43c"},{"rt":3975,"response":{"prior knowledge":0,"curiosity":5},"accuracy":[],"trial_type":"survey","trial_index":39,"time_elapsed":407660,"internal_node_id":"0.0-3.0-1.8","prolific_id":"5caa4435fd086000196ddf13","session_id":"643c252273c9ad07683adebe","study_id":"64370a36d30bfa807bc7e43c"},{"rt":null,"stimulus":"\n\t\t\t<div class=\"flip_card\">\n\t\t\t\t<div class=\"flip_card_inner\">\n\t\t\t\t\t<div class=\"flip_card_front\">\n\t\t\t\t\t\t<img src=img/30.png>\n\t\t\t\t\t</div>\n\t\t\t\t\t<div class=\"flip_card_back\">\n\t\t\t\t\t\t<h2>How many people are vegan globally (in millions)?</h2>\n\t\t\t\t\t\t<br>\n\t\t\t\t\t\t<p>Answer: <strong>79</strong></p>\n\t\t\t\t\t</div>\n\t\t\t\t</div>\n\t\t\t</div>\n\t\t\t","response":null,"trial_type":"html-keyboard-response","trial_index":40,"time_elapsed":412666,"internal_node_id":"0.0-3.0-2.8","prolific_id":"5caa4435fd086000196ddf13","session_id":"643c252273c9ad07683adebe","study_id":"64370a36d30bfa807bc7e43c"},{"rt":1768,"stimulus":"\n\t\t\t\t\t<div>\n\t\t\t\t\t<h2>Trial 9 is over</h2>\n\t\t\t\t\t<p>Press <span style=\"color: red\"><strong>any key</strong></span> to continue to the next trial</p>\n\t\t\t\t\t</div>\n\t\t\t\t","response":" ","trial_type":"html-keyboard-response","trial_index":41,"time_elapsed":414434,"internal_node_id":"0.0-3.0-3.8","prolific_id":"5caa4435fd086000196ddf13","session_id":"643c252273c9ad07683adebe","study_id":"64370a36d30bfa807bc7e43c"},{"rt":17072,"response":{"prediction":"1986"},"trial_type":"survey-text","trial_index":42,"time_elapsed":431508,"internal_node_id":"0.0-3.0-0.9","prolific_id":"5caa4435fd086000196ddf13","session_id":"643c252273c9ad07683adebe","study_id":"64370a36d30bfa807bc7e43c"},{"rt":4990,"response":{"prior knowledge":3,"curiosity":5},"accuracy":[],"trial_type":"survey","trial_index":43,"time_elapsed":436506,"internal_node_id":"0.0-3.0-1.9","prolific_id":"5caa4435fd086000196ddf13","session_id":"643c252273c9ad07683adebe","study_id":"64370a36d30bfa807bc7e43c"},{"rt":null,"stimulus":"\n\t\t\t<div class=\"flip_card\">\n\t\t\t\t<div class=\"flip_card_inner\">\n\t\t\t\t\t<div class=\"flip_card_front\">\n\t\t\t\t\t\t<img src=img/28.png>\n\t\t\t\t\t</div>\n\t\t\t\t\t<div class=\"flip_card_back\">\n\t\t\t\t\t\t<h2>What year did the Berlin Wall fall?</h2>\n\t\t\t\t\t\t<br>\n\t\t\t\t\t\t<p>Answer: <strong>1989</strong></p>\n\t\t\t\t\t</div>\n\t\t\t\t</div>\n\t\t\t</div>\n\t\t\t","response":null,"trial_type":"html-keyboard-response","trial_index":44,"time_elapsed":441511,"internal_node_id":"0.0-3.0-2.9","prolific_id":"5caa4435fd086000196ddf13","session_id":"643c252273c9ad07683adebe","study_id":"64370a36d30bfa807bc7e43c"},{"rt":2689,"stimulus":"\n\t\t\t\t\t<div>\n\t\t\t\t\t<h2>Trial 10 is over</h2>\n\t\t\t\t\t<p>Press <span style=\"color: red\"><strong>any key</strong></span> to continue to the next trial</p>\n\t\t\t\t\t</div>\n\t\t\t\t","response":" ","trial_type":"html-keyboard-response","trial_index":45,"time_elapsed":444201,"internal_node_id":"0.0-3.0-3.9","prolific_id":"5caa4435fd086000196ddf13","session_id":"643c252273c9ad07683adebe","study_id":"64370a36d30bfa807bc7e43c"},{"rt":9646,"response":{"prediction":"6"},"trial_type":"survey-text","trial_index":46,"time_elapsed":453850,"internal_node_id":"0.0-3.0-0.10","prolific_id":"5caa4435fd086000196ddf13","session_id":"643c252273c9ad07683adebe","study_id":"64370a36d30bfa807bc7e43c"},{"rt":5225,"response":{"prior knowledge":2,"curiosity":5},"accuracy":[],"trial_type":"survey","trial_index":47,"time_elapsed":459084,"internal_node_id":"0.0-3.0-1.10","prolific_id":"5caa4435fd086000196ddf13","session_id":"643c252273c9ad07683adebe","study_id":"64370a36d30bfa807bc7e43c"},{"rt":null,"stimulus":"\n\t\t\t<div class=\"flip_card\">\n\t\t\t\t<div class=\"flip_card_inner\">\n\t\t\t\t\t<div class=\"flip_card_front\">\n\t\t\t\t\t\t<img src=img/12.png>\n\t\t\t\t\t</div>\n\t\t\t\t\t<div class=\"flip_card_back\">\n\t\t\t\t\t\t<h2>How many countries in Africa have French as the official language?</h2>\n\t\t\t\t\t\t<br>\n\t\t\t\t\t\t<p>Answer: <strong>21</strong></p>\n\t\t\t\t\t</div>\n\t\t\t\t</div>\n\t\t\t</div>\n\t\t\t","response":null,"trial_type":"html-keyboard-response","trial_index":48,"time_elapsed":464090,"internal_node_id":"0.0-3.0-2.10","prolific_id":"5caa4435fd086000196ddf13","session_id":"643c252273c9ad07683adebe","study_id":"64370a36d30bfa807bc7e43c"},{"rt":1825,"stimulus":"\n\t\t\t\t\t<div>\n\t\t\t\t\t<h2>Trial 11 is over</h2>\n\t\t\t\t\t<p>Press <span style=\"color: red\"><strong>any key</strong></span> to continue to the next trial</p>\n\t\t\t\t\t</div>\n\t\t\t\t","response":" ","trial_type":"html-keyboard-response","trial_index":49,"time_elapsed":465914,"internal_node_id":"0.0-3.0-3.10","prolific_id":"5caa4435fd086000196ddf13","session_id":"643c252273c9ad07683adebe","study_id":"64370a36d30bfa807bc7e43c"},{"rt":4607,"response":{"prediction":"26"},"trial_type":"survey-text","trial_index":50,"time_elapsed":470523,"internal_node_id":"0.0-3.0-0.11","prolific_id":"5caa4435fd086000196ddf13","session_id":"643c252273c9ad07683adebe","study_id":"64370a36d30bfa807bc7e43c"},{"rt":4054,"response":{"prior knowledge":0,"curiosity":5},"accuracy":[],"trial_type":"survey","trial_index":51,"time_elapsed":474587,"internal_node_id":"0.0-3.0-1.11","prolific_id":"5caa4435fd086000196ddf13","session_id":"643c252273c9ad07683adebe","study_id":"64370a36d30bfa807bc7e43c"},{"rt":null,"stimulus":"\n\t\t\t<div class=\"flip_card\">\n\t\t\t\t<div class=\"flip_card_inner\">\n\t\t\t\t\t<div class=\"flip_card_front\">\n\t\t\t\t\t\t<img src=img/13.png>\n\t\t\t\t\t</div>\n\t\t\t\t\t<div class=\"flip_card_back\">\n\t\t\t\t\t\t<h2>How many constellations are there?</h2>\n\t\t\t\t\t\t<br>\n\t\t\t\t\t\t<p>Answer: <strong>88</strong></p>\n\t\t\t\t\t</div>\n\t\t\t\t</div>\n\t\t\t</div>\n\t\t\t","response":null,"trial_type":"html-keyboard-response","trial_index":52,"time_elapsed":479592,"internal_node_id":"0.0-3.0-2.11","prolific_id":"5caa4435fd086000196ddf13","session_id":"643c252273c9ad07683adebe","study_id":"64370a36d30bfa807bc7e43c"},{"rt":1881,"stimulus":"\n\t\t\t\t\t<div>\n\t\t\t\t\t<h2>Trial 12 is over</h2>\n\t\t\t\t\t<p>Press <span style=\"color: red\"><strong>any key</strong></span> to continue to the next trial</p>\n\t\t\t\t\t</div>\n\t\t\t\t","response":" ","trial_type":"html-keyboard-response","trial_index":53,"time_elapsed":481473,"internal_node_id":"0.0-3.0-3.11","prolific_id":"5caa4435fd086000196ddf13","session_id":"643c252273c9ad07683adebe","study_id":"64370a36d30bfa807bc7e43c"},{"rt":6048,"response":{"prediction":"53"},"trial_type":"survey-text","trial_index":54,"time_elapsed":487524,"internal_node_id":"0.0-3.0-0.12","prolific_id":"5caa4435fd086000196ddf13","session_id":"643c252273c9ad07683adebe","study_id":"64370a36d30bfa807bc7e43c"},{"rt":4167,"response":{"prior knowledge":0,"curiosity":5},"accuracy":[],"trial_type":"survey","trial_index":55,"time_elapsed":491699,"internal_node_id":"0.0-3.0-1.12","prolific_id":"5caa4435fd086000196ddf13","session_id":"643c252273c9ad07683adebe","study_id":"64370a36d30bfa807bc7e43c"},{"rt":null,"stimulus":"\n\t\t\t<div class=\"flip_card\">\n\t\t\t\t<div class=\"flip_card_inner\">\n\t\t\t\t\t<div class=\"flip_card_front\">\n\t\t\t\t\t\t<img src=img/5.png>\n\t\t\t\t\t</div>\n\t\t\t\t\t<div class=\"flip_card_back\">\n\t\t\t\t\t\t<h2>How many books are in the Catholic Bible?</h2>\n\t\t\t\t\t\t<br>\n\t\t\t\t\t\t<p>Answer: <strong>73</strong></p>\n\t\t\t\t\t</div>\n\t\t\t\t</div>\n\t\t\t</div>\n\t\t\t","response":null,"trial_type":"html-keyboard-response","trial_index":56,"time_elapsed":496704,"internal_node_id":"0.0-3.0-2.12","prolific_id":"5caa4435fd086000196ddf13","session_id":"643c252273c9ad07683adebe","study_id":"64370a36d30bfa807bc7e43c"},{"rt":10735,"stimulus":"\n\t\t\t\t\t<div>\n\t\t\t\t\t<h2>Trial 13 is over</h2>\n\t\t\t\t\t<p>Press <span style=\"color: red\"><strong>any key</strong></span> to continue to the next trial</p>\n\t\t\t\t\t</div>\n\t\t\t\t","response":" ","trial_type":"html-keyboard-response","trial_index":57,"time_elapsed":507439,"internal_node_id":"0.0-3.0-3.12","prolific_id":"5caa4435fd086000196ddf13","session_id":"643c252273c9ad07683adebe","study_id":"64370a36d30bfa807bc7e43c"},{"rt":7138,"response":{"prediction":"1023"},"trial_type":"survey-text","trial_index":58,"time_elapsed":514579,"internal_node_id":"0.0-3.0-0.13","prolific_id":"5caa4435fd086000196ddf13","session_id":"643c252273c9ad07683adebe","study_id":"64370a36d30bfa807bc7e43c"},{"rt":3842,"response":{"prior knowledge":0,"curiosity":5},"accuracy":[],"trial_type":"survey","trial_index":59,"time_elapsed":518428,"internal_node_id":"0.0-3.0-1.13","prolific_id":"5caa4435fd086000196ddf13","session_id":"643c252273c9ad07683adebe","study_id":"64370a36d30bfa807bc7e43c"},{"rt":null,"stimulus":"\n\t\t\t<div class=\"flip_card\">\n\t\t\t\t<div class=\"flip_card_inner\">\n\t\t\t\t\t<div class=\"flip_card_front\">\n\t\t\t\t\t\t<img src=img/8.png>\n\t\t\t\t\t</div>\n\t\t\t\t\t<div class=\"flip_card_back\">\n\t\t\t\t\t\t<h2>How long is the Great Wall of China (in miles)?</h2>\n\t\t\t\t\t\t<br>\n\t\t\t\t\t\t<p>Answer: <strong>13171</strong></p>\n\t\t\t\t\t</div>\n\t\t\t\t</div>\n\t\t\t</div>\n\t\t\t","response":null,"trial_type":"html-keyboard-response","trial_index":60,"time_elapsed":523435,"internal_node_id":"0.0-3.0-2.13","prolific_id":"5caa4435fd086000196ddf13","session_id":"643c252273c9ad07683adebe","study_id":"64370a36d30bfa807bc7e43c"},{"rt":1903,"stimulus":"\n\t\t\t\t\t<div>\n\t\t\t\t\t<h2>Trial 14 is over</h2>\n\t\t\t\t\t<p>Press <span style=\"color: red\"><strong>any key</strong></span> to continue to the next trial</p>\n\t\t\t\t\t</div>\n\t\t\t\t","response":" ","trial_type":"html-keyboard-response","trial_index":61,"time_elapsed":525338,"internal_node_id":"0.0-3.0-3.13","prolific_id":"5caa4435fd086000196ddf13","session_id":"643c252273c9ad07683adebe","study_id":"64370a36d30bfa807bc7e43c"},{"rt":7488,"response":{"prediction":"132"},"trial_type":"survey-text","trial_index":62,"time_elapsed":532827,"internal_node_id":"0.0-3.0-0.14","prolific_id":"5caa4435fd086000196ddf13","session_id":"643c252273c9ad07683adebe","study_id":"64370a36d30bfa807bc7e43c"},{"rt":5235,"response":{"prior knowledge":0,"curiosity":5},"accuracy":[],"trial_type":"survey","trial_index":63,"time_elapsed":538071,"internal_node_id":"0.0-3.0-1.14","prolific_id":"5caa4435fd086000196ddf13","session_id":"643c252273c9ad07683adebe","study_id":"64370a36d30bfa807bc7e43c"},{"rt":null,"stimulus":"\n\t\t\t<div class=\"flip_card\">\n\t\t\t\t<div class=\"flip_card_inner\">\n\t\t\t\t\t<div class=\"flip_card_front\">\n\t\t\t\t\t\t<img src=img/18.png>\n\t\t\t\t\t</div>\n\t\t\t\t\t<div class=\"flip_card_back\">\n\t\t\t\t\t\t<h2>How many floors are in the Burj Khalifa, the tallest building in the world?</h2>\n\t\t\t\t\t\t<br>\n\t\t\t\t\t\t<p>Answer: <strong>163</strong></p>\n\t\t\t\t\t</div>\n\t\t\t\t</div>\n\t\t\t</div>\n\t\t\t","response":null,"trial_type":"html-keyboard-response","trial_index":64,"time_elapsed":543077,"internal_node_id":"0.0-3.0-2.14","prolific_id":"5caa4435fd086000196ddf13","session_id":"643c252273c9ad07683adebe","study_id":"64370a36d30bfa807bc7e43c"},{"rt":1767,"stimulus":"\n\t\t\t\t\t<div>\n\t\t\t\t\t<h2>Trial 15 is over</h2>\n\t\t\t\t\t<p>Press <span style=\"color: red\"><strong>any key</strong></span> to continue to the next trial</p>\n\t\t\t\t\t</div>\n\t\t\t\t","response":" ","trial_type":"html-keyboard-response","trial_index":65,"time_elapsed":544845,"internal_node_id":"0.0-3.0-3.14","prolific_id":"5caa4435fd086000196ddf13","session_id":"643c252273c9ad07683adebe","study_id":"64370a36d30bfa807bc7e43c"},{"rt":6441,"response":{"prediction":"3"},"trial_type":"survey-text","trial_index":66,"time_elapsed":551288,"internal_node_id":"0.0-3.0-0.15","prolific_id":"5caa4435fd086000196ddf13","session_id":"643c252273c9ad07683adebe","study_id":"64370a36d30bfa807bc7e43c"},{"rt":4371,"response":{"prior knowledge":0,"curiosity":5},"accuracy":[],"trial_type":"survey","trial_index":67,"time_elapsed":555666,"internal_node_id":"0.0-3.0-1.15","prolific_id":"5caa4435fd086000196ddf13","session_id":"643c252273c9ad07683adebe","study_id":"64370a36d30bfa807bc7e43c"},{"rt":null,"stimulus":"\n\t\t\t<div class=\"flip_card\">\n\t\t\t\t<div class=\"flip_card_inner\">\n\t\t\t\t\t<div class=\"flip_card_front\">\n\t\t\t\t\t\t<img src=img/29.png>\n\t\t\t\t\t</div>\n\t\t\t\t\t<div class=\"flip_card_back\">\n\t\t\t\t\t\t<h2>How many times a day do Muslims pray?</h2>\n\t\t\t\t\t\t<br>\n\t\t\t\t\t\t<p>Answer: <strong>5</strong></p>\n\t\t\t\t\t</div>\n\t\t\t\t</div>\n\t\t\t</div>\n\t\t\t","response":null,"trial_type":"html-keyboard-response","trial_index":68,"time_elapsed":560670,"internal_node_id":"0.0-3.0-2.15","prolific_id":"5caa4435fd086000196ddf13","session_id":"643c252273c9ad07683adebe","study_id":"64370a36d30bfa807bc7e43c"},{"rt":2794,"stimulus":"\n\t\t\t\t\t<div>\n\t\t\t\t\t<h2>Trial 16 is over</h2>\n\t\t\t\t\t<p>Press <span style=\"color: red\"><strong>any key</strong></span> to continue to the next trial</p>\n\t\t\t\t\t</div>\n\t\t\t\t","response":" ","trial_type":"html-keyboard-response","trial_index":69,"time_elapsed":563464,"internal_node_id":"0.0-3.0-3.15","prolific_id":"5caa4435fd086000196ddf13","session_id":"643c252273c9ad07683adebe","study_id":"64370a36d30bfa807bc7e43c"},{"rt":14418,"response":{"prediction":"2006"},"trial_type":"survey-text","trial_index":70,"time_elapsed":577883,"internal_node_id":"0.0-3.0-0.16","prolific_id":"5caa4435fd086000196ddf13","session_id":"643c252273c9ad07683adebe","study_id":"64370a36d30bfa807bc7e43c"},{"rt":6598,"response":{"prior knowledge":2,"curiosity":5},"accuracy":[],"trial_type":"survey","trial_index":71,"time_elapsed":584489,"internal_node_id":"0.0-3.0-1.16","prolific_id":"5caa4435fd086000196ddf13","session_id":"643c252273c9ad07683adebe","study_id":"64370a36d30bfa807bc7e43c"},{"rt":null,"stimulus":"\n\t\t\t<div class=\"flip_card\">\n\t\t\t\t<div class=\"flip_card_inner\">\n\t\t\t\t\t<div class=\"flip_card_front\">\n\t\t\t\t\t\t<img src=img/23.png>\n\t\t\t\t\t</div>\n\t\t\t\t\t<div class=\"flip_card_back\">\n\t\t\t\t\t\t<h2>What year was the very first model of the iPhone released?</h2>\n\t\t\t\t\t\t<br>\n\t\t\t\t\t\t<p>Answer: <strong>2007</strong></p>\n\t\t\t\t\t</div>\n\t\t\t\t</div>\n\t\t\t</div>\n\t\t\t","response":null,"trial_type":"html-keyboard-response","trial_index":72,"time_elapsed":589490,"internal_node_id":"0.0-3.0-2.16","prolific_id":"5caa4435fd086000196ddf13","session_id":"643c252273c9ad07683adebe","study_id":"64370a36d30bfa807bc7e43c"},{"rt":2336,"stimulus":"\n\t\t\t\t\t<div>\n\t\t\t\t\t<h2>Trial 17 is over</h2>\n\t\t\t\t\t<p>Press <span style=\"color: red\"><strong>any key</strong></span> to continue to the next trial</p>\n\t\t\t\t\t</div>\n\t\t\t\t","response":" ","trial_type":"html-keyboard-response","trial_index":73,"time_elapsed":591826,"internal_node_id":"0.0-3.0-3.16","prolific_id":"5caa4435fd086000196ddf13","session_id":"643c252273c9ad07683adebe","study_id":"64370a36d30bfa807bc7e43c"},{"rt":4856,"response":{"prediction":"126"},"trial_type":"survey-text","trial_index":74,"time_elapsed":596683,"internal_node_id":"0.0-3.0-0.17","prolific_id":"5caa4435fd086000196ddf13","session_id":"643c252273c9ad07683adebe","study_id":"64370a36d30bfa807bc7e43c"},{"rt":5181,"response":{"prior knowledge":0,"curiosity":3},"accuracy":[],"trial_type":"survey","trial_index":75,"time_elapsed":601871,"internal_node_id":"0.0-3.0-1.17","prolific_id":"5caa4435fd086000196ddf13","session_id":"643c252273c9ad07683adebe","study_id":"64370a36d30bfa807bc7e43c"},{"rt":null,"stimulus":"\n\t\t\t<div class=\"flip_card\">\n\t\t\t\t<div class=\"flip_card_inner\">\n\t\t\t\t\t<div class=\"flip_card_front\">\n\t\t\t\t\t\t<img src=img/22.png>\n\t\t\t\t\t</div>\n\t\t\t\t\t<div class=\"flip_card_back\">\n\t\t\t\t\t\t<h2>How many books has Stephen King published?</h2>\n\t\t\t\t\t\t<br>\n\t\t\t\t\t\t<p>Answer: <strong>65</strong></p>\n\t\t\t\t\t</div>\n\t\t\t\t</div>\n\t\t\t</div>\n\t\t\t","response":null,"trial_type":"html-keyboard-response","trial_index":76,"time_elapsed":606873,"internal_node_id":"0.0-3.0-2.17","prolific_id":"5caa4435fd086000196ddf13","session_id":"643c252273c9ad07683adebe","study_id":"64370a36d30bfa807bc7e43c"},{"rt":2684,"stimulus":"\n\t\t\t\t\t<div>\n\t\t\t\t\t<h2>Trial 18 is over</h2>\n\t\t\t\t\t<p>Press <span style=\"color: red\"><strong>any key</strong></span> to continue to the next trial</p>\n\t\t\t\t\t</div>\n\t\t\t\t","response":" ","trial_type":"html-keyboard-response","trial_index":77,"time_elapsed":609556,"internal_node_id":"0.0-3.0-3.17","prolific_id":"5caa4435fd086000196ddf13","session_id":"643c252273c9ad07683adebe","study_id":"64370a36d30bfa807bc7e43c"},{"rt":11840,"response":{"prediction":"13"},"trial_type":"survey-text","trial_index":78,"time_elapsed":621399,"internal_node_id":"0.0-3.0-0.18","prolific_id":"5caa4435fd086000196ddf13","session_id":"643c252273c9ad07683adebe","study_id":"64370a36d30bfa807bc7e43c"},{"rt":13169,"response":{"prior knowledge":0,"curiosity":5},"accuracy":[],"trial_type":"survey","trial_index":79,"time_elapsed":634575,"internal_node_id":"0.0-3.0-1.18","prolific_id":"5caa4435fd086000196ddf13","session_id":"643c252273c9ad07683adebe","study_id":"64370a36d30bfa807bc7e43c"},{"rt":null,"stimulus":"\n\t\t\t<div class=\"flip_card\">\n\t\t\t\t<div class=\"flip_card_inner\">\n\t\t\t\t\t<div class=\"flip_card_front\">\n\t\t\t\t\t\t<img src=img/25.png>\n\t\t\t\t\t</div>\n\t\t\t\t\t<div class=\"flip_card_back\">\n\t\t\t\t\t\t<h2>How old was King Tut when he died?</h2>\n\t\t\t\t\t\t<br>\n\t\t\t\t\t\t<p>Answer: <strong>19</strong></p>\n\t\t\t\t\t</div>\n\t\t\t\t</div>\n\t\t\t</div>\n\t\t\t","response":null,"trial_type":"html-keyboard-response","trial_index":80,"time_elapsed":639581,"internal_node_id":"0.0-3.0-2.18","prolific_id":"5caa4435fd086000196ddf13","session_id":"643c252273c9ad07683adebe","study_id":"64370a36d30bfa807bc7e43c"},{"rt":4209,"stimulus":"\n\t\t\t\t\t<div>\n\t\t\t\t\t<h2>Trial 19 is over</h2>\n\t\t\t\t\t<p>Press <span style=\"color: red\"><strong>any key</strong></span> to continue to the next trial</p>\n\t\t\t\t\t</div>\n\t\t\t\t","response":" ","trial_type":"html-keyboard-response","trial_index":81,"time_elapsed":643790,"internal_node_id":"0.0-3.0-3.18","prolific_id":"5caa4435fd086000196ddf13","session_id":"643c252273c9ad07683adebe","study_id":"64370a36d30bfa807bc7e43c"},{"rt":7902,"response":{"prediction":"110"},"trial_type":"survey-text","trial_index":82,"time_elapsed":651695,"internal_node_id":"0.0-3.0-0.19","prolific_id":"5caa4435fd086000196ddf13","session_id":"643c252273c9ad07683adebe","study_id":"64370a36d30bfa807bc7e43c"},{"rt":4067,"response":{"prior knowledge":0,"curiosity":5},"accuracy":[],"trial_type":"survey","trial_index":83,"time_elapsed":655770,"internal_node_id":"0.0-3.0-1.19","prolific_id":"5caa4435fd086000196ddf13","session_id":"643c252273c9ad07683adebe","study_id":"64370a36d30bfa807bc7e43c"},{"rt":null,"stimulus":"\n\t\t\t<div class=\"flip_card\">\n\t\t\t\t<div class=\"flip_card_inner\">\n\t\t\t\t\t<div class=\"flip_card_front\">\n\t\t\t\t\t\t<img src=img/20.png>\n\t\t\t\t\t</div>\n\t\t\t\t\t<div class=\"flip_card_back\">\n\t\t\t\t\t\t<h2>How many bones is a human baby born with?</h2>\n\t\t\t\t\t\t<br>\n\t\t\t\t\t\t<p>Answer: <strong>300</strong></p>\n\t\t\t\t\t</div>\n\t\t\t\t</div>\n\t\t\t</div>\n\t\t\t","response":null,"trial_type":"html-keyboard-response","trial_index":84,"time_elapsed":660775,"internal_node_id":"0.0-3.0-2.19","prolific_id":"5caa4435fd086000196ddf13","session_id":"643c252273c9ad07683adebe","study_id":"64370a36d30bfa807bc7e43c"},{"rt":2062,"stimulus":"\n\t\t\t\t\t<div>\n\t\t\t\t\t<h2>Trial 20 is over</h2>\n\t\t\t\t\t<p>Press <span style=\"color: red\"><strong>any key</strong></span> to continue to the next trial</p>\n\t\t\t\t\t</div>\n\t\t\t\t","response":" ","trial_type":"html-keyboard-response","trial_index":85,"time_elapsed":662837,"internal_node_id":"0.0-3.0-3.19","prolific_id":"5caa4435fd086000196ddf13","session_id":"643c252273c9ad07683adebe","study_id":"64370a36d30bfa807bc7e43c"},{"rt":4022,"response":{"prediction":"6"},"trial_type":"survey-text","trial_index":86,"time_elapsed":666861,"internal_node_id":"0.0-3.0-0.20","prolific_id":"5caa4435fd086000196ddf13","session_id":"643c252273c9ad07683adebe","study_id":"64370a36d30bfa807bc7e43c"},{"rt":3875,"response":{"prior knowledge":0,"curiosity":5},"accuracy":[],"trial_type":"survey","trial_index":87,"time_elapsed":670744,"internal_node_id":"0.0-3.0-1.20","prolific_id":"5caa4435fd086000196ddf13","session_id":"643c252273c9ad07683adebe","study_id":"64370a36d30bfa807bc7e43c"},{"rt":null,"stimulus":"\n\t\t\t<div class=\"flip_card\">\n\t\t\t\t<div class=\"flip_card_inner\">\n\t\t\t\t\t<div class=\"flip_card_front\">\n\t\t\t\t\t\t<img src=img/2.png>\n\t\t\t\t\t</div>\n\t\t\t\t\t<div class=\"flip_card_back\">\n\t\t\t\t\t\t<h2>How many moons does Neptune have?</h2>\n\t\t\t\t\t\t<br>\n\t\t\t\t\t\t<p>Answer: <strong>14</strong></p>\n\t\t\t\t\t</div>\n\t\t\t\t</div>\n\t\t\t</div>\n\t\t\t","response":null,"trial_type":"html-keyboard-response","trial_index":88,"time_elapsed":675751,"internal_node_id":"0.0-3.0-2.20","prolific_id":"5caa4435fd086000196ddf13","session_id":"643c252273c9ad07683adebe","study_id":"64370a36d30bfa807bc7e43c"},{"rt":2454,"stimulus":"\n\t\t\t\t\t<div>\n\t\t\t\t\t<h2>Trial 21 is over</h2>\n\t\t\t\t\t<p>Press <span style=\"color: red\"><strong>any key</strong></span> to continue to the next trial</p>\n\t\t\t\t\t</div>\n\t\t\t\t","response":" ","trial_type":"html-keyboard-response","trial_index":89,"time_elapsed":678205,"internal_node_id":"0.0-3.0-3.20","prolific_id":"5caa4435fd086000196ddf13","session_id":"643c252273c9ad07683adebe","study_id":"64370a36d30bfa807bc7e43c"},{"rt":10266,"response":{"prediction":"1890"},"trial_type":"survey-text","trial_index":90,"time_elapsed":688472,"internal_node_id":"0.0-3.0-0.21","prolific_id":"5caa4435fd086000196ddf13","session_id":"643c252273c9ad07683adebe","study_id":"64370a36d30bfa807bc7e43c"},{"rt":4393,"response":{"prior knowledge":0,"curiosity":5},"accuracy":[],"trial_type":"survey","trial_index":91,"time_elapsed":692872,"internal_node_id":"0.0-3.0-1.21","prolific_id":"5caa4435fd086000196ddf13","session_id":"643c252273c9ad07683adebe","study_id":"64370a36d30bfa807bc7e43c"},{"rt":null,"stimulus":"\n\t\t\t<div class=\"flip_card\">\n\t\t\t\t<div class=\"flip_card_inner\">\n\t\t\t\t\t<div class=\"flip_card_front\">\n\t\t\t\t\t\t<img src=img/15.png>\n\t\t\t\t\t</div>\n\t\t\t\t\t<div class=\"flip_card_back\">\n\t\t\t\t\t\t<h2>In what year did the first Modern Olympic Games take place?</h2>\n\t\t\t\t\t\t<br>\n\t\t\t\t\t\t<p>Answer: <strong>1896</strong></p>\n\t\t\t\t\t</div>\n\t\t\t\t</div>\n\t\t\t</div>\n\t\t\t","response":null,"trial_type":"html-keyboard-response","trial_index":92,"time_elapsed":697879,"internal_node_id":"0.0-3.0-2.21","prolific_id":"5caa4435fd086000196ddf13","session_id":"643c252273c9ad07683adebe","study_id":"64370a36d30bfa807bc7e43c"},{"rt":2274,"stimulus":"\n\t\t\t\t\t<div>\n\t\t\t\t\t<h2>Trial 22 is over</h2>\n\t\t\t\t\t<p>Press <span style=\"color: red\"><strong>any key</strong></span> to continue to the next trial</p>\n\t\t\t\t\t</div>\n\t\t\t\t","response":" ","trial_type":"html-keyboard-response","trial_index":93,"time_elapsed":700154,"internal_node_id":"0.0-3.0-3.21","prolific_id":"5caa4435fd086000196ddf13","session_id":"643c252273c9ad07683adebe","study_id":"64370a36d30bfa807bc7e43c"},{"rt":40959,"response":{"prediction":"3566"},"trial_type":"survey-text","trial_index":94,"time_elapsed":741113,"internal_node_id":"0.0-3.0-0.22","prolific_id":"5caa4435fd086000196ddf13","session_id":"643c252273c9ad07683adebe","study_id":"64370a36d30bfa807bc7e43c"},{"rt":4357,"response":{"prior knowledge":0,"curiosity":5},"accuracy":[],"trial_type":"survey","trial_index":95,"time_elapsed":745479,"internal_node_id":"0.0-3.0-1.22","prolific_id":"5caa4435fd086000196ddf13","session_id":"643c252273c9ad07683adebe","study_id":"64370a36d30bfa807bc7e43c"},{"rt":null,"stimulus":"\n\t\t\t<div class=\"flip_card\">\n\t\t\t\t<div class=\"flip_card_inner\">\n\t\t\t\t\t<div class=\"flip_card_front\">\n\t\t\t\t\t\t<img src=img/14.png>\n\t\t\t\t\t</div>\n\t\t\t\t\t<div class=\"flip_card_back\">\n\t\t\t\t\t\t<h2>What is the diameter of Earth in miles?</h2>\n\t\t\t\t\t\t<br>\n\t\t\t\t\t\t<p>Answer: <strong>7917.5</strong></p>\n\t\t\t\t\t</div>\n\t\t\t\t</div>\n\t\t\t</div>\n\t\t\t","response":null,"trial_type":"html-keyboard-response","trial_index":96,"time_elapsed":750484,"internal_node_id":"0.0-3.0-2.22","prolific_id":"5caa4435fd086000196ddf13","session_id":"643c252273c9ad07683adebe","study_id":"64370a36d30bfa807bc7e43c"},{"rt":7967,"stimulus":"\n\t\t\t\t\t<div>\n\t\t\t\t\t<h2>Trial 23 is over</h2>\n\t\t\t\t\t<p>Press <span style=\"color: red\"><strong>any key</strong></span> to continue to the next trial</p>\n\t\t\t\t\t</div>\n\t\t\t\t","response":" ","trial_type":"html-keyboard-response","trial_index":97,"time_elapsed":758452,"internal_node_id":"0.0-3.0-3.22","prolific_id":"5caa4435fd086000196ddf13","session_id":"643c252273c9ad07683adebe","study_id":"64370a36d30bfa807bc7e43c"},{"rt":14844,"response":{"prediction":"170"},"trial_type":"survey-text","trial_index":98,"time_elapsed":773298,"internal_node_id":"0.0-3.0-0.23","prolific_id":"5caa4435fd086000196ddf13","session_id":"643c252273c9ad07683adebe","study_id":"64370a36d30bfa807bc7e43c"},{"rt":18253,"response":{"prior knowledge":0,"curiosity":5},"accuracy":[],"trial_type":"survey","trial_index":99,"time_elapsed":791560,"internal_node_id":"0.0-3.0-1.23","prolific_id":"5caa4435fd086000196ddf13","session_id":"643c252273c9ad07683adebe","study_id":"64370a36d30bfa807bc7e43c"},{"rt":null,"stimulus":"\n\t\t\t<div class=\"flip_card\">\n\t\t\t\t<div class=\"flip_card_inner\">\n\t\t\t\t\t<div class=\"flip_card_front\">\n\t\t\t\t\t\t<img src=img/24.png>\n\t\t\t\t\t</div>\n\t\t\t\t\t<div class=\"flip_card_back\">\n\t\t\t\t\t\t<h2>How many countries are in Africa?</h2>\n\t\t\t\t\t\t<br>\n\t\t\t\t\t\t<p>Answer: <strong>54</strong></p>\n\t\t\t\t\t</div>\n\t\t\t\t</div>\n\t\t\t</div>\n\t\t\t","response":null,"trial_type":"html-keyboard-response","trial_index":100,"time_elapsed":796565,"internal_node_id":"0.0-3.0-2.23","prolific_id":"5caa4435fd086000196ddf13","session_id":"643c252273c9ad07683adebe","study_id":"64370a36d30bfa807bc7e43c"},{"rt":3185,"stimulus":"\n\t\t\t\t\t<div>\n\t\t\t\t\t<h2>Trial 24 is over</h2>\n\t\t\t\t\t<p>Press <span style=\"color: red\"><strong>any key</strong></span> to continue to the next trial</p>\n\t\t\t\t\t</div>\n\t\t\t\t","response":" ","trial_type":"html-keyboard-response","trial_index":101,"time_elapsed":799752,"internal_node_id":"0.0-3.0-3.23","prolific_id":"5caa4435fd086000196ddf13","session_id":"643c252273c9ad07683adebe","study_id":"64370a36d30bfa807bc7e43c"},{"rt":8038,"response":{"prediction":"13"},"trial_type":"survey-text","trial_index":102,"time_elapsed":807791,"internal_node_id":"0.0-3.0-0.24","prolific_id":"5caa4435fd086000196ddf13","session_id":"643c252273c9ad07683adebe","study_id":"64370a36d30bfa807bc7e43c"},{"rt":4740,"response":{"prior knowledge":3,"curiosity":3},"accuracy":[],"trial_type":"survey","trial_index":103,"time_elapsed":812541,"internal_node_id":"0.0-3.0-1.24","prolific_id":"5caa4435fd086000196ddf13","session_id":"643c252273c9ad07683adebe","study_id":"64370a36d30bfa807bc7e43c"},{"rt":null,"stimulus":"\n\t\t\t<div class=\"flip_card\">\n\t\t\t\t<div class=\"flip_card_inner\">\n\t\t\t\t\t<div class=\"flip_card_front\">\n\t\t\t\t\t\t<img src=img/27.png>\n\t\t\t\t\t</div>\n\t\t\t\t\t<div class=\"flip_card_back\">\n\t\t\t\t\t\t<h2>A bar mitzvah is traditionally celebrated when Jewish males turn what age?</h2>\n\t\t\t\t\t\t<br>\n\t\t\t\t\t\t<p>Answer: <strong>13</strong></p>\n\t\t\t\t\t</div>\n\t\t\t\t</div>\n\t\t\t</div>\n\t\t\t","response":null,"trial_type":"html-keyboard-response","trial_index":104,"time_elapsed":817547,"internal_node_id":"0.0-3.0-2.24","prolific_id":"5caa4435fd086000196ddf13","session_id":"643c252273c9ad07683adebe","study_id":"64370a36d30bfa807bc7e43c"},{"rt":4726,"stimulus":"\n\t\t\t\t\t<div>\n\t\t\t\t\t<h2>Trial 25 is over</h2>\n\t\t\t\t\t<p>Press <span style=\"color: red\"><strong>any key</strong></span> to continue to the next trial</p>\n\t\t\t\t\t</div>\n\t\t\t\t","response":" ","trial_type":"html-keyboard-response","trial_index":105,"time_elapsed":822273,"internal_node_id":"0.0-3.0-3.24","prolific_id":"5caa4435fd086000196ddf13","session_id":"643c252273c9ad07683adebe","study_id":"64370a36d30bfa807bc7e43c"},{"rt":6913,"response":{"prediction":"8"},"trial_type":"survey-text","trial_index":106,"time_elapsed":829188,"internal_node_id":"0.0-3.0-0.25","prolific_id":"5caa4435fd086000196ddf13","session_id":"643c252273c9ad07683adebe","study_id":"64370a36d30bfa807bc7e43c"},{"rt":4934,"response":{"prior knowledge":0,"curiosity":5},"accuracy":[],"trial_type":"survey","trial_index":107,"time_elapsed":834129,"internal_node_id":"0.0-3.0-1.25","prolific_id":"5caa4435fd086000196ddf13","session_id":"643c252273c9ad07683adebe","study_id":"64370a36d30bfa807bc7e43c"},{"rt":null,"stimulus":"\n\t\t\t<div class=\"flip_card\">\n\t\t\t\t<div class=\"flip_card_inner\">\n\t\t\t\t\t<div class=\"flip_card_front\">\n\t\t\t\t\t\t<img src=img/21.png>\n\t\t\t\t\t</div>\n\t\t\t\t\t<div class=\"flip_card_back\">\n\t\t\t\t\t\t<h2>How many single hand gestures, or mudras, are used in Indian classical dance?</h2>\n\t\t\t\t\t\t<br>\n\t\t\t\t\t\t<p>Answer: <strong>28</strong></p>\n\t\t\t\t\t</div>\n\t\t\t\t</div>\n\t\t\t</div>\n\t\t\t","response":null,"trial_type":"html-keyboard-response","trial_index":108,"time_elapsed":839135,"internal_node_id":"0.0-3.0-2.25","prolific_id":"5caa4435fd086000196ddf13","session_id":"643c252273c9ad07683adebe","study_id":"64370a36d30bfa807bc7e43c"},{"rt":3569,"stimulus":"\n\t\t\t\t\t<div>\n\t\t\t\t\t<h2>Trial 26 is over</h2>\n\t\t\t\t\t<p>Press <span style=\"color: red\"><strong>any key</strong></span> to continue to the next trial</p>\n\t\t\t\t\t</div>\n\t\t\t\t","response":" ","trial_type":"html-keyboard-response","trial_index":109,"time_elapsed":842705,"internal_node_id":"0.0-3.0-3.25","prolific_id":"5caa4435fd086000196ddf13","session_id":"643c252273c9ad07683adebe","study_id":"64370a36d30bfa807bc7e43c"},{"rt":12336,"response":{"prediction":"1905"},"trial_type":"survey-text","trial_index":110,"time_elapsed":855042,"internal_node_id":"0.0-3.0-0.26","prolific_id":"5caa4435fd086000196ddf13","session_id":"643c252273c9ad07683adebe","study_id":"64370a36d30bfa807bc7e43c"},{"rt":4313,"response":{"prior knowledge":2,"curiosity":5},"accuracy":[],"trial_type":"survey","trial_index":111,"time_elapsed":859364,"internal_node_id":"0.0-3.0-1.26","prolific_id":"5caa4435fd086000196ddf13","session_id":"643c252273c9ad07683adebe","study_id":"64370a36d30bfa807bc7e43c"},{"rt":null,"stimulus":"\n\t\t\t<div class=\"flip_card\">\n\t\t\t\t<div class=\"flip_card_inner\">\n\t\t\t\t\t<div class=\"flip_card_front\">\n\t\t\t\t\t\t<img src=img/3.png>\n\t\t\t\t\t</div>\n\t\t\t\t\t<div class=\"flip_card_back\">\n\t\t\t\t\t\t<h2>What year did the titanic sink?</h2>\n\t\t\t\t\t\t<br>\n\t\t\t\t\t\t<p>Answer: <strong>1912</strong></p>\n\t\t\t\t\t</div>\n\t\t\t\t</div>\n\t\t\t</div>\n\t\t\t","response":null,"trial_type":"html-keyboard-response","trial_index":112,"time_elapsed":864370,"internal_node_id":"0.0-3.0-2.26","prolific_id":"5caa4435fd086000196ddf13","session_id":"643c252273c9ad07683adebe","study_id":"64370a36d30bfa807bc7e43c"},{"rt":1835,"stimulus":"\n\t\t\t\t\t<div>\n\t\t\t\t\t<h2>Trial 27 is over</h2>\n\t\t\t\t\t<p>Press <span style=\"color: red\"><strong>any key</strong></span> to continue to the next trial</p>\n\t\t\t\t\t</div>\n\t\t\t\t","response":" ","trial_type":"html-keyboard-response","trial_index":113,"time_elapsed":866205,"internal_node_id":"0.0-3.0-3.26","prolific_id":"5caa4435fd086000196ddf13","session_id":"643c252273c9ad07683adebe","study_id":"64370a36d30bfa807bc7e43c"},{"rt":5507,"response":{"prediction":"73"},"trial_type":"survey-text","trial_index":114,"time_elapsed":871714,"internal_node_id":"0.0-3.0-0.27","prolific_id":"5caa4435fd086000196ddf13","session_id":"643c252273c9ad07683adebe","study_id":"64370a36d30bfa807bc7e43c"},{"rt":4089,"response":{"prior knowledge":0,"curiosity":5},"accuracy":[],"trial_type":"survey","trial_index":115,"time_elapsed":875812,"internal_node_id":"0.0-3.0-1.27","prolific_id":"5caa4435fd086000196ddf13","session_id":"643c252273c9ad07683adebe","study_id":"64370a36d30bfa807bc7e43c"},{"rt":null,"stimulus":"\n\t\t\t<div class=\"flip_card\">\n\t\t\t\t<div class=\"flip_card_inner\">\n\t\t\t\t\t<div class=\"flip_card_front\">\n\t\t\t\t\t\t<img src=img/11.png>\n\t\t\t\t\t</div>\n\t\t\t\t\t<div class=\"flip_card_back\">\n\t\t\t\t\t\t<h2>How many tones are in the Vietnamese language?</h2>\n\t\t\t\t\t\t<br>\n\t\t\t\t\t\t<p>Answer: <strong>6</strong></p>\n\t\t\t\t\t</div>\n\t\t\t\t</div>\n\t\t\t</div>\n\t\t\t","response":null,"trial_type":"html-keyboard-response","trial_index":116,"time_elapsed":880815,"internal_node_id":"0.0-3.0-2.27","prolific_id":"5caa4435fd086000196ddf13","session_id":"643c252273c9ad07683adebe","study_id":"64370a36d30bfa807bc7e43c"},{"rt":8893,"stimulus":"\n\t\t\t\t\t<div>\n\t\t\t\t\t<h2>Trial 28 is over</h2>\n\t\t\t\t\t<p>Press <span style=\"color: red\"><strong>any key</strong></span> to continue to the next trial</p>\n\t\t\t\t\t</div>\n\t\t\t\t","response":" ","trial_type":"html-keyboard-response","trial_index":117,"time_elapsed":889707,"internal_node_id":"0.0-3.0-3.27","prolific_id":"5caa4435fd086000196ddf13","session_id":"643c252273c9ad07683adebe","study_id":"64370a36d30bfa807bc7e43c"},{"rt":6373,"response":{"prediction":"1888"},"trial_type":"survey-text","trial_index":118,"time_elapsed":896083,"internal_node_id":"0.0-3.0-0.28","prolific_id":"5caa4435fd086000196ddf13","session_id":"643c252273c9ad07683adebe","study_id":"64370a36d30bfa807bc7e43c"},{"rt":4901,"response":{"prior knowledge":0,"curiosity":5},"accuracy":[],"trial_type":"survey","trial_index":119,"time_elapsed":900989,"internal_node_id":"0.0-3.0-1.28","prolific_id":"5caa4435fd086000196ddf13","session_id":"643c252273c9ad07683adebe","study_id":"64370a36d30bfa807bc7e43c"},{"rt":null,"stimulus":"\n\t\t\t<div class=\"flip_card\">\n\t\t\t\t<div class=\"flip_card_inner\">\n\t\t\t\t\t<div class=\"flip_card_front\">\n\t\t\t\t\t\t<img src=img/1.png>\n\t\t\t\t\t</div>\n\t\t\t\t\t<div class=\"flip_card_back\">\n\t\t\t\t\t\t<h2>In what year was the first Nobel Prize awarded?</h2>\n\t\t\t\t\t\t<br>\n\t\t\t\t\t\t<p>Answer: <strong>1901</strong></p>\n\t\t\t\t\t</div>\n\t\t\t\t</div>\n\t\t\t</div>\n\t\t\t","response":null,"trial_type":"html-keyboard-response","trial_index":120,"time_elapsed":905996,"internal_node_id":"0.0-3.0-2.28","prolific_id":"5caa4435fd086000196ddf13","session_id":"643c252273c9ad07683adebe","study_id":"64370a36d30bfa807bc7e43c"},{"rt":1801,"stimulus":"\n\t\t\t\t\t<div>\n\t\t\t\t\t<h2>Trial 29 is over</h2>\n\t\t\t\t\t<p>Press <span style=\"color: red\"><strong>any key</strong></span> to continue to the next trial</p>\n\t\t\t\t\t</div>\n\t\t\t\t","response":" ","trial_type":"html-keyboard-response","trial_index":121,"time_elapsed":907798,"internal_node_id":"0.0-3.0-3.28","prolific_id":"5caa4435fd086000196ddf13","session_id":"643c252273c9ad07683adebe","study_id":"64370a36d30bfa807bc7e43c"},{"rt":17409,"response":{"prediction":"1901"},"trial_type":"survey-text","trial_index":122,"time_elapsed":925208,"internal_node_id":"0.0-3.0-0.29","prolific_id":"5caa4435fd086000196ddf13","session_id":"643c252273c9ad07683adebe","study_id":"64370a36d30bfa807bc7e43c"},{"rt":16387,"response":{"prior knowledge":0,"curiosity":5},"accuracy":[],"trial_type":"survey","trial_index":123,"time_elapsed":941603,"internal_node_id":"0.0-3.0-1.29","prolific_id":"5caa4435fd086000196ddf13","session_id":"643c252273c9ad07683adebe","study_id":"64370a36d30bfa807bc7e43c"},{"rt":null,"stimulus":"\n\t\t\t<div class=\"flip_card\">\n\t\t\t\t<div class=\"flip_card_inner\">\n\t\t\t\t\t<div class=\"flip_card_front\">\n\t\t\t\t\t\t<img src=img/9.png>\n\t\t\t\t\t</div>\n\t\t\t\t\t<div class=\"flip_card_back\">\n\t\t\t\t\t\t<h2>In what year was the Mexican artist Frida Kahlo born?</h2>\n\t\t\t\t\t\t<br>\n\t\t\t\t\t\t<p>Answer: <strong>1907</strong></p>\n\t\t\t\t\t</div>\n\t\t\t\t</div>\n\t\t\t</div>\n\t\t\t","response":null,"trial_type":"html-keyboard-response","trial_index":124,"time_elapsed":946609,"internal_node_id":"0.0-3.0-2.29","prolific_id":"5caa4435fd086000196ddf13","session_id":"643c252273c9ad07683adebe","study_id":"64370a36d30bfa807bc7e43c"},{"rt":2611,"stimulus":"\n\t\t\t\t\t<div>\n\t\t\t\t\t<h2>Trial 30 is over</h2>\n\t\t\t\t\t<p>Press <span style=\"color: red\"><strong>any key</strong></span> to continue to the next trial</p>\n\t\t\t\t\t</div>\n\t\t\t\t","response":" ","trial_type":"html-keyboard-response","trial_index":125,"time_elapsed":949220,"internal_node_id":"0.0-3.0-3.29","prolific_id":"5caa4435fd086000196ddf13","session_id":"643c252273c9ad07683adebe","study_id":"64370a36d30bfa807bc7e43c"},{"rt":null,"stimulus":"\n\t\t\t<h2>Good job! You've finished the 30 trials:p</h2>\n\t\t\t<p>In the next session, you will see two cards on the screen in each trial.</p>\n\t\t\t<p>On one card is a pattern that you have seen before in the experiment,\n\t\t\t\tand on the other card is one you have not seen.</p><br>\n\t\t\t<p>Your task is to choose the one you think you <em>have</em> seen before for every trial.</p>\n\t\t\t<p>Press '<span style=\"color: red;\"><strong>F</strong></span>' to choose the card on the left,\n\t\t\t\tand '<span style=\"color: red;\"><strong>J</strong></span>' to choose the card on the right.</p>\n\t\t\t<p>Have fun!</p>\n\t\t\t<br>\n\t\t\t<p>The trials will begin in 30 seconds</p>\n\t\t\t","response":null,"trial_type":"html-keyboard-response","trial_index":126,"time_elapsed":979225,"internal_node_id":"0.0-4.0","prolific_id":"5caa4435fd086000196ddf13","session_id":"643c252273c9ad07683adebe","study_id":"64370a36d30bfa807bc7e43c"},{"rt":2249,"stimulus":"\n\t\t\t\t\t\t<div class=\"two_card_container\">\n\t\t\t\t\t\t<div class=\"card_container\">\n\t\t\t\t\t\t<img src=img/36.png>\n\t\t\t\t\t\t</div>\n\n\t\t\t\t\t\t<div class=\"card_container\">\n\t\t\t\t\t\t<img src=img/12.png>\n\t\t\t\t\t\t</div>","response":"f","task":"response","correct_response":"j","trial_type":"html-keyboard-response","trial_index":127,"time_elapsed":981475,"internal_node_id":"0.0-5.0-0.0","prolific_id":"5caa4435fd086000196ddf13","session_id":"643c252273c9ad07683adebe","study_id":"64370a36d30bfa807bc7e43c","correct":false},{"rt":null,"stimulus":"\n\t\t\t\t\t<p>Wrong answer</p>\n\t\t\t\t\t","response":null,"trial_type":"html-keyboard-response","trial_index":128,"time_elapsed":982478,"internal_node_id":"0.0-5.0-1.0","prolific_id":"5caa4435fd086000196ddf13","session_id":"643c252273c9ad07683adebe","study_id":"64370a36d30bfa807bc7e43c"},{"rt":1179,"stimulus":"\n\t\t\t\t\t\t<div class=\"two_card_container\">\n\t\t\t\t\t\t<div class=\"card_container\">\n\t\t\t\t\t\t<img src=img/11.png>\n\t\t\t\t\t\t</div>\n\n\t\t\t\t\t\t<div class=\"card_container\">\n\t\t\t\t\t\t<img src=img/39.png>\n\t\t\t\t\t\t</div>","response":"f","task":"response","correct_response":"f","trial_type":"html-keyboard-response","trial_index":129,"time_elapsed":983657,"internal_node_id":"0.0-5.0-0.1","prolific_id":"5caa4435fd086000196ddf13","session_id":"643c252273c9ad07683adebe","study_id":"64370a36d30bfa807bc7e43c","correct":true},{"rt":null,"stimulus":"\n\t\t\t\t\t<p>Correct!</p>\n\t\t\t\t\t","response":null,"trial_type":"html-keyboard-response","trial_index":130,"time_elapsed":984660,"internal_node_id":"0.0-5.0-1.1","prolific_id":"5caa4435fd086000196ddf13","session_id":"643c252273c9ad07683adebe","study_id":"64370a36d30bfa807bc7e43c"},{"rt":897,"stimulus":"\n\t\t\t\t\t\t<div class=\"two_card_container\">\n\t\t\t\t\t\t<div class=\"card_container\">\n\t\t\t\t\t\t<img src=img/20.png>\n\t\t\t\t\t\t</div>\n\n\t\t\t\t\t\t<div class=\"card_container\">\n\t\t\t\t\t\t<img src=img/37.png>\n\t\t\t\t\t\t</div>","response":"f","task":"response","correct_response":"f","trial_type":"html-keyboard-response","trial_index":131,"time_elapsed":985558,"internal_node_id":"0.0-5.0-0.2","prolific_id":"5caa4435fd086000196ddf13","session_id":"643c252273c9ad07683adebe","study_id":"64370a36d30bfa807bc7e43c","correct":true},{"rt":null,"stimulus":"\n\t\t\t\t\t<p>Correct!</p>\n\t\t\t\t\t","response":null,"trial_type":"html-keyboard-response","trial_index":132,"time_elapsed":986558,"internal_node_id":"0.0-5.0-1.2","prolific_id":"5caa4435fd086000196ddf13","session_id":"643c252273c9ad07683adebe","study_id":"64370a36d30bfa807bc7e43c"},{"rt":1339,"stimulus":"\n\t\t\t\t\t\t<div class=\"two_card_container\">\n\t\t\t\t\t\t<div class=\"card_container\">\n\t\t\t\t\t\t<img src=img/3.png>\n\t\t\t\t\t\t</div>\n\n\t\t\t\t\t\t<div class=\"card_container\">\n\t\t\t\t\t\t<img src=img/31.png>\n\t\t\t\t\t\t</div>","response":"f","task":"response","correct_response":"f","trial_type":"html-keyboard-response","trial_index":133,"time_elapsed":987898,"internal_node_id":"0.0-5.0-0.3","prolific_id":"5caa4435fd086000196ddf13","session_id":"643c252273c9ad07683adebe","study_id":"64370a36d30bfa807bc7e43c","correct":true},{"rt":null,"stimulus":"\n\t\t\t\t\t<p>Correct!</p>\n\t\t\t\t\t","response":null,"trial_type":"html-keyboard-response","trial_index":134,"time_elapsed":988901,"internal_node_id":"0.0-5.0-1.3","prolific_id":"5caa4435fd086000196ddf13","session_id":"643c252273c9ad07683adebe","study_id":"64370a36d30bfa807bc7e43c"},{"rt":1089,"stimulus":"\n\t\t\t\t\t\t<div class=\"two_card_container\">\n\t\t\t\t\t\t<div class=\"card_container\">\n\t\t\t\t\t\t<img src=img/33.png>\n\t\t\t\t\t\t</div>\n\n\t\t\t\t\t\t<div class=\"card_container\">\n\t\t\t\t\t\t<img src=img/19.png>\n\t\t\t\t\t\t</div>","response":"j","task":"response","correct_response":"j","trial_type":"html-keyboard-response","trial_index":135,"time_elapsed":989991,"internal_node_id":"0.0-5.0-0.4","prolific_id":"5caa4435fd086000196ddf13","session_id":"643c252273c9ad07683adebe","study_id":"64370a36d30bfa807bc7e43c","correct":true},{"rt":null,"stimulus":"\n\t\t\t\t\t<p>Correct!</p>\n\t\t\t\t\t","response":null,"trial_type":"html-keyboard-response","trial_index":136,"time_elapsed":990994,"internal_node_id":"0.0-5.0-1.4","prolific_id":"5caa4435fd086000196ddf13","session_id":"643c252273c9ad07683adebe","study_id":"64370a36d30bfa807bc7e43c"},{"rt":920,"stimulus":"\n\t\t\t\t\t\t<div class=\"two_card_container\">\n\t\t\t\t\t\t<div class=\"card_container\">\n\t\t\t\t\t\t<img src=img/7.png>\n\t\t\t\t\t\t</div>\n\n\t\t\t\t\t\t<div class=\"card_container\">\n\t\t\t\t\t\t<img src=img/32.png>\n\t\t\t\t\t\t</div>","response":"f","task":"response","correct_response":"f","trial_type":"html-keyboard-response","trial_index":137,"time_elapsed":991915,"internal_node_id":"0.0-5.0-0.5","prolific_id":"5caa4435fd086000196ddf13","session_id":"643c252273c9ad07683adebe","study_id":"64370a36d30bfa807bc7e43c","correct":true},{"rt":null,"stimulus":"\n\t\t\t\t\t<p>Correct!</p>\n\t\t\t\t\t","response":null,"trial_type":"html-keyboard-response","trial_index":138,"time_elapsed":992920,"internal_node_id":"0.0-5.0-1.5","prolific_id":"5caa4435fd086000196ddf13","session_id":"643c252273c9ad07683adebe","study_id":"64370a36d30bfa807bc7e43c"},{"rt":1222,"stimulus":"\n\t\t\t\t\t\t<div class=\"two_card_container\">\n\t\t\t\t\t\t<div class=\"card_container\">\n\t\t\t\t\t\t<img src=img/27.png>\n\t\t\t\t\t\t</div>\n\n\t\t\t\t\t\t<div class=\"card_container\">\n\t\t\t\t\t\t<img src=img/40.png>\n\t\t\t\t\t\t</div>","response":"f","task":"response","correct_response":"f","trial_type":"html-keyboard-response","trial_index":139,"time_elapsed":994142,"internal_node_id":"0.0-5.0-0.6","prolific_id":"5caa4435fd086000196ddf13","session_id":"643c252273c9ad07683adebe","study_id":"64370a36d30bfa807bc7e43c","correct":true},{"rt":null,"stimulus":"\n\t\t\t\t\t<p>Correct!</p>\n\t\t\t\t\t","response":null,"trial_type":"html-keyboard-response","trial_index":140,"time_elapsed":995145,"internal_node_id":"0.0-5.0-1.6","prolific_id":"5caa4435fd086000196ddf13","session_id":"643c252273c9ad07683adebe","study_id":"64370a36d30bfa807bc7e43c"},{"rt":1279,"stimulus":"\n\t\t\t\t\t\t<div class=\"two_card_container\">\n\t\t\t\t\t\t<div class=\"card_container\">\n\t\t\t\t\t\t<img src=img/34.png>\n\t\t\t\t\t\t</div>\n\n\t\t\t\t\t\t<div class=\"card_container\">\n\t\t\t\t\t\t<img src=img/1.png>\n\t\t\t\t\t\t</div>","response":"f","task":"response","correct_response":"j","trial_type":"html-keyboard-response","trial_index":141,"time_elapsed":996426,"internal_node_id":"0.0-5.0-0.7","prolific_id":"5caa4435fd086000196ddf13","session_id":"643c252273c9ad07683adebe","study_id":"64370a36d30bfa807bc7e43c","correct":false},{"rt":null,"stimulus":"\n\t\t\t\t\t<p>Wrong answer</p>\n\t\t\t\t\t","response":null,"trial_type":"html-keyboard-response","trial_index":142,"time_elapsed":997429,"internal_node_id":"0.0-5.0-1.7","prolific_id":"5caa4435fd086000196ddf13","session_id":"643c252273c9ad07683adebe","study_id":"64370a36d30bfa807bc7e43c"},{"rt":1112,"stimulus":"\n\t\t\t\t\t\t<div class=\"two_card_container\">\n\t\t\t\t\t\t<div class=\"card_container\">\n\t\t\t\t\t\t<img src=img/35.png>\n\t\t\t\t\t\t</div>\n\n\t\t\t\t\t\t<div class=\"card_container\">\n\t\t\t\t\t\t<img src=img/17.png>\n\t\t\t\t\t\t</div>","response":"j","task":"response","correct_response":"j","trial_type":"html-keyboard-response","trial_index":143,"time_elapsed":998541,"internal_node_id":"0.0-5.0-0.8","prolific_id":"5caa4435fd086000196ddf13","session_id":"643c252273c9ad07683adebe","study_id":"64370a36d30bfa807bc7e43c","correct":true},{"rt":null,"stimulus":"\n\t\t\t\t\t<p>Correct!</p>\n\t\t\t\t\t","response":null,"trial_type":"html-keyboard-response","trial_index":144,"time_elapsed":999543,"internal_node_id":"0.0-5.0-1.8","prolific_id":"5caa4435fd086000196ddf13","session_id":"643c252273c9ad07683adebe","study_id":"64370a36d30bfa807bc7e43c"},{"rt":1146,"stimulus":"\n\t\t\t\t\t\t<div class=\"two_card_container\">\n\t\t\t\t\t\t<div class=\"card_container\">\n\t\t\t\t\t\t<img src=img/38.png>\n\t\t\t\t\t\t</div>\n\n\t\t\t\t\t\t<div class=\"card_container\">\n\t\t\t\t\t\t<img src=img/23.png>\n\t\t\t\t\t\t</div>","response":"j","task":"response","correct_response":"j","trial_type":"html-keyboard-response","trial_index":145,"time_elapsed":1000689,"internal_node_id":"0.0-5.0-0.9","prolific_id":"5caa4435fd086000196ddf13","session_id":"643c252273c9ad07683adebe","study_id":"64370a36d30bfa807bc7e43c","correct":true},{"rt":null,"stimulus":"\n\t\t\t\t\t<p>Correct!</p>\n\t\t\t\t\t","response":null,"trial_type":"html-keyboard-response","trial_index":146,"time_elapsed":1001694,"internal_node_id":"0.0-5.0-1.9","prolific_id":"5caa4435fd086000196ddf13","session_id":"643c252273c9ad07683adebe","study_id":"64370a36d30bfa807bc7e43c"},{"rt":null,"stimulus":"\n\t\t\t<h2>Good job :p</h2>\n\t\t\t<p>In the next session, you will see a trivia question on the screen in each trial.</p>\n\t\t\t<p>Each of these trivia questions is chosen from the questions you have already seen in the first session of the experiment.</p><br>\n\t\t\t<p>Your task is to answer the trivia question based on what you remember as accurately as you can.</p>\n\t\t\t<p>Have fun!</p>\n\t\t\t<br>\n\t\t\t<p>The trials will begin in 30 seconds</p>\n\t\t\t","response":null,"trial_type":"html-keyboard-response","trial_index":147,"time_elapsed":1031697,"internal_node_id":"0.0-6.0","prolific_id":"5caa4435fd086000196ddf13","session_id":"643c252273c9ad07683adebe","study_id":"64370a36d30bfa807bc7e43c"},{"rt":4368,"response":{"answer":"8"},"task":"response","correct_response":"6","trial_type":"survey-text","trial_index":148,"time_elapsed":1036068,"internal_node_id":"0.0-7.0-0.0","prolific_id":"5caa4435fd086000196ddf13","session_id":"643c252273c9ad07683adebe","study_id":"64370a36d30bfa807bc7e43c","difference":33},{"rt":null,"stimulus":"<h2>The correct answer is 6.</h2><p>Your answer was different from the answer by 2.</p><p>Not the worst. Can you do better on the next?</p>","response":null,"trial_type":"html-keyboard-response","trial_index":149,"time_elapsed":1038574,"internal_node_id":"0.0-7.0-1.0","prolific_id":"5caa4435fd086000196ddf13","session_id":"643c252273c9ad07683adebe","study_id":"64370a36d30bfa807bc7e43c"},{"rt":5142,"response":{"answer":"1908"},"task":"response","correct_response":"1901","trial_type":"survey-text","trial_index":150,"time_elapsed":1043717,"internal_node_id":"0.0-7.0-0.1","prolific_id":"5caa4435fd086000196ddf13","session_id":"643c252273c9ad07683adebe","study_id":"64370a36d30bfa807bc7e43c","difference":0},{"rt":null,"stimulus":"<h2>The correct answer is 1901.</h2><p>Your answer was different from the answer by 7.</p><p>Excellent. Kudos to you!</p>","response":null,"trial_type":"html-keyboard-response","trial_index":151,"time_elapsed":1046223,"internal_node_id":"0.0-7.0-1.1","prolific_id":"5caa4435fd086000196ddf13","session_id":"643c252273c9ad07683adebe","study_id":"64370a36d30bfa807bc7e43c"},{"rt":3962,"response":{"answer":"8"},"task":"response","correct_response":"8","trial_type":"survey-text","trial_index":152,"time_elapsed":1050187,"internal_node_id":"0.0-7.0-0.2","prolific_id":"5caa4435fd086000196ddf13","session_id":"643c252273c9ad07683adebe","study_id":"64370a36d30bfa807bc7e43c","difference":0},{"rt":null,"stimulus":"<h2>The correct answer is 8.</h2><p>Your answer was different from the answer by 0.</p><p>You got the right answer. Amazing work!</p>","response":null,"trial_type":"html-keyboard-response","trial_index":153,"time_elapsed":1052693,"internal_node_id":"0.0-7.0-1.2","prolific_id":"5caa4435fd086000196ddf13","session_id":"643c252273c9ad07683adebe","study_id":"64370a36d30bfa807bc7e43c"},{"rt":3106,"response":{"answer":"13"},"task":"response","correct_response":"13","trial_type":"survey-text","trial_index":154,"time_elapsed":1055800,"internal_node_id":"0.0-7.0-0.3","prolific_id":"5caa4435fd086000196ddf13","session_id":"643c252273c9ad07683adebe","study_id":"64370a36d30bfa807bc7e43c","difference":0},{"rt":null,"stimulus":"<h2>The correct answer is 13.</h2><p>Your answer was different from the answer by 0.</p><p>You got the right answer. Amazing work!</p>","response":null,"trial_type":"html-keyboard-response","trial_index":155,"time_elapsed":1058306,"internal_node_id":"0.0-7.0-1.3","prolific_id":"5caa4435fd086000196ddf13","session_id":"643c252273c9ad07683adebe","study_id":"64370a36d30bfa807bc7e43c"},{"rt":3949,"response":{"answer":"168"},"task":"response","correct_response":"163","trial_type":"survey-text","trial_index":156,"time_elapsed":1062257,"internal_node_id":"0.0-7.0-0.4","prolific_id":"5caa4435fd086000196ddf13","session_id":"643c252273c9ad07683adebe","study_id":"64370a36d30bfa807bc7e43c","difference":3},{"rt":null,"stimulus":"<h2>The correct answer is 163.</h2><p>Your answer was different from the answer by 5.</p><p>Excellent. Kudos to you!</p>","response":null,"trial_type":"html-keyboard-response","trial_index":157,"time_elapsed":1064763,"internal_node_id":"0.0-7.0-1.4","prolific_id":"5caa4435fd086000196ddf13","session_id":"643c252273c9ad07683adebe","study_id":"64370a36d30bfa807bc7e43c"},{"rt":3298,"response":{"answer":"58"},"task":"response","correct_response":"73","trial_type":"survey-text","trial_index":158,"time_elapsed":1068063,"internal_node_id":"0.0-7.0-0.5","prolific_id":"5caa4435fd086000196ddf13","session_id":"643c252273c9ad07683adebe","study_id":"64370a36d30bfa807bc7e43c","difference":21},{"rt":null,"stimulus":"<h2>The correct answer is 73.</h2><p>Your answer was different from the answer by 15.</p><p>A pretty good job indeed.</p>","response":null,"trial_type":"html-keyboard-response","trial_index":159,"time_elapsed":1070566,"internal_node_id":"0.0-7.0-1.5","prolific_id":"5caa4435fd086000196ddf13","session_id":"643c252273c9ad07683adebe","study_id":"64370a36d30bfa807bc7e43c"},{"rt":3344,"response":{"answer":"63"},"task":"response","correct_response":"65","trial_type":"survey-text","trial_index":160,"time_elapsed":1073913,"internal_node_id":"0.0-7.0-0.6","prolific_id":"5caa4435fd086000196ddf13","session_id":"643c252273c9ad07683adebe","study_id":"64370a36d30bfa807bc7e43c","difference":3},{"rt":null,"stimulus":"<h2>The correct answer is 65.</h2><p>Your answer was different from the answer by 2.</p><p>Excellent. Kudos to you!</p>","response":null,"trial_type":"html-keyboard-response","trial_index":161,"time_elapsed":1076419,"internal_node_id":"0.0-7.0-1.6","prolific_id":"5caa4435fd086000196ddf13","session_id":"643c252273c9ad07683adebe","study_id":"64370a36d30bfa807bc7e43c"},{"rt":4152,"response":{"answer":"1989"},"task":"response","correct_response":"1989","trial_type":"survey-text","trial_index":162,"time_elapsed":1080572,"internal_node_id":"0.0-7.0-0.7","prolific_id":"5caa4435fd086000196ddf13","session_id":"643c252273c9ad07683adebe","study_id":"64370a36d30bfa807bc7e43c","difference":0},{"rt":null,"stimulus":"<h2>The correct answer is 1989.</h2><p>Your answer was different from the answer by 0.</p><p>You got the right answer. Amazing work!</p>","response":null,"trial_type":"html-keyboard-response","trial_index":163,"time_elapsed":1083079,"internal_node_id":"0.0-7.0-1.7","prolific_id":"5caa4435fd086000196ddf13","session_id":"643c252273c9ad07683adebe","study_id":"64370a36d30bfa807bc7e43c"},{"rt":3690,"response":{"answer":"78"},"task":"response","correct_response":"79","trial_type":"survey-text","trial_index":164,"time_elapsed":1086772,"internal_node_id":"0.0-7.0-0.8","prolific_id":"5caa4435fd086000196ddf13","session_id":"643c252273c9ad07683adebe","study_id":"64370a36d30bfa807bc7e43c","difference":1},{"rt":null,"stimulus":"<h2>The correct answer is 79.</h2><p>Your answer was different from the answer by 1.</p><p>Excellent. Kudos to you!</p>","response":null,"trial_type":"html-keyboard-response","trial_index":165,"time_elapsed":1089273,"internal_node_id":"0.0-7.0-1.8","prolific_id":"5caa4435fd086000196ddf13","session_id":"643c252273c9ad07683adebe","study_id":"64370a36d30bfa807bc7e43c"},{"rt":4370,"response":{"answer":"11"},"task":"response","correct_response":"11","trial_type":"survey-text","trial_index":166,"time_elapsed":1093645,"internal_node_id":"0.0-7.0-0.9","prolific_id":"5caa4435fd086000196ddf13","session_id":"643c252273c9ad07683adebe","study_id":"64370a36d30bfa807bc7e43c","difference":0},{"rt":null,"stimulus":"<h2>The correct answer is 11.</h2><p>Your answer was different from the answer by 0.</p><p>You got the right answer. Amazing work!</p>","response":null,"trial_type":"html-keyboard-response","trial_index":167,"time_elapsed":1096152,"internal_node_id":"0.0-7.0-1.9","prolific_id":"5caa4435fd086000196ddf13","session_id":"643c252273c9ad07683adebe","study_id":"64370a36d30bfa807bc7e43c"}]