[{"success":true,"timeout":false,"failed_images":[],"failed_audio":[],"failed_video":[],"trial_type":"preload","trial_index":0,"time_elapsed":6218,"internal_node_id":"0.0-0.0","prolific_id":"5dcca657854936945d68eaa9","session_id":"643c24ecc59b04c01138427b","study_id":"64370a36d30bfa807bc7e43c"},{"rt":18646,"stimulus":"\n\t\t\t\t\t<p>Welcome and thank you for participating in this study!</p>\n\t\t\t\t\t<p>In each trial, you will be given a trivia question and then be asked to:</p><br>\n\t\t\t\t\t<div class=\"list\">\n\t\t\t\t\t<p>1) Predict the answer</p>\n\t\t\t\t\t<p>2) Rate how much you already know about the topic</p>\n\t\t\t\t\t<p>3) Rate how much you want to know the answer</p>\n\t\t\t\t\t</div>\n\t\t\t\t\t<br>\n\t\t\t\t\t<p>Then, you will see a card that flips over to reveal the answer.</p>\n\t\t\t\t\t<br>\n\t\t\t\t\t<p>Let's try a practice round. Press <span style=\"color: red\"><strong>any key</strong></span> to move to the next slide</p>\n\t\t\t\t\t","response":" ","trial_type":"html-keyboard-response","trial_index":1,"time_elapsed":24865,"internal_node_id":"0.0-1.0","prolific_id":"5dcca657854936945d68eaa9","session_id":"643c24ecc59b04c01138427b","study_id":"64370a36d30bfa807bc7e43c"},{"rt":10260,"response":{"practice prediction":"8"},"task":"practice","trial_type":"survey-text","trial_index":2,"time_elapsed":35139,"internal_node_id":"0.0-2.0-0.0","prolific_id":"5dcca657854936945d68eaa9","session_id":"643c24ecc59b04c01138427b","study_id":"64370a36d30bfa807bc7e43c"},{"rt":10226,"response":{"practice":3},"accuracy":[],"trial_type":"survey","trial_index":3,"time_elapsed":45409,"internal_node_id":"0.0-2.0-1.0","prolific_id":"5dcca657854936945d68eaa9","session_id":"643c24ecc59b04c01138427b","study_id":"64370a36d30bfa807bc7e43c"},{"rt":null,"stimulus":"\n\t\t\t\t<div class=\"flip_card\">\n\t\t\t\t\t<div class=\"flip_card_inner\">\n\t\t\t\t\t\t<div class=\"flip_card_front\">\n\t\t\t\t\t\t\t<img src=img/practice.png>\n\t\t\t\t\t\t</div>\n\t\t\t\t\t\t<div class=\"flip_card_back\">\n\t\t\t\t\t\t\t<h2>\"How many legs does a lobster have?\"</h2>\n\t\t\t\t\t\t    <br>\n\t\t\t\t\t\t    <p>Answer: <strong>\"10\"</strong></p>\n\t\t\t\t\t    </div>\n\t\t\t\t    </div>\n\t\t\t    </div>\n\t\t\t\t","response":null,"trial_type":"html-keyboard-response","trial_index":4,"time_elapsed":50411,"internal_node_id":"0.0-2.0-2.0","prolific_id":"5dcca657854936945d68eaa9","session_id":"643c24ecc59b04c01138427b","study_id":"64370a36d30bfa807bc7e43c"},{"rt":3882,"stimulus":"\n\t\t\t\t\t<div>\n\t\t\t\t\t<h2>The practice round is over</h2>\n\t\t\t\t\t<p>Press <span style=\"color: red\"><strong>any key</strong></span> to continue to the actual trials</p>\n\t\t\t\t\t<p>Good Luck!</p>\n\t\t\t\t\t</div>\n\t\t\t\t\t","response":" ","trial_type":"html-keyboard-response","trial_index":5,"time_elapsed":54294,"internal_node_id":"0.0-2.0-3.0","prolific_id":"5dcca657854936945d68eaa9","session_id":"643c24ecc59b04c01138427b","study_id":"64370a36d30bfa807bc7e43c"},{"rt":9407,"response":{"prediction":"50"},"trial_type":"survey-text","trial_index":6,"time_elapsed":63709,"internal_node_id":"0.0-3.0-0.0","prolific_id":"5dcca657854936945d68eaa9","session_id":"643c24ecc59b04c01138427b","study_id":"64370a36d30bfa807bc7e43c"},{"rt":4419,"response":{"prior knowledge":0,"curiosity":1},"accuracy":[],"trial_type":"survey","trial_index":7,"time_elapsed":68146,"internal_node_id":"0.0-3.0-1.0","prolific_id":"5dcca657854936945d68eaa9","session_id":"643c24ecc59b04c01138427b","study_id":"64370a36d30bfa807bc7e43c"},{"rt":null,"stimulus":"\n\t\t\t<div class=\"flip_card\">\n\t\t\t\t<div class=\"flip_card_inner\">\n\t\t\t\t\t<div class=\"flip_card_front\">\n\t\t\t\t\t\t<img src=img/28.png>\n\t\t\t\t\t</div>\n\t\t\t\t\t<div class=\"flip_card_back\">\n\t\t\t\t\t\t<h2>How many single hand gestures, or mudras, are used in Indian classical dance?</h2>\n\t\t\t\t\t\t<br>\n\t\t\t\t\t\t<p>Answer: <strong>28</strong></p>\n\t\t\t\t\t</div>\n\t\t\t\t</div>\n\t\t\t</div>\n\t\t\t","response":null,"trial_type":"html-keyboard-response","trial_index":8,"time_elapsed":73148,"internal_node_id":"0.0-3.0-2.0","prolific_id":"5dcca657854936945d68eaa9","session_id":"643c24ecc59b04c01138427b","study_id":"64370a36d30bfa807bc7e43c"},{"rt":2711,"stimulus":"\n\t\t\t\t\t<div>\n\t\t\t\t\t<h2>Trial 1 is over</h2>\n\t\t\t\t\t<p>Press <span style=\"color: red\"><strong>any key</strong></span> to continue to the next trial</p>\n\t\t\t\t\t</div>\n\t\t\t\t","response":" ","trial_type":"html-keyboard-response","trial_index":9,"time_elapsed":75861,"internal_node_id":"0.0-3.0-3.0","prolific_id":"5dcca657854936945d68eaa9","session_id":"643c24ecc59b04c01138427b","study_id":"64370a36d30bfa807bc7e43c"},{"rt":11399,"response":{"prediction":"16"},"trial_type":"survey-text","trial_index":10,"time_elapsed":87267,"internal_node_id":"0.0-3.0-0.1","prolific_id":"5dcca657854936945d68eaa9","session_id":"643c24ecc59b04c01138427b","study_id":"64370a36d30bfa807bc7e43c"},{"rt":4107,"response":{"prior knowledge":1,"curiosity":3},"accuracy":[],"trial_type":"survey","trial_index":11,"time_elapsed":91389,"internal_node_id":"0.0-3.0-1.1","prolific_id":"5dcca657854936945d68eaa9","session_id":"643c24ecc59b04c01138427b","study_id":"64370a36d30bfa807bc7e43c"},{"rt":null,"stimulus":"\n\t\t\t<div class=\"flip_card\">\n\t\t\t\t<div class=\"flip_card_inner\">\n\t\t\t\t\t<div class=\"flip_card_front\">\n\t\t\t\t\t\t<img src=img/7.png>\n\t\t\t\t\t</div>\n\t\t\t\t\t<div class=\"flip_card_back\">\n\t\t\t\t\t\t<h2>How many countries in Africa have French as the official language?</h2>\n\t\t\t\t\t\t<br>\n\t\t\t\t\t\t<p>Answer: <strong>21</strong></p>\n\t\t\t\t\t</div>\n\t\t\t\t</div>\n\t\t\t</div>\n\t\t\t","response":null,"trial_type":"html-keyboard-response","trial_index":12,"time_elapsed":96391,"internal_node_id":"0.0-3.0-2.1","prolific_id":"5dcca657854936945d68eaa9","session_id":"643c24ecc59b04c01138427b","study_id":"64370a36d30bfa807bc7e43c"},{"rt":1952,"stimulus":"\n\t\t\t\t\t<div>\n\t\t\t\t\t<h2>Trial 2 is over</h2>\n\t\t\t\t\t<p>Press <span style=\"color: red\"><strong>any key</strong></span> to continue to the next trial</p>\n\t\t\t\t\t</div>\n\t\t\t\t","response":"enter","trial_type":"html-keyboard-response","trial_index":13,"time_elapsed":98344,"internal_node_id":"0.0-3.0-3.1","prolific_id":"5dcca657854936945d68eaa9","session_id":"643c24ecc59b04c01138427b","study_id":"64370a36d30bfa807bc7e43c"},{"rt":16761,"response":{"prediction":"1885"},"trial_type":"survey-text","trial_index":14,"time_elapsed":115107,"internal_node_id":"0.0-3.0-0.2","prolific_id":"5dcca657854936945d68eaa9","session_id":"643c24ecc59b04c01138427b","study_id":"64370a36d30bfa807bc7e43c"},{"rt":5575,"response":{"prior knowledge":0,"curiosity":2},"accuracy":[],"trial_type":"survey","trial_index":15,"time_elapsed":120700,"internal_node_id":"0.0-3.0-1.2","prolific_id":"5dcca657854936945d68eaa9","session_id":"643c24ecc59b04c01138427b","study_id":"64370a36d30bfa807bc7e43c"},{"rt":null,"stimulus":"\n\t\t\t<div class=\"flip_card\">\n\t\t\t\t<div class=\"flip_card_inner\">\n\t\t\t\t\t<div class=\"flip_card_front\">\n\t\t\t\t\t\t<img src=img/25.png>\n\t\t\t\t\t</div>\n\t\t\t\t\t<div class=\"flip_card_back\">\n\t\t\t\t\t\t<h2>In what year was the Mexican artist Frida Kahlo born?</h2>\n\t\t\t\t\t\t<br>\n\t\t\t\t\t\t<p>Answer: <strong>1907</strong></p>\n\t\t\t\t\t</div>\n\t\t\t\t</div>\n\t\t\t</div>\n\t\t\t","response":null,"trial_type":"html-keyboard-response","trial_index":16,"time_elapsed":125701,"internal_node_id":"0.0-3.0-2.2","prolific_id":"5dcca657854936945d68eaa9","session_id":"643c24ecc59b04c01138427b","study_id":"64370a36d30bfa807bc7e43c"},{"rt":3693,"stimulus":"\n\t\t\t\t\t<div>\n\t\t\t\t\t<h2>Trial 3 is over</h2>\n\t\t\t\t\t<p>Press <span style=\"color: red\"><strong>any key</strong></span> to continue to the next trial</p>\n\t\t\t\t\t</div>\n\t\t\t\t","response":"enter","trial_type":"html-keyboard-response","trial_index":17,"time_elapsed":129397,"internal_node_id":"0.0-3.0-3.2","prolific_id":"5dcca657854936945d68eaa9","session_id":"643c24ecc59b04c01138427b","study_id":"64370a36d30bfa807bc7e43c"},{"rt":20435,"response":{"prediction":"140"},"trial_type":"survey-text","trial_index":18,"time_elapsed":149836,"internal_node_id":"0.0-3.0-0.3","prolific_id":"5dcca657854936945d68eaa9","session_id":"643c24ecc59b04c01138427b","study_id":"64370a36d30bfa807bc7e43c"},{"rt":3624,"response":{"prior knowledge":1,"curiosity":3},"accuracy":[],"trial_type":"survey","trial_index":19,"time_elapsed":153473,"internal_node_id":"0.0-3.0-1.3","prolific_id":"5dcca657854936945d68eaa9","session_id":"643c24ecc59b04c01138427b","study_id":"64370a36d30bfa807bc7e43c"},{"rt":null,"stimulus":"\n\t\t\t<div class=\"flip_card\">\n\t\t\t\t<div class=\"flip_card_inner\">\n\t\t\t\t\t<div class=\"flip_card_front\">\n\t\t\t\t\t\t<img src=img/29.png>\n\t\t\t\t\t</div>\n\t\t\t\t\t<div class=\"flip_card_back\">\n\t\t\t\t\t\t<h2>How many floors are in the Burj Khalifa, the tallest building in the world?</h2>\n\t\t\t\t\t\t<br>\n\t\t\t\t\t\t<p>Answer: <strong>163</strong></p>\n\t\t\t\t\t</div>\n\t\t\t\t</div>\n\t\t\t</div>\n\t\t\t","response":null,"trial_type":"html-keyboard-response","trial_index":20,"time_elapsed":158476,"internal_node_id":"0.0-3.0-2.3","prolific_id":"5dcca657854936945d68eaa9","session_id":"643c24ecc59b04c01138427b","study_id":"64370a36d30bfa807bc7e43c"},{"rt":2916,"stimulus":"\n\t\t\t\t\t<div>\n\t\t\t\t\t<h2>Trial 4 is over</h2>\n\t\t\t\t\t<p>Press <span style=\"color: red\"><strong>any key</strong></span> to continue to the next trial</p>\n\t\t\t\t\t</div>\n\t\t\t\t","response":"enter","trial_type":"html-keyboard-response","trial_index":21,"time_elapsed":161393,"internal_node_id":"0.0-3.0-3.3","prolific_id":"5dcca657854936945d68eaa9","session_id":"643c24ecc59b04c01138427b","study_id":"64370a36d30bfa807bc7e43c"},{"rt":10571,"response":{"prediction":"88"},"trial_type":"survey-text","trial_index":22,"time_elapsed":171965,"internal_node_id":"0.0-3.0-0.4","prolific_id":"5dcca657854936945d68eaa9","session_id":"643c24ecc59b04c01138427b","study_id":"64370a36d30bfa807bc7e43c"},{"rt":3351,"response":{"prior knowledge":0,"curiosity":0},"accuracy":[],"trial_type":"survey","trial_index":23,"time_elapsed":175331,"internal_node_id":"0.0-3.0-1.4","prolific_id":"5dcca657854936945d68eaa9","session_id":"643c24ecc59b04c01138427b","study_id":"64370a36d30bfa807bc7e43c"},{"rt":null,"stimulus":"\n\t\t\t<div class=\"flip_card\">\n\t\t\t\t<div class=\"flip_card_inner\">\n\t\t\t\t\t<div class=\"flip_card_front\">\n\t\t\t\t\t\t<img src=img/11.png>\n\t\t\t\t\t</div>\n\t\t\t\t\t<div class=\"flip_card_back\">\n\t\t\t\t\t\t<h2>How many tones are in the Vietnamese language?</h2>\n\t\t\t\t\t\t<br>\n\t\t\t\t\t\t<p>Answer: <strong>6</strong></p>\n\t\t\t\t\t</div>\n\t\t\t\t</div>\n\t\t\t</div>\n\t\t\t","response":null,"trial_type":"html-keyboard-response","trial_index":24,"time_elapsed":180334,"internal_node_id":"0.0-3.0-2.4","prolific_id":"5dcca657854936945d68eaa9","session_id":"643c24ecc59b04c01138427b","study_id":"64370a36d30bfa807bc7e43c"},{"rt":3335,"stimulus":"\n\t\t\t\t\t<div>\n\t\t\t\t\t<h2>Trial 5 is over</h2>\n\t\t\t\t\t<p>Press <span style=\"color: red\"><strong>any key</strong></span> to continue to the next trial</p>\n\t\t\t\t\t</div>\n\t\t\t\t","response":" ","trial_type":"html-keyboard-response","trial_index":25,"time_elapsed":183670,"internal_node_id":"0.0-3.0-3.4","prolific_id":"5dcca657854936945d68eaa9","session_id":"643c24ecc59b04c01138427b","study_id":"64370a36d30bfa807bc7e43c"},{"rt":7396,"response":{"prediction":"13"},"trial_type":"survey-text","trial_index":26,"time_elapsed":191070,"internal_node_id":"0.0-3.0-0.5","prolific_id":"5dcca657854936945d68eaa9","session_id":"643c24ecc59b04c01138427b","study_id":"64370a36d30bfa807bc7e43c"},{"rt":4840,"response":{"prior knowledge":3,"curiosity":2},"accuracy":[],"trial_type":"survey","trial_index":27,"time_elapsed":195922,"internal_node_id":"0.0-3.0-1.5","prolific_id":"5dcca657854936945d68eaa9","session_id":"643c24ecc59b04c01138427b","study_id":"64370a36d30bfa807bc7e43c"},{"rt":null,"stimulus":"\n\t\t\t<div class=\"flip_card\">\n\t\t\t\t<div class=\"flip_card_inner\">\n\t\t\t\t\t<div class=\"flip_card_front\">\n\t\t\t\t\t\t<img src=img/19.png>\n\t\t\t\t\t</div>\n\t\t\t\t\t<div class=\"flip_card_back\">\n\t\t\t\t\t\t<h2>A bar mitzvah is traditionally celebrated when Jewish males turn what age?</h2>\n\t\t\t\t\t\t<br>\n\t\t\t\t\t\t<p>Answer: <strong>13</strong></p>\n\t\t\t\t\t</div>\n\t\t\t\t</div>\n\t\t\t</div>\n\t\t\t","response":null,"trial_type":"html-keyboard-response","trial_index":28,"time_elapsed":200923,"internal_node_id":"0.0-3.0-2.5","prolific_id":"5dcca657854936945d68eaa9","session_id":"643c24ecc59b04c01138427b","study_id":"64370a36d30bfa807bc7e43c"},{"rt":3650,"stimulus":"\n\t\t\t\t\t<div>\n\t\t\t\t\t<h2>Trial 6 is over</h2>\n\t\t\t\t\t<p>Press <span style=\"color: red\"><strong>any key</strong></span> to continue to the next trial</p>\n\t\t\t\t\t</div>\n\t\t\t\t","response":" ","trial_type":"html-keyboard-response","trial_index":29,"time_elapsed":204574,"internal_node_id":"0.0-3.0-3.5","prolific_id":"5dcca657854936945d68eaa9","session_id":"643c24ecc59b04c01138427b","study_id":"64370a36d30bfa807bc7e43c"},{"rt":8568,"response":{"prediction":"11"},"trial_type":"survey-text","trial_index":30,"time_elapsed":213144,"internal_node_id":"0.0-3.0-0.6","prolific_id":"5dcca657854936945d68eaa9","session_id":"643c24ecc59b04c01138427b","study_id":"64370a36d30bfa807bc7e43c"},{"rt":3849,"response":{"prior knowledge":3,"curiosity":2},"accuracy":[],"trial_type":"survey","trial_index":31,"time_elapsed":217007,"internal_node_id":"0.0-3.0-1.6","prolific_id":"5dcca657854936945d68eaa9","session_id":"643c24ecc59b04c01138427b","study_id":"64370a36d30bfa807bc7e43c"},{"rt":null,"stimulus":"\n\t\t\t<div class=\"flip_card\">\n\t\t\t\t<div class=\"flip_card_inner\">\n\t\t\t\t\t<div class=\"flip_card_front\">\n\t\t\t\t\t\t<img src=img/8.png>\n\t\t\t\t\t</div>\n\t\t\t\t\t<div class=\"flip_card_back\">\n\t\t\t\t\t\t<h2>How many lines are in a sonnet?</h2>\n\t\t\t\t\t\t<br>\n\t\t\t\t\t\t<p>Answer: <strong>14</strong></p>\n\t\t\t\t\t</div>\n\t\t\t\t</div>\n\t\t\t</div>\n\t\t\t","response":null,"trial_type":"html-keyboard-response","trial_index":32,"time_elapsed":222008,"internal_node_id":"0.0-3.0-2.6","prolific_id":"5dcca657854936945d68eaa9","session_id":"643c24ecc59b04c01138427b","study_id":"64370a36d30bfa807bc7e43c"},{"rt":1237,"stimulus":"\n\t\t\t\t\t<div>\n\t\t\t\t\t<h2>Trial 7 is over</h2>\n\t\t\t\t\t<p>Press <span style=\"color: red\"><strong>any key</strong></span> to continue to the next trial</p>\n\t\t\t\t\t</div>\n\t\t\t\t","response":" ","trial_type":"html-keyboard-response","trial_index":33,"time_elapsed":223246,"internal_node_id":"0.0-3.0-3.6","prolific_id":"5dcca657854936945d68eaa9","session_id":"643c24ecc59b04c01138427b","study_id":"64370a36d30bfa807bc7e43c"},{"rt":11165,"response":{"prediction":"32"},"trial_type":"survey-text","trial_index":34,"time_elapsed":234413,"internal_node_id":"0.0-3.0-0.7","prolific_id":"5dcca657854936945d68eaa9","session_id":"643c24ecc59b04c01138427b","study_id":"64370a36d30bfa807bc7e43c"},{"rt":4964,"response":{"prior knowledge":2,"curiosity":2},"accuracy":[],"trial_type":"survey","trial_index":35,"time_elapsed":239390,"internal_node_id":"0.0-3.0-1.7","prolific_id":"5dcca657854936945d68eaa9","session_id":"643c24ecc59b04c01138427b","study_id":"64370a36d30bfa807bc7e43c"},{"rt":null,"stimulus":"\n\t\t\t<div class=\"flip_card\">\n\t\t\t\t<div class=\"flip_card_inner\">\n\t\t\t\t\t<div class=\"flip_card_front\">\n\t\t\t\t\t\t<img src=img/27.png>\n\t\t\t\t\t</div>\n\t\t\t\t\t<div class=\"flip_card_back\">\n\t\t\t\t\t\t<h2>How many constellations are there?</h2>\n\t\t\t\t\t\t<br>\n\t\t\t\t\t\t<p>Answer: <strong>88</strong></p>\n\t\t\t\t\t</div>\n\t\t\t\t</div>\n\t\t\t</div>\n\t\t\t","response":null,"trial_type":"html-keyboard-response","trial_index":36,"time_elapsed":244392,"internal_node_id":"0.0-3.0-2.7","prolific_id":"5dcca657854936945d68eaa9","session_id":"643c24ecc59b04c01138427b","study_id":"64370a36d30bfa807bc7e43c"},{"rt":5188,"stimulus":"\n\t\t\t\t\t<div>\n\t\t\t\t\t<h2>Trial 8 is over</h2>\n\t\t\t\t\t<p>Press <span style=\"color: red\"><strong>any key</strong></span> to continue to the next trial</p>\n\t\t\t\t\t</div>\n\t\t\t\t","response":" ","trial_type":"html-keyboard-response","trial_index":37,"time_elapsed":249581,"internal_node_id":"0.0-3.0-3.7","prolific_id":"5dcca657854936945d68eaa9","session_id":"643c24ecc59b04c01138427b","study_id":"64370a36d30bfa807bc7e43c"},{"rt":4129,"response":{"prediction":"206"},"trial_type":"survey-text","trial_index":38,"time_elapsed":253711,"internal_node_id":"0.0-3.0-0.8","prolific_id":"5dcca657854936945d68eaa9","session_id":"643c24ecc59b04c01138427b","study_id":"64370a36d30bfa807bc7e43c"},{"rt":4221,"response":{"prior knowledge":4,"curiosity":3},"accuracy":[],"trial_type":"survey","trial_index":39,"time_elapsed":257943,"internal_node_id":"0.0-3.0-1.8","prolific_id":"5dcca657854936945d68eaa9","session_id":"643c24ecc59b04c01138427b","study_id":"64370a36d30bfa807bc7e43c"},{"rt":null,"stimulus":"\n\t\t\t<div class=\"flip_card\">\n\t\t\t\t<div class=\"flip_card_inner\">\n\t\t\t\t\t<div class=\"flip_card_front\">\n\t\t\t\t\t\t<img src=img/6.png>\n\t\t\t\t\t</div>\n\t\t\t\t\t<div class=\"flip_card_back\">\n\t\t\t\t\t\t<h2>How many bones is a human baby born with?</h2>\n\t\t\t\t\t\t<br>\n\t\t\t\t\t\t<p>Answer: <strong>300</strong></p>\n\t\t\t\t\t</div>\n\t\t\t\t</div>\n\t\t\t</div>\n\t\t\t","response":null,"trial_type":"html-keyboard-response","trial_index":40,"time_elapsed":262945,"internal_node_id":"0.0-3.0-2.8","prolific_id":"5dcca657854936945d68eaa9","session_id":"643c24ecc59b04c01138427b","study_id":"64370a36d30bfa807bc7e43c"},{"rt":1371,"stimulus":"\n\t\t\t\t\t<div>\n\t\t\t\t\t<h2>Trial 9 is over</h2>\n\t\t\t\t\t<p>Press <span style=\"color: red\"><strong>any key</strong></span> to continue to the next trial</p>\n\t\t\t\t\t</div>\n\t\t\t\t","response":" ","trial_type":"html-keyboard-response","trial_index":41,"time_elapsed":264317,"internal_node_id":"0.0-3.0-3.8","prolific_id":"5dcca657854936945d68eaa9","session_id":"643c24ecc59b04c01138427b","study_id":"64370a36d30bfa807bc7e43c"},{"rt":15411,"response":{"prediction":"4"},"trial_type":"survey-text","trial_index":42,"time_elapsed":279731,"internal_node_id":"0.0-3.0-0.9","prolific_id":"5dcca657854936945d68eaa9","session_id":"643c24ecc59b04c01138427b","study_id":"64370a36d30bfa807bc7e43c"},{"rt":4363,"response":{"prior knowledge":1,"curiosity":3},"accuracy":[],"trial_type":"survey","trial_index":43,"time_elapsed":284110,"internal_node_id":"0.0-3.0-1.9","prolific_id":"5dcca657854936945d68eaa9","session_id":"643c24ecc59b04c01138427b","study_id":"64370a36d30bfa807bc7e43c"},{"rt":null,"stimulus":"\n\t\t\t<div class=\"flip_card\">\n\t\t\t\t<div class=\"flip_card_inner\">\n\t\t\t\t\t<div class=\"flip_card_front\">\n\t\t\t\t\t\t<img src=img/17.png>\n\t\t\t\t\t</div>\n\t\t\t\t\t<div class=\"flip_card_back\">\n\t\t\t\t\t\t<h2>How many countries have territory in the Arctic Circle?</h2>\n\t\t\t\t\t\t<br>\n\t\t\t\t\t\t<p>Answer: <strong>8</strong></p>\n\t\t\t\t\t</div>\n\t\t\t\t</div>\n\t\t\t</div>\n\t\t\t","response":null,"trial_type":"html-keyboard-response","trial_index":44,"time_elapsed":289111,"internal_node_id":"0.0-3.0-2.9","prolific_id":"5dcca657854936945d68eaa9","session_id":"643c24ecc59b04c01138427b","study_id":"64370a36d30bfa807bc7e43c"},{"rt":1949,"stimulus":"\n\t\t\t\t\t<div>\n\t\t\t\t\t<h2>Trial 10 is over</h2>\n\t\t\t\t\t<p>Press <span style=\"color: red\"><strong>any key</strong></span> to continue to the next trial</p>\n\t\t\t\t\t</div>\n\t\t\t\t","response":" ","trial_type":"html-keyboard-response","trial_index":45,"time_elapsed":291061,"internal_node_id":"0.0-3.0-3.9","prolific_id":"5dcca657854936945d68eaa9","session_id":"643c24ecc59b04c01138427b","study_id":"64370a36d30bfa807bc7e43c"},{"rt":9131,"response":{"prediction":"11"},"trial_type":"survey-text","trial_index":46,"time_elapsed":300198,"internal_node_id":"0.0-3.0-0.10","prolific_id":"5dcca657854936945d68eaa9","session_id":"643c24ecc59b04c01138427b","study_id":"64370a36d30bfa807bc7e43c"},{"rt":3949,"response":{"prior knowledge":5,"curiosity":4},"accuracy":[],"trial_type":"survey","trial_index":47,"time_elapsed":304160,"internal_node_id":"0.0-3.0-1.10","prolific_id":"5dcca657854936945d68eaa9","session_id":"643c24ecc59b04c01138427b","study_id":"64370a36d30bfa807bc7e43c"},{"rt":null,"stimulus":"\n\t\t\t<div class=\"flip_card\">\n\t\t\t\t<div class=\"flip_card_inner\">\n\t\t\t\t\t<div class=\"flip_card_front\">\n\t\t\t\t\t\t<img src=img/15.png>\n\t\t\t\t\t</div>\n\t\t\t\t\t<div class=\"flip_card_back\">\n\t\t\t\t\t\t<h2>How many soccer players should each team have on the field at the start of each match?</h2>\n\t\t\t\t\t\t<br>\n\t\t\t\t\t\t<p>Answer: <strong>11</strong></p>\n\t\t\t\t\t</div>\n\t\t\t\t</div>\n\t\t\t</div>\n\t\t\t","response":null,"trial_type":"html-keyboard-response","trial_index":48,"time_elapsed":309161,"internal_node_id":"0.0-3.0-2.10","prolific_id":"5dcca657854936945d68eaa9","session_id":"643c24ecc59b04c01138427b","study_id":"64370a36d30bfa807bc7e43c"},{"rt":58960,"stimulus":"\n\t\t\t\t\t<div>\n\t\t\t\t\t<h2>Trial 11 is over</h2>\n\t\t\t\t\t<p>Press <span style=\"color: red\"><strong>any key</strong></span> to continue to the next trial</p>\n\t\t\t\t\t</div>\n\t\t\t\t","response":" ","trial_type":"html-keyboard-response","trial_index":49,"time_elapsed":368122,"internal_node_id":"0.0-3.0-3.10","prolific_id":"5dcca657854936945d68eaa9","session_id":"643c24ecc59b04c01138427b","study_id":"64370a36d30bfa807bc7e43c"},{"rt":7453,"response":{"prediction":"2"},"trial_type":"survey-text","trial_index":50,"time_elapsed":375581,"internal_node_id":"0.0-3.0-0.11","prolific_id":"5dcca657854936945d68eaa9","session_id":"643c24ecc59b04c01138427b","study_id":"64370a36d30bfa807bc7e43c"},{"rt":4916,"response":{"prior knowledge":1,"curiosity":2},"accuracy":[],"trial_type":"survey","trial_index":51,"time_elapsed":380508,"internal_node_id":"0.0-3.0-1.11","prolific_id":"5dcca657854936945d68eaa9","session_id":"643c24ecc59b04c01138427b","study_id":"64370a36d30bfa807bc7e43c"},{"rt":null,"stimulus":"\n\t\t\t<div class=\"flip_card\">\n\t\t\t\t<div class=\"flip_card_inner\">\n\t\t\t\t\t<div class=\"flip_card_front\">\n\t\t\t\t\t\t<img src=img/4.png>\n\t\t\t\t\t</div>\n\t\t\t\t\t<div class=\"flip_card_back\">\n\t\t\t\t\t\t<h2>How many people are vegan globally (in millions)?</h2>\n\t\t\t\t\t\t<br>\n\t\t\t\t\t\t<p>Answer: <strong>79</strong></p>\n\t\t\t\t\t</div>\n\t\t\t\t</div>\n\t\t\t</div>\n\t\t\t","response":null,"trial_type":"html-keyboard-response","trial_index":52,"time_elapsed":385511,"internal_node_id":"0.0-3.0-2.11","prolific_id":"5dcca657854936945d68eaa9","session_id":"643c24ecc59b04c01138427b","study_id":"64370a36d30bfa807bc7e43c"},{"rt":1178,"stimulus":"\n\t\t\t\t\t<div>\n\t\t\t\t\t<h2>Trial 12 is over</h2>\n\t\t\t\t\t<p>Press <span style=\"color: red\"><strong>any key</strong></span> to continue to the next trial</p>\n\t\t\t\t\t</div>\n\t\t\t\t","response":"enter","trial_type":"html-keyboard-response","trial_index":53,"time_elapsed":386690,"internal_node_id":"0.0-3.0-3.11","prolific_id":"5dcca657854936945d68eaa9","session_id":"643c24ecc59b04c01138427b","study_id":"64370a36d30bfa807bc7e43c"},{"rt":8720,"response":{"prediction":"1709"},"trial_type":"survey-text","trial_index":54,"time_elapsed":395412,"internal_node_id":"0.0-3.0-0.12","prolific_id":"5dcca657854936945d68eaa9","session_id":"643c24ecc59b04c01138427b","study_id":"64370a36d30bfa807bc7e43c"},{"rt":3716,"response":{"prior knowledge":0,"curiosity":1},"accuracy":[],"trial_type":"survey","trial_index":55,"time_elapsed":399142,"internal_node_id":"0.0-3.0-1.12","prolific_id":"5dcca657854936945d68eaa9","session_id":"643c24ecc59b04c01138427b","study_id":"64370a36d30bfa807bc7e43c"},{"rt":null,"stimulus":"\n\t\t\t<div class=\"flip_card\">\n\t\t\t\t<div class=\"flip_card_inner\">\n\t\t\t\t\t<div class=\"flip_card_front\">\n\t\t\t\t\t\t<img src=img/5.png>\n\t\t\t\t\t</div>\n\t\t\t\t\t<div class=\"flip_card_back\">\n\t\t\t\t\t\t<h2>In what year was the first Nobel Prize awarded?</h2>\n\t\t\t\t\t\t<br>\n\t\t\t\t\t\t<p>Answer: <strong>1901</strong></p>\n\t\t\t\t\t</div>\n\t\t\t\t</div>\n\t\t\t</div>\n\t\t\t","response":null,"trial_type":"html-keyboard-response","trial_index":56,"time_elapsed":404144,"internal_node_id":"0.0-3.0-2.12","prolific_id":"5dcca657854936945d68eaa9","session_id":"643c24ecc59b04c01138427b","study_id":"64370a36d30bfa807bc7e43c"},{"rt":998,"stimulus":"\n\t\t\t\t\t<div>\n\t\t\t\t\t<h2>Trial 13 is over</h2>\n\t\t\t\t\t<p>Press <span style=\"color: red\"><strong>any key</strong></span> to continue to the next trial</p>\n\t\t\t\t\t</div>\n\t\t\t\t","response":" ","trial_type":"html-keyboard-response","trial_index":57,"time_elapsed":405143,"internal_node_id":"0.0-3.0-3.12","prolific_id":"5dcca657854936945d68eaa9","session_id":"643c24ecc59b04c01138427b","study_id":"64370a36d30bfa807bc7e43c"},{"rt":10387,"response":{"prediction":"32"},"trial_type":"survey-text","trial_index":58,"time_elapsed":415535,"internal_node_id":"0.0-3.0-0.13","prolific_id":"5dcca657854936945d68eaa9","session_id":"643c24ecc59b04c01138427b","study_id":"64370a36d30bfa807bc7e43c"},{"rt":3818,"response":{"prior knowledge":0,"curiosity":1},"accuracy":[],"trial_type":"survey","trial_index":59,"time_elapsed":419366,"internal_node_id":"0.0-3.0-1.13","prolific_id":"5dcca657854936945d68eaa9","session_id":"643c24ecc59b04c01138427b","study_id":"64370a36d30bfa807bc7e43c"},{"rt":null,"stimulus":"\n\t\t\t<div class=\"flip_card\">\n\t\t\t\t<div class=\"flip_card_inner\">\n\t\t\t\t\t<div class=\"flip_card_front\">\n\t\t\t\t\t\t<img src=img/26.png>\n\t\t\t\t\t</div>\n\t\t\t\t\t<div class=\"flip_card_back\">\n\t\t\t\t\t\t<h2>How many double stitches does a baseball have?</h2>\n\t\t\t\t\t\t<br>\n\t\t\t\t\t\t<p>Answer: <strong>108</strong></p>\n\t\t\t\t\t</div>\n\t\t\t\t</div>\n\t\t\t</div>\n\t\t\t","response":null,"trial_type":"html-keyboard-response","trial_index":60,"time_elapsed":424367,"internal_node_id":"0.0-3.0-2.13","prolific_id":"5dcca657854936945d68eaa9","session_id":"643c24ecc59b04c01138427b","study_id":"64370a36d30bfa807bc7e43c"},{"rt":1173,"stimulus":"\n\t\t\t\t\t<div>\n\t\t\t\t\t<h2>Trial 14 is over</h2>\n\t\t\t\t\t<p>Press <span style=\"color: red\"><strong>any key</strong></span> to continue to the next trial</p>\n\t\t\t\t\t</div>\n\t\t\t\t","response":" ","trial_type":"html-keyboard-response","trial_index":61,"time_elapsed":425541,"internal_node_id":"0.0-3.0-3.13","prolific_id":"5dcca657854936945d68eaa9","session_id":"643c24ecc59b04c01138427b","study_id":"64370a36d30bfa807bc7e43c"},{"rt":8748,"response":{"prediction":"16"},"trial_type":"survey-text","trial_index":62,"time_elapsed":434291,"internal_node_id":"0.0-3.0-0.14","prolific_id":"5dcca657854936945d68eaa9","session_id":"643c24ecc59b04c01138427b","study_id":"64370a36d30bfa807bc7e43c"},{"rt":2936,"response":{"prior knowledge":1,"curiosity":3},"accuracy":[],"trial_type":"survey","trial_index":63,"time_elapsed":437242,"internal_node_id":"0.0-3.0-1.14","prolific_id":"5dcca657854936945d68eaa9","session_id":"643c24ecc59b04c01138427b","study_id":"64370a36d30bfa807bc7e43c"},{"rt":null,"stimulus":"\n\t\t\t<div class=\"flip_card\">\n\t\t\t\t<div class=\"flip_card_inner\">\n\t\t\t\t\t<div class=\"flip_card_front\">\n\t\t\t\t\t\t<img src=img/22.png>\n\t\t\t\t\t</div>\n\t\t\t\t\t<div class=\"flip_card_back\">\n\t\t\t\t\t\t<h2>How old was King Tut when he died?</h2>\n\t\t\t\t\t\t<br>\n\t\t\t\t\t\t<p>Answer: <strong>19</strong></p>\n\t\t\t\t\t</div>\n\t\t\t\t</div>\n\t\t\t</div>\n\t\t\t","response":null,"trial_type":"html-keyboard-response","trial_index":64,"time_elapsed":442244,"internal_node_id":"0.0-3.0-2.14","prolific_id":"5dcca657854936945d68eaa9","session_id":"643c24ecc59b04c01138427b","study_id":"64370a36d30bfa807bc7e43c"},{"rt":3304,"stimulus":"\n\t\t\t\t\t<div>\n\t\t\t\t\t<h2>Trial 15 is over</h2>\n\t\t\t\t\t<p>Press <span style=\"color: red\"><strong>any key</strong></span> to continue to the next trial</p>\n\t\t\t\t\t</div>\n\t\t\t\t","response":" ","trial_type":"html-keyboard-response","trial_index":65,"time_elapsed":445549,"internal_node_id":"0.0-3.0-3.14","prolific_id":"5dcca657854936945d68eaa9","session_id":"643c24ecc59b04c01138427b","study_id":"64370a36d30bfa807bc7e43c"},{"rt":5589,"response":{"prediction":"40"},"trial_type":"survey-text","trial_index":66,"time_elapsed":451140,"internal_node_id":"0.0-3.0-0.15","prolific_id":"5dcca657854936945d68eaa9","session_id":"643c24ecc59b04c01138427b","study_id":"64370a36d30bfa807bc7e43c"},{"rt":2644,"response":{"prior knowledge":1,"curiosity":2},"accuracy":[],"trial_type":"survey","trial_index":67,"time_elapsed":453802,"internal_node_id":"0.0-3.0-1.15","prolific_id":"5dcca657854936945d68eaa9","session_id":"643c24ecc59b04c01138427b","study_id":"64370a36d30bfa807bc7e43c"},{"rt":null,"stimulus":"\n\t\t\t<div class=\"flip_card\">\n\t\t\t\t<div class=\"flip_card_inner\">\n\t\t\t\t\t<div class=\"flip_card_front\">\n\t\t\t\t\t\t<img src=img/30.png>\n\t\t\t\t\t</div>\n\t\t\t\t\t<div class=\"flip_card_back\">\n\t\t\t\t\t\t<h2>How many books has Stephen King published?</h2>\n\t\t\t\t\t\t<br>\n\t\t\t\t\t\t<p>Answer: <strong>65</strong></p>\n\t\t\t\t\t</div>\n\t\t\t\t</div>\n\t\t\t</div>\n\t\t\t","response":null,"trial_type":"html-keyboard-response","trial_index":68,"time_elapsed":458804,"internal_node_id":"0.0-3.0-2.15","prolific_id":"5dcca657854936945d68eaa9","session_id":"643c24ecc59b04c01138427b","study_id":"64370a36d30bfa807bc7e43c"},{"rt":3981,"stimulus":"\n\t\t\t\t\t<div>\n\t\t\t\t\t<h2>Trial 16 is over</h2>\n\t\t\t\t\t<p>Press <span style=\"color: red\"><strong>any key</strong></span> to continue to the next trial</p>\n\t\t\t\t\t</div>\n\t\t\t\t","response":" ","trial_type":"html-keyboard-response","trial_index":69,"time_elapsed":462786,"internal_node_id":"0.0-3.0-3.15","prolific_id":"5dcca657854936945d68eaa9","session_id":"643c24ecc59b04c01138427b","study_id":"64370a36d30bfa807bc7e43c"},{"rt":2876,"response":{"prediction":"13"},"trial_type":"survey-text","trial_index":70,"time_elapsed":465666,"internal_node_id":"0.0-3.0-0.16","prolific_id":"5dcca657854936945d68eaa9","session_id":"643c24ecc59b04c01138427b","study_id":"64370a36d30bfa807bc7e43c"},{"rt":4589,"response":{"prior knowledge":5,"curiosity":5},"accuracy":[],"trial_type":"survey","trial_index":71,"time_elapsed":470268,"internal_node_id":"0.0-3.0-1.16","prolific_id":"5dcca657854936945d68eaa9","session_id":"643c24ecc59b04c01138427b","study_id":"64370a36d30bfa807bc7e43c"},{"rt":null,"stimulus":"\n\t\t\t<div class=\"flip_card\">\n\t\t\t\t<div class=\"flip_card_inner\">\n\t\t\t\t\t<div class=\"flip_card_front\">\n\t\t\t\t\t\t<img src=img/21.png>\n\t\t\t\t\t</div>\n\t\t\t\t\t<div class=\"flip_card_back\">\n\t\t\t\t\t\t<h2>How much is in a Baker's Dozen?</h2>\n\t\t\t\t\t\t<br>\n\t\t\t\t\t\t<p>Answer: <strong>13</strong></p>\n\t\t\t\t\t</div>\n\t\t\t\t</div>\n\t\t\t</div>\n\t\t\t","response":null,"trial_type":"html-keyboard-response","trial_index":72,"time_elapsed":475270,"internal_node_id":"0.0-3.0-2.16","prolific_id":"5dcca657854936945d68eaa9","session_id":"643c24ecc59b04c01138427b","study_id":"64370a36d30bfa807bc7e43c"},{"rt":2672,"stimulus":"\n\t\t\t\t\t<div>\n\t\t\t\t\t<h2>Trial 17 is over</h2>\n\t\t\t\t\t<p>Press <span style=\"color: red\"><strong>any key</strong></span> to continue to the next trial</p>\n\t\t\t\t\t</div>\n\t\t\t\t","response":" ","trial_type":"html-keyboard-response","trial_index":73,"time_elapsed":477943,"internal_node_id":"0.0-3.0-3.16","prolific_id":"5dcca657854936945d68eaa9","session_id":"643c24ecc59b04c01138427b","study_id":"64370a36d30bfa807bc7e43c"},{"rt":13826,"response":{"prediction":"1200"},"trial_type":"survey-text","trial_index":74,"time_elapsed":491770,"internal_node_id":"0.0-3.0-0.17","prolific_id":"5dcca657854936945d68eaa9","session_id":"643c24ecc59b04c01138427b","study_id":"64370a36d30bfa807bc7e43c"},{"rt":3052,"response":{"prior knowledge":1,"curiosity":4},"accuracy":[],"trial_type":"survey","trial_index":75,"time_elapsed":494834,"internal_node_id":"0.0-3.0-1.17","prolific_id":"5dcca657854936945d68eaa9","session_id":"643c24ecc59b04c01138427b","study_id":"64370a36d30bfa807bc7e43c"},{"rt":null,"stimulus":"\n\t\t\t<div class=\"flip_card\">\n\t\t\t\t<div class=\"flip_card_inner\">\n\t\t\t\t\t<div class=\"flip_card_front\">\n\t\t\t\t\t\t<img src=img/2.png>\n\t\t\t\t\t</div>\n\t\t\t\t\t<div class=\"flip_card_back\">\n\t\t\t\t\t\t<h2>How long is the Great Wall of China (in miles)?</h2>\n\t\t\t\t\t\t<br>\n\t\t\t\t\t\t<p>Answer: <strong>13171</strong></p>\n\t\t\t\t\t</div>\n\t\t\t\t</div>\n\t\t\t</div>\n\t\t\t","response":null,"trial_type":"html-keyboard-response","trial_index":76,"time_elapsed":499835,"internal_node_id":"0.0-3.0-2.17","prolific_id":"5dcca657854936945d68eaa9","session_id":"643c24ecc59b04c01138427b","study_id":"64370a36d30bfa807bc7e43c"},{"rt":30109,"stimulus":"\n\t\t\t\t\t<div>\n\t\t\t\t\t<h2>Trial 18 is over</h2>\n\t\t\t\t\t<p>Press <span style=\"color: red\"><strong>any key</strong></span> to continue to the next trial</p>\n\t\t\t\t\t</div>\n\t\t\t\t","response":" ","trial_type":"html-keyboard-response","trial_index":77,"time_elapsed":529946,"internal_node_id":"0.0-3.0-3.17","prolific_id":"5dcca657854936945d68eaa9","session_id":"643c24ecc59b04c01138427b","study_id":"64370a36d30bfa807bc7e43c"},{"rt":6057,"response":{"prediction":"5"},"trial_type":"survey-text","trial_index":78,"time_elapsed":536004,"internal_node_id":"0.0-3.0-0.18","prolific_id":"5dcca657854936945d68eaa9","session_id":"643c24ecc59b04c01138427b","study_id":"64370a36d30bfa807bc7e43c"},{"rt":2727,"response":{"prior knowledge":2,"curiosity":5},"accuracy":[],"trial_type":"survey","trial_index":79,"time_elapsed":538744,"internal_node_id":"0.0-3.0-1.18","prolific_id":"5dcca657854936945d68eaa9","session_id":"643c24ecc59b04c01138427b","study_id":"64370a36d30bfa807bc7e43c"},{"rt":null,"stimulus":"\n\t\t\t<div class=\"flip_card\">\n\t\t\t\t<div class=\"flip_card_inner\">\n\t\t\t\t\t<div class=\"flip_card_front\">\n\t\t\t\t\t\t<img src=img/9.png>\n\t\t\t\t\t</div>\n\t\t\t\t\t<div class=\"flip_card_back\">\n\t\t\t\t\t\t<h2>How many moons does Neptune have?</h2>\n\t\t\t\t\t\t<br>\n\t\t\t\t\t\t<p>Answer: <strong>14</strong></p>\n\t\t\t\t\t</div>\n\t\t\t\t</div>\n\t\t\t</div>\n\t\t\t","response":null,"trial_type":"html-keyboard-response","trial_index":80,"time_elapsed":543746,"internal_node_id":"0.0-3.0-2.18","prolific_id":"5dcca657854936945d68eaa9","session_id":"643c24ecc59b04c01138427b","study_id":"64370a36d30bfa807bc7e43c"},{"rt":1334,"stimulus":"\n\t\t\t\t\t<div>\n\t\t\t\t\t<h2>Trial 19 is over</h2>\n\t\t\t\t\t<p>Press <span style=\"color: red\"><strong>any key</strong></span> to continue to the next trial</p>\n\t\t\t\t\t</div>\n\t\t\t\t","response":" ","trial_type":"html-keyboard-response","trial_index":81,"time_elapsed":545080,"internal_node_id":"0.0-3.0-3.18","prolific_id":"5dcca657854936945d68eaa9","session_id":"643c24ecc59b04c01138427b","study_id":"64370a36d30bfa807bc7e43c"},{"rt":20668,"response":{"prediction":"42000"},"trial_type":"survey-text","trial_index":82,"time_elapsed":565750,"internal_node_id":"0.0-3.0-0.19","prolific_id":"5dcca657854936945d68eaa9","session_id":"643c24ecc59b04c01138427b","study_id":"64370a36d30bfa807bc7e43c"},{"rt":3386,"response":{"prior knowledge":1,"curiosity":4},"accuracy":[],"trial_type":"survey","trial_index":83,"time_elapsed":569153,"internal_node_id":"0.0-3.0-1.19","prolific_id":"5dcca657854936945d68eaa9","session_id":"643c24ecc59b04c01138427b","study_id":"64370a36d30bfa807bc7e43c"},{"rt":null,"stimulus":"\n\t\t\t<div class=\"flip_card\">\n\t\t\t\t<div class=\"flip_card_inner\">\n\t\t\t\t\t<div class=\"flip_card_front\">\n\t\t\t\t\t\t<img src=img/20.png>\n\t\t\t\t\t</div>\n\t\t\t\t\t<div class=\"flip_card_back\">\n\t\t\t\t\t\t<h2>What is the diameter of Earth in miles?</h2>\n\t\t\t\t\t\t<br>\n\t\t\t\t\t\t<p>Answer: <strong>7917.5</strong></p>\n\t\t\t\t\t</div>\n\t\t\t\t</div>\n\t\t\t</div>\n\t\t\t","response":null,"trial_type":"html-keyboard-response","trial_index":84,"time_elapsed":574155,"internal_node_id":"0.0-3.0-2.19","prolific_id":"5dcca657854936945d68eaa9","session_id":"643c24ecc59b04c01138427b","study_id":"64370a36d30bfa807bc7e43c"},{"rt":3874,"stimulus":"\n\t\t\t\t\t<div>\n\t\t\t\t\t<h2>Trial 20 is over</h2>\n\t\t\t\t\t<p>Press <span style=\"color: red\"><strong>any key</strong></span> to continue to the next trial</p>\n\t\t\t\t\t</div>\n\t\t\t\t","response":" ","trial_type":"html-keyboard-response","trial_index":85,"time_elapsed":578030,"internal_node_id":"0.0-3.0-3.19","prolific_id":"5dcca657854936945d68eaa9","session_id":"643c24ecc59b04c01138427b","study_id":"64370a36d30bfa807bc7e43c"},{"rt":6600,"response":{"prediction":"4"},"trial_type":"survey-text","trial_index":86,"time_elapsed":584634,"internal_node_id":"0.0-3.0-0.20","prolific_id":"5dcca657854936945d68eaa9","session_id":"643c24ecc59b04c01138427b","study_id":"64370a36d30bfa807bc7e43c"},{"rt":3150,"response":{"prior knowledge":0,"curiosity":4},"accuracy":[],"trial_type":"survey","trial_index":87,"time_elapsed":587798,"internal_node_id":"0.0-3.0-1.20","prolific_id":"5dcca657854936945d68eaa9","session_id":"643c24ecc59b04c01138427b","study_id":"64370a36d30bfa807bc7e43c"},{"rt":null,"stimulus":"\n\t\t\t<div class=\"flip_card\">\n\t\t\t\t<div class=\"flip_card_inner\">\n\t\t\t\t\t<div class=\"flip_card_front\">\n\t\t\t\t\t\t<img src=img/3.png>\n\t\t\t\t\t</div>\n\t\t\t\t\t<div class=\"flip_card_back\">\n\t\t\t\t\t\t<h2>How many native species of kangaroos are found in Australia?</h2>\n\t\t\t\t\t\t<br>\n\t\t\t\t\t\t<p>Answer: <strong>4</strong></p>\n\t\t\t\t\t</div>\n\t\t\t\t</div>\n\t\t\t</div>\n\t\t\t","response":null,"trial_type":"html-keyboard-response","trial_index":88,"time_elapsed":592799,"internal_node_id":"0.0-3.0-2.20","prolific_id":"5dcca657854936945d68eaa9","session_id":"643c24ecc59b04c01138427b","study_id":"64370a36d30bfa807bc7e43c"},{"rt":874,"stimulus":"\n\t\t\t\t\t<div>\n\t\t\t\t\t<h2>Trial 21 is over</h2>\n\t\t\t\t\t<p>Press <span style=\"color: red\"><strong>any key</strong></span> to continue to the next trial</p>\n\t\t\t\t\t</div>\n\t\t\t\t","response":" ","trial_type":"html-keyboard-response","trial_index":89,"time_elapsed":593674,"internal_node_id":"0.0-3.0-3.20","prolific_id":"5dcca657854936945d68eaa9","session_id":"643c24ecc59b04c01138427b","study_id":"64370a36d30bfa807bc7e43c"},{"rt":30572,"response":{"prediction":"1932"},"trial_type":"survey-text","trial_index":90,"time_elapsed":624248,"internal_node_id":"0.0-3.0-0.21","prolific_id":"5dcca657854936945d68eaa9","session_id":"643c24ecc59b04c01138427b","study_id":"64370a36d30bfa807bc7e43c"},{"rt":3373,"response":{"prior knowledge":1,"curiosity":4},"accuracy":[],"trial_type":"survey","trial_index":91,"time_elapsed":627637,"internal_node_id":"0.0-3.0-1.21","prolific_id":"5dcca657854936945d68eaa9","session_id":"643c24ecc59b04c01138427b","study_id":"64370a36d30bfa807bc7e43c"},{"rt":null,"stimulus":"\n\t\t\t<div class=\"flip_card\">\n\t\t\t\t<div class=\"flip_card_inner\">\n\t\t\t\t\t<div class=\"flip_card_front\">\n\t\t\t\t\t\t<img src=img/18.png>\n\t\t\t\t\t</div>\n\t\t\t\t\t<div class=\"flip_card_back\">\n\t\t\t\t\t\t<h2>What year did the titanic sink?</h2>\n\t\t\t\t\t\t<br>\n\t\t\t\t\t\t<p>Answer: <strong>1912</strong></p>\n\t\t\t\t\t</div>\n\t\t\t\t</div>\n\t\t\t</div>\n\t\t\t","response":null,"trial_type":"html-keyboard-response","trial_index":92,"time_elapsed":632641,"internal_node_id":"0.0-3.0-2.21","prolific_id":"5dcca657854936945d68eaa9","session_id":"643c24ecc59b04c01138427b","study_id":"64370a36d30bfa807bc7e43c"},{"rt":7039,"stimulus":"\n\t\t\t\t\t<div>\n\t\t\t\t\t<h2>Trial 22 is over</h2>\n\t\t\t\t\t<p>Press <span style=\"color: red\"><strong>any key</strong></span> to continue to the next trial</p>\n\t\t\t\t\t</div>\n\t\t\t\t","response":" ","trial_type":"html-keyboard-response","trial_index":93,"time_elapsed":639681,"internal_node_id":"0.0-3.0-3.21","prolific_id":"5dcca657854936945d68eaa9","session_id":"643c24ecc59b04c01138427b","study_id":"64370a36d30bfa807bc7e43c"},{"rt":6916,"response":{"prediction":"1990"},"trial_type":"survey-text","trial_index":94,"time_elapsed":646600,"internal_node_id":"0.0-3.0-0.22","prolific_id":"5dcca657854936945d68eaa9","session_id":"643c24ecc59b04c01138427b","study_id":"64370a36d30bfa807bc7e43c"},{"rt":3517,"response":{"prior knowledge":4,"curiosity":5},"accuracy":[],"trial_type":"survey","trial_index":95,"time_elapsed":650128,"internal_node_id":"0.0-3.0-1.22","prolific_id":"5dcca657854936945d68eaa9","session_id":"643c24ecc59b04c01138427b","study_id":"64370a36d30bfa807bc7e43c"},{"rt":null,"stimulus":"\n\t\t\t<div class=\"flip_card\">\n\t\t\t\t<div class=\"flip_card_inner\">\n\t\t\t\t\t<div class=\"flip_card_front\">\n\t\t\t\t\t\t<img src=img/24.png>\n\t\t\t\t\t</div>\n\t\t\t\t\t<div class=\"flip_card_back\">\n\t\t\t\t\t\t<h2>What year did the Berlin Wall fall?</h2>\n\t\t\t\t\t\t<br>\n\t\t\t\t\t\t<p>Answer: <strong>1989</strong></p>\n\t\t\t\t\t</div>\n\t\t\t\t</div>\n\t\t\t</div>\n\t\t\t","response":null,"trial_type":"html-keyboard-response","trial_index":96,"time_elapsed":655131,"internal_node_id":"0.0-3.0-2.22","prolific_id":"5dcca657854936945d68eaa9","session_id":"643c24ecc59b04c01138427b","study_id":"64370a36d30bfa807bc7e43c"},{"rt":1054,"stimulus":"\n\t\t\t\t\t<div>\n\t\t\t\t\t<h2>Trial 23 is over</h2>\n\t\t\t\t\t<p>Press <span style=\"color: red\"><strong>any key</strong></span> to continue to the next trial</p>\n\t\t\t\t\t</div>\n\t\t\t\t","response":" ","trial_type":"html-keyboard-response","trial_index":97,"time_elapsed":656185,"internal_node_id":"0.0-3.0-3.22","prolific_id":"5dcca657854936945d68eaa9","session_id":"643c24ecc59b04c01138427b","study_id":"64370a36d30bfa807bc7e43c"},{"rt":10269,"response":{"prediction":"42"},"trial_type":"survey-text","trial_index":98,"time_elapsed":666456,"internal_node_id":"0.0-3.0-0.23","prolific_id":"5dcca657854936945d68eaa9","session_id":"643c24ecc59b04c01138427b","study_id":"64370a36d30bfa807bc7e43c"},{"rt":3025,"response":{"prior knowledge":1,"curiosity":4},"accuracy":[],"trial_type":"survey","trial_index":99,"time_elapsed":669497,"internal_node_id":"0.0-3.0-1.23","prolific_id":"5dcca657854936945d68eaa9","session_id":"643c24ecc59b04c01138427b","study_id":"64370a36d30bfa807bc7e43c"},{"rt":null,"stimulus":"\n\t\t\t<div class=\"flip_card\">\n\t\t\t\t<div class=\"flip_card_inner\">\n\t\t\t\t\t<div class=\"flip_card_front\">\n\t\t\t\t\t\t<img src=img/13.png>\n\t\t\t\t\t</div>\n\t\t\t\t\t<div class=\"flip_card_back\">\n\t\t\t\t\t\t<h2>How many countries are in Africa?</h2>\n\t\t\t\t\t\t<br>\n\t\t\t\t\t\t<p>Answer: <strong>54</strong></p>\n\t\t\t\t\t</div>\n\t\t\t\t</div>\n\t\t\t</div>\n\t\t\t","response":null,"trial_type":"html-keyboard-response","trial_index":100,"time_elapsed":674500,"internal_node_id":"0.0-3.0-2.23","prolific_id":"5dcca657854936945d68eaa9","session_id":"643c24ecc59b04c01138427b","study_id":"64370a36d30bfa807bc7e43c"},{"rt":1114,"stimulus":"\n\t\t\t\t\t<div>\n\t\t\t\t\t<h2>Trial 24 is over</h2>\n\t\t\t\t\t<p>Press <span style=\"color: red\"><strong>any key</strong></span> to continue to the next trial</p>\n\t\t\t\t\t</div>\n\t\t\t\t","response":" ","trial_type":"html-keyboard-response","trial_index":101,"time_elapsed":675616,"internal_node_id":"0.0-3.0-3.23","prolific_id":"5dcca657854936945d68eaa9","session_id":"643c24ecc59b04c01138427b","study_id":"64370a36d30bfa807bc7e43c"},{"rt":23852,"response":{"prediction":"1902"},"trial_type":"survey-text","trial_index":102,"time_elapsed":699470,"internal_node_id":"0.0-3.0-0.24","prolific_id":"5dcca657854936945d68eaa9","session_id":"643c24ecc59b04c01138427b","study_id":"64370a36d30bfa807bc7e43c"},{"rt":4828,"response":{"prior knowledge":0,"curiosity":4},"accuracy":[],"trial_type":"survey","trial_index":103,"time_elapsed":704311,"internal_node_id":"0.0-3.0-1.24","prolific_id":"5dcca657854936945d68eaa9","session_id":"643c24ecc59b04c01138427b","study_id":"64370a36d30bfa807bc7e43c"},{"rt":null,"stimulus":"\n\t\t\t<div class=\"flip_card\">\n\t\t\t\t<div class=\"flip_card_inner\">\n\t\t\t\t\t<div class=\"flip_card_front\">\n\t\t\t\t\t\t<img src=img/12.png>\n\t\t\t\t\t</div>\n\t\t\t\t\t<div class=\"flip_card_back\">\n\t\t\t\t\t\t<h2>In what year did the first Modern Olympic Games take place?</h2>\n\t\t\t\t\t\t<br>\n\t\t\t\t\t\t<p>Answer: <strong>1896</strong></p>\n\t\t\t\t\t</div>\n\t\t\t\t</div>\n\t\t\t</div>\n\t\t\t","response":null,"trial_type":"html-keyboard-response","trial_index":104,"time_elapsed":709315,"internal_node_id":"0.0-3.0-2.24","prolific_id":"5dcca657854936945d68eaa9","session_id":"643c24ecc59b04c01138427b","study_id":"64370a36d30bfa807bc7e43c"},{"rt":4426,"stimulus":"\n\t\t\t\t\t<div>\n\t\t\t\t\t<h2>Trial 25 is over</h2>\n\t\t\t\t\t<p>Press <span style=\"color: red\"><strong>any key</strong></span> to continue to the next trial</p>\n\t\t\t\t\t</div>\n\t\t\t\t","response":" ","trial_type":"html-keyboard-response","trial_index":105,"time_elapsed":713742,"internal_node_id":"0.0-3.0-3.24","prolific_id":"5dcca657854936945d68eaa9","session_id":"643c24ecc59b04c01138427b","study_id":"64370a36d30bfa807bc7e43c"},{"rt":4823,"response":{"prediction":"5"},"trial_type":"survey-text","trial_index":106,"time_elapsed":718566,"internal_node_id":"0.0-3.0-0.25","prolific_id":"5dcca657854936945d68eaa9","session_id":"643c24ecc59b04c01138427b","study_id":"64370a36d30bfa807bc7e43c"},{"rt":3377,"response":{"prior knowledge":2,"curiosity":1},"accuracy":[],"trial_type":"survey","trial_index":107,"time_elapsed":721955,"internal_node_id":"0.0-3.0-1.25","prolific_id":"5dcca657854936945d68eaa9","session_id":"643c24ecc59b04c01138427b","study_id":"64370a36d30bfa807bc7e43c"},{"rt":null,"stimulus":"\n\t\t\t<div class=\"flip_card\">\n\t\t\t\t<div class=\"flip_card_inner\">\n\t\t\t\t\t<div class=\"flip_card_front\">\n\t\t\t\t\t\t<img src=img/23.png>\n\t\t\t\t\t</div>\n\t\t\t\t\t<div class=\"flip_card_back\">\n\t\t\t\t\t\t<h2>How many times a day do Muslims pray?</h2>\n\t\t\t\t\t\t<br>\n\t\t\t\t\t\t<p>Answer: <strong>5</strong></p>\n\t\t\t\t\t</div>\n\t\t\t\t</div>\n\t\t\t</div>\n\t\t\t","response":null,"trial_type":"html-keyboard-response","trial_index":108,"time_elapsed":726961,"internal_node_id":"0.0-3.0-2.25","prolific_id":"5dcca657854936945d68eaa9","session_id":"643c24ecc59b04c01138427b","study_id":"64370a36d30bfa807bc7e43c"},{"rt":1535,"stimulus":"\n\t\t\t\t\t<div>\n\t\t\t\t\t<h2>Trial 26 is over</h2>\n\t\t\t\t\t<p>Press <span style=\"color: red\"><strong>any key</strong></span> to continue to the next trial</p>\n\t\t\t\t\t</div>\n\t\t\t\t","response":"enter","trial_type":"html-keyboard-response","trial_index":109,"time_elapsed":728497,"internal_node_id":"0.0-3.0-3.25","prolific_id":"5dcca657854936945d68eaa9","session_id":"643c24ecc59b04c01138427b","study_id":"64370a36d30bfa807bc7e43c"},{"rt":13482,"response":{"prediction":"35"},"trial_type":"survey-text","trial_index":110,"time_elapsed":741980,"internal_node_id":"0.0-3.0-0.26","prolific_id":"5dcca657854936945d68eaa9","session_id":"643c24ecc59b04c01138427b","study_id":"64370a36d30bfa807bc7e43c"},{"rt":3203,"response":{"prior knowledge":2,"curiosity":0},"accuracy":[],"trial_type":"survey","trial_index":111,"time_elapsed":745198,"internal_node_id":"0.0-3.0-1.26","prolific_id":"5dcca657854936945d68eaa9","session_id":"643c24ecc59b04c01138427b","study_id":"64370a36d30bfa807bc7e43c"},{"rt":null,"stimulus":"\n\t\t\t<div class=\"flip_card\">\n\t\t\t\t<div class=\"flip_card_inner\">\n\t\t\t\t\t<div class=\"flip_card_front\">\n\t\t\t\t\t\t<img src=img/14.png>\n\t\t\t\t\t</div>\n\t\t\t\t\t<div class=\"flip_card_back\">\n\t\t\t\t\t\t<h2>How many books are in the Catholic Bible?</h2>\n\t\t\t\t\t\t<br>\n\t\t\t\t\t\t<p>Answer: <strong>73</strong></p>\n\t\t\t\t\t</div>\n\t\t\t\t</div>\n\t\t\t</div>\n\t\t\t","response":null,"trial_type":"html-keyboard-response","trial_index":112,"time_elapsed":750199,"internal_node_id":"0.0-3.0-2.26","prolific_id":"5dcca657854936945d68eaa9","session_id":"643c24ecc59b04c01138427b","study_id":"64370a36d30bfa807bc7e43c"},{"rt":1229,"stimulus":"\n\t\t\t\t\t<div>\n\t\t\t\t\t<h2>Trial 27 is over</h2>\n\t\t\t\t\t<p>Press <span style=\"color: red\"><strong>any key</strong></span> to continue to the next trial</p>\n\t\t\t\t\t</div>\n\t\t\t\t","response":" ","trial_type":"html-keyboard-response","trial_index":113,"time_elapsed":751428,"internal_node_id":"0.0-3.0-3.26","prolific_id":"5dcca657854936945d68eaa9","session_id":"643c24ecc59b04c01138427b","study_id":"64370a36d30bfa807bc7e43c"},{"rt":5335,"response":{"prediction":"2007"},"trial_type":"survey-text","trial_index":114,"time_elapsed":756767,"internal_node_id":"0.0-3.0-0.27","prolific_id":"5dcca657854936945d68eaa9","session_id":"643c24ecc59b04c01138427b","study_id":"64370a36d30bfa807bc7e43c"},{"rt":2858,"response":{"prior knowledge":5,"curiosity":5},"accuracy":[],"trial_type":"survey","trial_index":115,"time_elapsed":759637,"internal_node_id":"0.0-3.0-1.27","prolific_id":"5dcca657854936945d68eaa9","session_id":"643c24ecc59b04c01138427b","study_id":"64370a36d30bfa807bc7e43c"},{"rt":null,"stimulus":"\n\t\t\t<div class=\"flip_card\">\n\t\t\t\t<div class=\"flip_card_inner\">\n\t\t\t\t\t<div class=\"flip_card_front\">\n\t\t\t\t\t\t<img src=img/10.png>\n\t\t\t\t\t</div>\n\t\t\t\t\t<div class=\"flip_card_back\">\n\t\t\t\t\t\t<h2>What year was the very first model of the iPhone released?</h2>\n\t\t\t\t\t\t<br>\n\t\t\t\t\t\t<p>Answer: <strong>2007</strong></p>\n\t\t\t\t\t</div>\n\t\t\t\t</div>\n\t\t\t</div>\n\t\t\t","response":null,"trial_type":"html-keyboard-response","trial_index":116,"time_elapsed":764639,"internal_node_id":"0.0-3.0-2.27","prolific_id":"5dcca657854936945d68eaa9","session_id":"643c24ecc59b04c01138427b","study_id":"64370a36d30bfa807bc7e43c"},{"rt":1198,"stimulus":"\n\t\t\t\t\t<div>\n\t\t\t\t\t<h2>Trial 28 is over</h2>\n\t\t\t\t\t<p>Press <span style=\"color: red\"><strong>any key</strong></span> to continue to the next trial</p>\n\t\t\t\t\t</div>\n\t\t\t\t","response":"enter","trial_type":"html-keyboard-response","trial_index":117,"time_elapsed":765838,"internal_node_id":"0.0-3.0-3.27","prolific_id":"5dcca657854936945d68eaa9","session_id":"643c24ecc59b04c01138427b","study_id":"64370a36d30bfa807bc7e43c"},{"rt":9249,"response":{"prediction":"6"},"trial_type":"survey-text","trial_index":118,"time_elapsed":775089,"internal_node_id":"0.0-3.0-0.28","prolific_id":"5dcca657854936945d68eaa9","session_id":"643c24ecc59b04c01138427b","study_id":"64370a36d30bfa807bc7e43c"},{"rt":3257,"response":{"prior knowledge":1,"curiosity":3},"accuracy":[],"trial_type":"survey","trial_index":119,"time_elapsed":778362,"internal_node_id":"0.0-3.0-1.28","prolific_id":"5dcca657854936945d68eaa9","session_id":"643c24ecc59b04c01138427b","study_id":"64370a36d30bfa807bc7e43c"},{"rt":null,"stimulus":"\n\t\t\t<div class=\"flip_card\">\n\t\t\t\t<div class=\"flip_card_inner\">\n\t\t\t\t\t<div class=\"flip_card_front\">\n\t\t\t\t\t\t<img src=img/1.png>\n\t\t\t\t\t</div>\n\t\t\t\t\t<div class=\"flip_card_back\">\n\t\t\t\t\t\t<h2>How many main islands make up Japan?</h2>\n\t\t\t\t\t\t<br>\n\t\t\t\t\t\t<p>Answer: <strong>4</strong></p>\n\t\t\t\t\t</div>\n\t\t\t\t</div>\n\t\t\t</div>\n\t\t\t","response":null,"trial_type":"html-keyboard-response","trial_index":120,"time_elapsed":783363,"internal_node_id":"0.0-3.0-2.28","prolific_id":"5dcca657854936945d68eaa9","session_id":"643c24ecc59b04c01138427b","study_id":"64370a36d30bfa807bc7e43c"},{"rt":1090,"stimulus":"\n\t\t\t\t\t<div>\n\t\t\t\t\t<h2>Trial 29 is over</h2>\n\t\t\t\t\t<p>Press <span style=\"color: red\"><strong>any key</strong></span> to continue to the next trial</p>\n\t\t\t\t\t</div>\n\t\t\t\t","response":" ","trial_type":"html-keyboard-response","trial_index":121,"time_elapsed":784454,"internal_node_id":"0.0-3.0-3.28","prolific_id":"5dcca657854936945d68eaa9","session_id":"643c24ecc59b04c01138427b","study_id":"64370a36d30bfa807bc7e43c"},{"rt":12238,"response":{"prediction":"12"},"trial_type":"survey-text","trial_index":122,"time_elapsed":796697,"internal_node_id":"0.0-3.0-0.29","prolific_id":"5dcca657854936945d68eaa9","session_id":"643c24ecc59b04c01138427b","study_id":"64370a36d30bfa807bc7e43c"},{"rt":4730,"response":{"prior knowledge":2,"curiosity":4},"accuracy":[],"trial_type":"survey","trial_index":123,"time_elapsed":801441,"internal_node_id":"0.0-3.0-1.29","prolific_id":"5dcca657854936945d68eaa9","session_id":"643c24ecc59b04c01138427b","study_id":"64370a36d30bfa807bc7e43c"},{"rt":null,"stimulus":"\n\t\t\t<div class=\"flip_card\">\n\t\t\t\t<div class=\"flip_card_inner\">\n\t\t\t\t\t<div class=\"flip_card_front\">\n\t\t\t\t\t\t<img src=img/16.png>\n\t\t\t\t\t</div>\n\t\t\t\t\t<div class=\"flip_card_back\">\n\t\t\t\t\t\t<h2>How many different animals (real or imaginary) are represented in the Chinese calendar?</h2>\n\t\t\t\t\t\t<br>\n\t\t\t\t\t\t<p>Answer: <strong>12</strong></p>\n\t\t\t\t\t</div>\n\t\t\t\t</div>\n\t\t\t</div>\n\t\t\t","response":null,"trial_type":"html-keyboard-response","trial_index":124,"time_elapsed":806443,"internal_node_id":"0.0-3.0-2.29","prolific_id":"5dcca657854936945d68eaa9","session_id":"643c24ecc59b04c01138427b","study_id":"64370a36d30bfa807bc7e43c"},{"rt":1525,"stimulus":"\n\t\t\t\t\t<div>\n\t\t\t\t\t<h2>Trial 30 is over</h2>\n\t\t\t\t\t<p>Press <span style=\"color: red\"><strong>any key</strong></span> to continue to the next trial</p>\n\t\t\t\t\t</div>\n\t\t\t\t","response":" ","trial_type":"html-keyboard-response","trial_index":125,"time_elapsed":807968,"internal_node_id":"0.0-3.0-3.29","prolific_id":"5dcca657854936945d68eaa9","session_id":"643c24ecc59b04c01138427b","study_id":"64370a36d30bfa807bc7e43c"},{"rt":null,"stimulus":"\n\t\t\t<h2>Good job! You've finished the 30 trials:p</h2>\n\t\t\t<p>In the next session, you will see two cards on the screen in each trial.</p>\n\t\t\t<p>On one card is a pattern that you have seen before in the experiment,\n\t\t\t\tand on the other card is one you have not seen.</p><br>\n\t\t\t<p>Your task is to choose the one you think you <em>have</em> seen before for every trial.</p>\n\t\t\t<p>Press '<span style=\"color: red;\"><strong>F</strong></span>' to choose the card on the left,\n\t\t\t\tand '<span style=\"color: red;\"><strong>J</strong></span>' to choose the card on the right.</p>\n\t\t\t<p>Have fun!</p>\n\t\t\t<br>\n\t\t\t<p>The trials will begin in 30 seconds</p>\n\t\t\t","response":null,"trial_type":"html-keyboard-response","trial_index":126,"time_elapsed":837972,"internal_node_id":"0.0-4.0","prolific_id":"5dcca657854936945d68eaa9","session_id":"643c24ecc59b04c01138427b","study_id":"64370a36d30bfa807bc7e43c"},{"rt":1709,"stimulus":"\n\t\t\t\t\t\t<div class=\"two_card_container\">\n\t\t\t\t\t\t<div class=\"card_container\">\n\t\t\t\t\t\t<img src=img/40.png>\n\t\t\t\t\t\t</div>\n\n\t\t\t\t\t\t<div class=\"card_container\">\n\t\t\t\t\t\t<img src=img/8.png>\n\t\t\t\t\t\t</div>","response":"f","task":"response","correct_response":"j","trial_type":"html-keyboard-response","trial_index":127,"time_elapsed":839683,"internal_node_id":"0.0-5.0-0.0","prolific_id":"5dcca657854936945d68eaa9","session_id":"643c24ecc59b04c01138427b","study_id":"64370a36d30bfa807bc7e43c","correct":false},{"rt":null,"stimulus":"\n\t\t\t\t\t<p>Wrong answer</p>\n\t\t\t\t\t","response":null,"trial_type":"html-keyboard-response","trial_index":128,"time_elapsed":840685,"internal_node_id":"0.0-5.0-1.0","prolific_id":"5dcca657854936945d68eaa9","session_id":"643c24ecc59b04c01138427b","study_id":"64370a36d30bfa807bc7e43c"},{"rt":1932,"stimulus":"\n\t\t\t\t\t\t<div class=\"two_card_container\">\n\t\t\t\t\t\t<div class=\"card_container\">\n\t\t\t\t\t\t<img src=img/17.png>\n\t\t\t\t\t\t</div>\n\n\t\t\t\t\t\t<div class=\"card_container\">\n\t\t\t\t\t\t<img src=img/39.png>\n\t\t\t\t\t\t</div>","response":"f","task":"response","correct_response":"f","trial_type":"html-keyboard-response","trial_index":129,"time_elapsed":842619,"internal_node_id":"0.0-5.0-0.1","prolific_id":"5dcca657854936945d68eaa9","session_id":"643c24ecc59b04c01138427b","study_id":"64370a36d30bfa807bc7e43c","correct":true},{"rt":null,"stimulus":"\n\t\t\t\t\t<p>Correct!</p>\n\t\t\t\t\t","response":null,"trial_type":"html-keyboard-response","trial_index":130,"time_elapsed":843620,"internal_node_id":"0.0-5.0-1.1","prolific_id":"5dcca657854936945d68eaa9","session_id":"643c24ecc59b04c01138427b","study_id":"64370a36d30bfa807bc7e43c"},{"rt":1592,"stimulus":"\n\t\t\t\t\t\t<div class=\"two_card_container\">\n\t\t\t\t\t\t<div class=\"card_container\">\n\t\t\t\t\t\t<img src=img/37.png>\n\t\t\t\t\t\t</div>\n\n\t\t\t\t\t\t<div class=\"card_container\">\n\t\t\t\t\t\t<img src=img/19.png>\n\t\t\t\t\t\t</div>","response":"f","task":"response","correct_response":"j","trial_type":"html-keyboard-response","trial_index":131,"time_elapsed":845214,"internal_node_id":"0.0-5.0-0.2","prolific_id":"5dcca657854936945d68eaa9","session_id":"643c24ecc59b04c01138427b","study_id":"64370a36d30bfa807bc7e43c","correct":false},{"rt":null,"stimulus":"\n\t\t\t\t\t<p>Wrong answer</p>\n\t\t\t\t\t","response":null,"trial_type":"html-keyboard-response","trial_index":132,"time_elapsed":846216,"internal_node_id":"0.0-5.0-1.2","prolific_id":"5dcca657854936945d68eaa9","session_id":"643c24ecc59b04c01138427b","study_id":"64370a36d30bfa807bc7e43c"},{"rt":902,"stimulus":"\n\t\t\t\t\t\t<div class=\"two_card_container\">\n\t\t\t\t\t\t<div class=\"card_container\">\n\t\t\t\t\t\t<img src=img/34.png>\n\t\t\t\t\t\t</div>\n\n\t\t\t\t\t\t<div class=\"card_container\">\n\t\t\t\t\t\t<img src=img/27.png>\n\t\t\t\t\t\t</div>","response":"j","task":"response","correct_response":"j","trial_type":"html-keyboard-response","trial_index":133,"time_elapsed":847120,"internal_node_id":"0.0-5.0-0.3","prolific_id":"5dcca657854936945d68eaa9","session_id":"643c24ecc59b04c01138427b","study_id":"64370a36d30bfa807bc7e43c","correct":true},{"rt":null,"stimulus":"\n\t\t\t\t\t<p>Correct!</p>\n\t\t\t\t\t","response":null,"trial_type":"html-keyboard-response","trial_index":134,"time_elapsed":848122,"internal_node_id":"0.0-5.0-1.3","prolific_id":"5dcca657854936945d68eaa9","session_id":"643c24ecc59b04c01138427b","study_id":"64370a36d30bfa807bc7e43c"},{"rt":1043,"stimulus":"\n\t\t\t\t\t\t<div class=\"two_card_container\">\n\t\t\t\t\t\t<div class=\"card_container\">\n\t\t\t\t\t\t<img src=img/38.png>\n\t\t\t\t\t\t</div>\n\n\t\t\t\t\t\t<div class=\"card_container\">\n\t\t\t\t\t\t<img src=img/10.png>\n\t\t\t\t\t\t</div>","response":"j","task":"response","correct_response":"j","trial_type":"html-keyboard-response","trial_index":135,"time_elapsed":849166,"internal_node_id":"0.0-5.0-0.4","prolific_id":"5dcca657854936945d68eaa9","session_id":"643c24ecc59b04c01138427b","study_id":"64370a36d30bfa807bc7e43c","correct":true},{"rt":null,"stimulus":"\n\t\t\t\t\t<p>Correct!</p>\n\t\t\t\t\t","response":null,"trial_type":"html-keyboard-response","trial_index":136,"time_elapsed":850168,"internal_node_id":"0.0-5.0-1.4","prolific_id":"5dcca657854936945d68eaa9","session_id":"643c24ecc59b04c01138427b","study_id":"64370a36d30bfa807bc7e43c"},{"rt":1580,"stimulus":"\n\t\t\t\t\t\t<div class=\"two_card_container\">\n\t\t\t\t\t\t<div class=\"card_container\">\n\t\t\t\t\t\t<img src=img/24.png>\n\t\t\t\t\t\t</div>\n\n\t\t\t\t\t\t<div class=\"card_container\">\n\t\t\t\t\t\t<img src=img/35.png>\n\t\t\t\t\t\t</div>","response":"f","task":"response","correct_response":"f","trial_type":"html-keyboard-response","trial_index":137,"time_elapsed":851750,"internal_node_id":"0.0-5.0-0.5","prolific_id":"5dcca657854936945d68eaa9","session_id":"643c24ecc59b04c01138427b","study_id":"64370a36d30bfa807bc7e43c","correct":true},{"rt":null,"stimulus":"\n\t\t\t\t\t<p>Correct!</p>\n\t\t\t\t\t","response":null,"trial_type":"html-keyboard-response","trial_index":138,"time_elapsed":852752,"internal_node_id":"0.0-5.0-1.5","prolific_id":"5dcca657854936945d68eaa9","session_id":"643c24ecc59b04c01138427b","study_id":"64370a36d30bfa807bc7e43c"},{"rt":1340,"stimulus":"\n\t\t\t\t\t\t<div class=\"two_card_container\">\n\t\t\t\t\t\t<div class=\"card_container\">\n\t\t\t\t\t\t<img src=img/15.png>\n\t\t\t\t\t\t</div>\n\n\t\t\t\t\t\t<div class=\"card_container\">\n\t\t\t\t\t\t<img src=img/33.png>\n\t\t\t\t\t\t</div>","response":"f","task":"response","correct_response":"f","trial_type":"html-keyboard-response","trial_index":139,"time_elapsed":854094,"internal_node_id":"0.0-5.0-0.6","prolific_id":"5dcca657854936945d68eaa9","session_id":"643c24ecc59b04c01138427b","study_id":"64370a36d30bfa807bc7e43c","correct":true},{"rt":null,"stimulus":"\n\t\t\t\t\t<p>Correct!</p>\n\t\t\t\t\t","response":null,"trial_type":"html-keyboard-response","trial_index":140,"time_elapsed":855095,"internal_node_id":"0.0-5.0-1.6","prolific_id":"5dcca657854936945d68eaa9","session_id":"643c24ecc59b04c01138427b","study_id":"64370a36d30bfa807bc7e43c"},{"rt":906,"stimulus":"\n\t\t\t\t\t\t<div class=\"two_card_container\">\n\t\t\t\t\t\t<div class=\"card_container\">\n\t\t\t\t\t\t<img src=img/14.png>\n\t\t\t\t\t\t</div>\n\n\t\t\t\t\t\t<div class=\"card_container\">\n\t\t\t\t\t\t<img src=img/31.png>\n\t\t\t\t\t\t</div>","response":"f","task":"response","correct_response":"f","trial_type":"html-keyboard-response","trial_index":141,"time_elapsed":856003,"internal_node_id":"0.0-5.0-0.7","prolific_id":"5dcca657854936945d68eaa9","session_id":"643c24ecc59b04c01138427b","study_id":"64370a36d30bfa807bc7e43c","correct":true},{"rt":null,"stimulus":"\n\t\t\t\t\t<p>Correct!</p>\n\t\t\t\t\t","response":null,"trial_type":"html-keyboard-response","trial_index":142,"time_elapsed":857004,"internal_node_id":"0.0-5.0-1.7","prolific_id":"5dcca657854936945d68eaa9","session_id":"643c24ecc59b04c01138427b","study_id":"64370a36d30bfa807bc7e43c"},{"rt":1747,"stimulus":"\n\t\t\t\t\t\t<div class=\"two_card_container\">\n\t\t\t\t\t\t<div class=\"card_container\">\n\t\t\t\t\t\t<img src=img/21.png>\n\t\t\t\t\t\t</div>\n\n\t\t\t\t\t\t<div class=\"card_container\">\n\t\t\t\t\t\t<img src=img/32.png>\n\t\t\t\t\t\t</div>","response":"f","task":"response","correct_response":"f","trial_type":"html-keyboard-response","trial_index":143,"time_elapsed":858752,"internal_node_id":"0.0-5.0-0.8","prolific_id":"5dcca657854936945d68eaa9","session_id":"643c24ecc59b04c01138427b","study_id":"64370a36d30bfa807bc7e43c","correct":true},{"rt":null,"stimulus":"\n\t\t\t\t\t<p>Correct!</p>\n\t\t\t\t\t","response":null,"trial_type":"html-keyboard-response","trial_index":144,"time_elapsed":859754,"internal_node_id":"0.0-5.0-1.8","prolific_id":"5dcca657854936945d68eaa9","session_id":"643c24ecc59b04c01138427b","study_id":"64370a36d30bfa807bc7e43c"},{"rt":1796,"stimulus":"\n\t\t\t\t\t\t<div class=\"two_card_container\">\n\t\t\t\t\t\t<div class=\"card_container\">\n\t\t\t\t\t\t<img src=img/36.png>\n\t\t\t\t\t\t</div>\n\n\t\t\t\t\t\t<div class=\"card_container\">\n\t\t\t\t\t\t<img src=img/12.png>\n\t\t\t\t\t\t</div>","response":"f","task":"response","correct_response":"j","trial_type":"html-keyboard-response","trial_index":145,"time_elapsed":861551,"internal_node_id":"0.0-5.0-0.9","prolific_id":"5dcca657854936945d68eaa9","session_id":"643c24ecc59b04c01138427b","study_id":"64370a36d30bfa807bc7e43c","correct":false},{"rt":null,"stimulus":"\n\t\t\t\t\t<p>Wrong answer</p>\n\t\t\t\t\t","response":null,"trial_type":"html-keyboard-response","trial_index":146,"time_elapsed":862552,"internal_node_id":"0.0-5.0-1.9","prolific_id":"5dcca657854936945d68eaa9","session_id":"643c24ecc59b04c01138427b","study_id":"64370a36d30bfa807bc7e43c"},{"rt":null,"stimulus":"\n\t\t\t<h2>Good job :p</h2>\n\t\t\t<p>In the next session, you will see a trivia question on the screen in each trial.</p>\n\t\t\t<p>Each of these trivia questions is chosen from the questions you have already seen in the first session of the experiment.</p><br>\n\t\t\t<p>Your task is to answer the trivia question based on what you remember as accurately as you can.</p>\n\t\t\t<p>Have fun!</p>\n\t\t\t<br>\n\t\t\t<p>The trials will begin in 30 seconds</p>\n\t\t\t","response":null,"trial_type":"html-keyboard-response","trial_index":147,"time_elapsed":892554,"internal_node_id":"0.0-6.0","prolific_id":"5dcca657854936945d68eaa9","session_id":"643c24ecc59b04c01138427b","study_id":"64370a36d30bfa807bc7e43c"},{"rt":9058,"response":{"answer":"37822"},"task":"response","correct_response":"13171","trial_type":"survey-text","trial_index":148,"time_elapsed":901616,"internal_node_id":"0.0-7.0-0.0","prolific_id":"5dcca657854936945d68eaa9","session_id":"643c24ecc59b04c01138427b","study_id":"64370a36d30bfa807bc7e43c","difference":100},{"rt":null,"stimulus":"<h2>The correct answer is 13171.</h2><p>Your answer was different from the answer by 24651.</p><p>Not even close... do better next time!</p>","response":null,"trial_type":"html-keyboard-response","trial_index":149,"time_elapsed":904119,"internal_node_id":"0.0-7.0-1.0","prolific_id":"5dcca657854936945d68eaa9","session_id":"643c24ecc59b04c01138427b","study_id":"64370a36d30bfa807bc7e43c"},{"rt":8343,"response":{"answer":"7203"},"task":"response","correct_response":"7917.5","trial_type":"survey-text","trial_index":150,"time_elapsed":912466,"internal_node_id":"0.0-7.0-0.1","prolific_id":"5dcca657854936945d68eaa9","session_id":"643c24ecc59b04c01138427b","study_id":"64370a36d30bfa807bc7e43c","difference":9},{"rt":null,"stimulus":"<h2>The correct answer is 7917.5.</h2><p>Your answer was different from the answer by 714.5.</p><p>Excellent. Kudos to you!</p>","response":null,"trial_type":"html-keyboard-response","trial_index":151,"time_elapsed":914967,"internal_node_id":"0.0-7.0-1.1","prolific_id":"5dcca657854936945d68eaa9","session_id":"643c24ecc59b04c01138427b","study_id":"64370a36d30bfa807bc7e43c"},{"rt":2870,"response":{"answer":"13"},"task":"response","correct_response":"13","trial_type":"survey-text","trial_index":152,"time_elapsed":917840,"internal_node_id":"0.0-7.0-0.2","prolific_id":"5dcca657854936945d68eaa9","session_id":"643c24ecc59b04c01138427b","study_id":"64370a36d30bfa807bc7e43c","difference":0},{"rt":null,"stimulus":"<h2>The correct answer is 13.</h2><p>Your answer was different from the answer by 0.</p><p>You got the right answer. Amazing work!</p>","response":null,"trial_type":"html-keyboard-response","trial_index":153,"time_elapsed":920341,"internal_node_id":"0.0-7.0-1.2","prolific_id":"5dcca657854936945d68eaa9","session_id":"643c24ecc59b04c01138427b","study_id":"64370a36d30bfa807bc7e43c"},{"rt":3310,"response":{"answer":"11"},"task":"response","correct_response":"11","trial_type":"survey-text","trial_index":154,"time_elapsed":923655,"internal_node_id":"0.0-7.0-0.3","prolific_id":"5dcca657854936945d68eaa9","session_id":"643c24ecc59b04c01138427b","study_id":"64370a36d30bfa807bc7e43c","difference":0},{"rt":null,"stimulus":"<h2>The correct answer is 11.</h2><p>Your answer was different from the answer by 0.</p><p>You got the right answer. Amazing work!</p>","response":null,"trial_type":"html-keyboard-response","trial_index":155,"time_elapsed":926157,"internal_node_id":"0.0-7.0-1.3","prolific_id":"5dcca657854936945d68eaa9","session_id":"643c24ecc59b04c01138427b","study_id":"64370a36d30bfa807bc7e43c"},{"rt":2701,"response":{"answer":"88"},"task":"response","correct_response":"88","trial_type":"survey-text","trial_index":156,"time_elapsed":928859,"internal_node_id":"0.0-7.0-0.4","prolific_id":"5dcca657854936945d68eaa9","session_id":"643c24ecc59b04c01138427b","study_id":"64370a36d30bfa807bc7e43c","difference":0},{"rt":null,"stimulus":"<h2>The correct answer is 88.</h2><p>Your answer was different from the answer by 0.</p><p>You got the right answer. Amazing work!</p>","response":null,"trial_type":"html-keyboard-response","trial_index":157,"time_elapsed":931361,"internal_node_id":"0.0-7.0-1.4","prolific_id":"5dcca657854936945d68eaa9","session_id":"643c24ecc59b04c01138427b","study_id":"64370a36d30bfa807bc7e43c"},{"rt":2980,"response":{"answer":"108"},"task":"response","correct_response":"108","trial_type":"survey-text","trial_index":158,"time_elapsed":934344,"internal_node_id":"0.0-7.0-0.5","prolific_id":"5dcca657854936945d68eaa9","session_id":"643c24ecc59b04c01138427b","study_id":"64370a36d30bfa807bc7e43c","difference":0},{"rt":null,"stimulus":"<h2>The correct answer is 108.</h2><p>Your answer was different from the answer by 0.</p><p>You got the right answer. Amazing work!</p>","response":null,"trial_type":"html-keyboard-response","trial_index":159,"time_elapsed":936845,"internal_node_id":"0.0-7.0-1.5","prolific_id":"5dcca657854936945d68eaa9","session_id":"643c24ecc59b04c01138427b","study_id":"64370a36d30bfa807bc7e43c"},{"rt":3085,"response":{"answer":"14"},"task":"response","correct_response":"14","trial_type":"survey-text","trial_index":160,"time_elapsed":939934,"internal_node_id":"0.0-7.0-0.6","prolific_id":"5dcca657854936945d68eaa9","session_id":"643c24ecc59b04c01138427b","study_id":"64370a36d30bfa807bc7e43c","difference":0},{"rt":null,"stimulus":"<h2>The correct answer is 14.</h2><p>Your answer was different from the answer by 0.</p><p>You got the right answer. Amazing work!</p>","response":null,"trial_type":"html-keyboard-response","trial_index":161,"time_elapsed":942436,"internal_node_id":"0.0-7.0-1.6","prolific_id":"5dcca657854936945d68eaa9","session_id":"643c24ecc59b04c01138427b","study_id":"64370a36d30bfa807bc7e43c"},{"rt":20510,"response":{"answer":"1926"},"task":"response","correct_response":"1907","trial_type":"survey-text","trial_index":162,"time_elapsed":962948,"internal_node_id":"0.0-7.0-0.7","prolific_id":"5dcca657854936945d68eaa9","session_id":"643c24ecc59b04c01138427b","study_id":"64370a36d30bfa807bc7e43c","difference":1},{"rt":null,"stimulus":"<h2>The correct answer is 1907.</h2><p>Your answer was different from the answer by 19.</p><p>Excellent. Kudos to you!</p>","response":null,"trial_type":"html-keyboard-response","trial_index":163,"time_elapsed":965449,"internal_node_id":"0.0-7.0-1.7","prolific_id":"5dcca657854936945d68eaa9","session_id":"643c24ecc59b04c01138427b","study_id":"64370a36d30bfa807bc7e43c"},{"rt":2818,"response":{"answer":"13"},"task":"response","correct_response":"13","trial_type":"survey-text","trial_index":164,"time_elapsed":968268,"internal_node_id":"0.0-7.0-0.8","prolific_id":"5dcca657854936945d68eaa9","session_id":"643c24ecc59b04c01138427b","study_id":"64370a36d30bfa807bc7e43c","difference":0},{"rt":null,"stimulus":"<h2>The correct answer is 13.</h2><p>Your answer was different from the answer by 0.</p><p>You got the right answer. Amazing work!</p>","response":null,"trial_type":"html-keyboard-response","trial_index":165,"time_elapsed":970770,"internal_node_id":"0.0-7.0-1.8","prolific_id":"5dcca657854936945d68eaa9","session_id":"643c24ecc59b04c01138427b","study_id":"64370a36d30bfa807bc7e43c"},{"rt":3141,"response":{"answer":"1912"},"task":"response","correct_response":"1912","trial_type":"survey-text","trial_index":166,"time_elapsed":973914,"internal_node_id":"0.0-7.0-0.9","prolific_id":"5dcca657854936945d68eaa9","session_id":"643c24ecc59b04c01138427b","study_id":"64370a36d30bfa807bc7e43c","difference":0},{"rt":null,"stimulus":"<h2>The correct answer is 1912.</h2><p>Your answer was different from the answer by 0.</p><p>You got the right answer. Amazing work!</p>","response":null,"trial_type":"html-keyboard-response","trial_index":167,"time_elapsed":976415,"internal_node_id":"0.0-7.0-1.9","prolific_id":"5dcca657854936945d68eaa9","session_id":"643c24ecc59b04c01138427b","study_id":"64370a36d30bfa807bc7e43c"}]