[{"success":true,"timeout":false,"failed_images":[],"failed_audio":[],"failed_video":[],"trial_type":"preload","trial_index":0,"time_elapsed":22775,"internal_node_id":"0.0-0.0","prolific_id":"5dfda52097234ba7a779bea7","session_id":"643c24f235057c53409a0694","study_id":"64370a36d30bfa807bc7e43c"},{"rt":18340,"stimulus":"\n\t\t\t\t\t<p>Welcome and thank you for participating in this study!</p>\n\t\t\t\t\t<p>In each trial, you will be given a trivia question and then be asked to:</p><br>\n\t\t\t\t\t<div class=\"list\">\n\t\t\t\t\t<p>1) Predict the answer</p>\n\t\t\t\t\t<p>2) Rate how much you already know about the topic</p>\n\t\t\t\t\t<p>3) Rate how much you want to know the answer</p>\n\t\t\t\t\t</div>\n\t\t\t\t\t<br>\n\t\t\t\t\t<p>Then, you will see a card that flips over to reveal the answer.</p>\n\t\t\t\t\t<br>\n\t\t\t\t\t<p>Let's try a practice round. Press <span style=\"color: red\"><strong>any key</strong></span> to move to the next slide</p>\n\t\t\t\t\t","response":"enter","trial_type":"html-keyboard-response","trial_index":1,"time_elapsed":41119,"internal_node_id":"0.0-1.0","prolific_id":"5dfda52097234ba7a779bea7","session_id":"643c24f235057c53409a0694","study_id":"64370a36d30bfa807bc7e43c"},{"rt":13082,"response":{"practice prediction":"6"},"task":"practice","trial_type":"survey-text","trial_index":2,"time_elapsed":54402,"internal_node_id":"0.0-2.0-0.0","prolific_id":"5dfda52097234ba7a779bea7","session_id":"643c24f235057c53409a0694","study_id":"64370a36d30bfa807bc7e43c"},{"rt":22853,"response":{"practice":5},"accuracy":[],"trial_type":"survey","trial_index":3,"time_elapsed":77387,"internal_node_id":"0.0-2.0-1.0","prolific_id":"5dfda52097234ba7a779bea7","session_id":"643c24f235057c53409a0694","study_id":"64370a36d30bfa807bc7e43c"},{"rt":null,"stimulus":"\n\t\t\t\t<div class=\"flip_card\">\n\t\t\t\t\t<div class=\"flip_card_inner\">\n\t\t\t\t\t\t<div class=\"flip_card_front\">\n\t\t\t\t\t\t\t<img src=img/practice.png>\n\t\t\t\t\t\t</div>\n\t\t\t\t\t\t<div class=\"flip_card_back\">\n\t\t\t\t\t\t\t<h2>\"How many legs does a lobster have?\"</h2>\n\t\t\t\t\t\t    <br>\n\t\t\t\t\t\t    <p>Answer: <strong>\"10\"</strong></p>\n\t\t\t\t\t    </div>\n\t\t\t\t    </div>\n\t\t\t    </div>\n\t\t\t\t","response":null,"trial_type":"html-keyboard-response","trial_index":4,"time_elapsed":82390,"internal_node_id":"0.0-2.0-2.0","prolific_id":"5dfda52097234ba7a779bea7","session_id":"643c24f235057c53409a0694","study_id":"64370a36d30bfa807bc7e43c"},{"rt":2336,"stimulus":"\n\t\t\t\t\t<div>\n\t\t\t\t\t<h2>The practice round is over</h2>\n\t\t\t\t\t<p>Press <span style=\"color: red\"><strong>any key</strong></span> to continue to the actual trials</p>\n\t\t\t\t\t<p>Good Luck!</p>\n\t\t\t\t\t</div>\n\t\t\t\t\t","response":"enter","trial_type":"html-keyboard-response","trial_index":5,"time_elapsed":84727,"internal_node_id":"0.0-2.0-3.0","prolific_id":"5dfda52097234ba7a779bea7","session_id":"643c24f235057c53409a0694","study_id":"64370a36d30bfa807bc7e43c"},{"rt":8739,"response":{"prediction":"1913"},"trial_type":"survey-text","trial_index":6,"time_elapsed":93472,"internal_node_id":"0.0-3.0-0.0","prolific_id":"5dfda52097234ba7a779bea7","session_id":"643c24f235057c53409a0694","study_id":"64370a36d30bfa807bc7e43c"},{"rt":8707,"response":{"prior knowledge":3,"curiosity":5},"accuracy":[],"trial_type":"survey","trial_index":7,"time_elapsed":102219,"internal_node_id":"0.0-3.0-1.0","prolific_id":"5dfda52097234ba7a779bea7","session_id":"643c24f235057c53409a0694","study_id":"64370a36d30bfa807bc7e43c"},{"rt":null,"stimulus":"\n\t\t\t<div class=\"flip_card\">\n\t\t\t\t<div class=\"flip_card_inner\">\n\t\t\t\t\t<div class=\"flip_card_front\">\n\t\t\t\t\t\t<img src=img/24.png>\n\t\t\t\t\t</div>\n\t\t\t\t\t<div class=\"flip_card_back\">\n\t\t\t\t\t\t<h2>What year did the titanic sink?</h2>\n\t\t\t\t\t\t<br>\n\t\t\t\t\t\t<p>Answer: <strong>1912</strong></p>\n\t\t\t\t\t</div>\n\t\t\t\t</div>\n\t\t\t</div>\n\t\t\t","response":null,"trial_type":"html-keyboard-response","trial_index":8,"time_elapsed":107224,"internal_node_id":"0.0-3.0-2.0","prolific_id":"5dfda52097234ba7a779bea7","session_id":"643c24f235057c53409a0694","study_id":"64370a36d30bfa807bc7e43c"},{"rt":2372,"stimulus":"\n\t\t\t\t\t<div>\n\t\t\t\t\t<h2>Trial 1 is over</h2>\n\t\t\t\t\t<p>Press <span style=\"color: red\"><strong>any key</strong></span> to continue to the next trial</p>\n\t\t\t\t\t</div>\n\t\t\t\t","response":"enter","trial_type":"html-keyboard-response","trial_index":9,"time_elapsed":109594,"internal_node_id":"0.0-3.0-3.0","prolific_id":"5dfda52097234ba7a779bea7","session_id":"643c24f235057c53409a0694","study_id":"64370a36d30bfa807bc7e43c"},{"rt":8125,"response":{"prediction":"7"},"trial_type":"survey-text","trial_index":10,"time_elapsed":117726,"internal_node_id":"0.0-3.0-0.1","prolific_id":"5dfda52097234ba7a779bea7","session_id":"643c24f235057c53409a0694","study_id":"64370a36d30bfa807bc7e43c"},{"rt":9160,"response":{"prior knowledge":0,"curiosity":4},"accuracy":[],"trial_type":"survey","trial_index":11,"time_elapsed":126923,"internal_node_id":"0.0-3.0-1.1","prolific_id":"5dfda52097234ba7a779bea7","session_id":"643c24f235057c53409a0694","study_id":"64370a36d30bfa807bc7e43c"},{"rt":null,"stimulus":"\n\t\t\t<div class=\"flip_card\">\n\t\t\t\t<div class=\"flip_card_inner\">\n\t\t\t\t\t<div class=\"flip_card_front\">\n\t\t\t\t\t\t<img src=img/8.png>\n\t\t\t\t\t</div>\n\t\t\t\t\t<div class=\"flip_card_back\">\n\t\t\t\t\t\t<h2>How many countries in Africa have French as the official language?</h2>\n\t\t\t\t\t\t<br>\n\t\t\t\t\t\t<p>Answer: <strong>21</strong></p>\n\t\t\t\t\t</div>\n\t\t\t\t</div>\n\t\t\t</div>\n\t\t\t","response":null,"trial_type":"html-keyboard-response","trial_index":12,"time_elapsed":131926,"internal_node_id":"0.0-3.0-2.1","prolific_id":"5dfda52097234ba7a779bea7","session_id":"643c24f235057c53409a0694","study_id":"64370a36d30bfa807bc7e43c"},{"rt":8609,"stimulus":"\n\t\t\t\t\t<div>\n\t\t\t\t\t<h2>Trial 2 is over</h2>\n\t\t\t\t\t<p>Press <span style=\"color: red\"><strong>any key</strong></span> to continue to the next trial</p>\n\t\t\t\t\t</div>\n\t\t\t\t","response":"enter","trial_type":"html-keyboard-response","trial_index":13,"time_elapsed":140537,"internal_node_id":"0.0-3.0-3.1","prolific_id":"5dfda52097234ba7a779bea7","session_id":"643c24f235057c53409a0694","study_id":"64370a36d30bfa807bc7e43c"},{"rt":12781,"response":{"prediction":"1897"},"trial_type":"survey-text","trial_index":14,"time_elapsed":153323,"internal_node_id":"0.0-3.0-0.2","prolific_id":"5dfda52097234ba7a779bea7","session_id":"643c24f235057c53409a0694","study_id":"64370a36d30bfa807bc7e43c"},{"rt":7824,"response":{"prior knowledge":2,"curiosity":4},"accuracy":[],"trial_type":"survey","trial_index":15,"time_elapsed":161178,"internal_node_id":"0.0-3.0-1.2","prolific_id":"5dfda52097234ba7a779bea7","session_id":"643c24f235057c53409a0694","study_id":"64370a36d30bfa807bc7e43c"},{"rt":null,"stimulus":"\n\t\t\t<div class=\"flip_card\">\n\t\t\t\t<div class=\"flip_card_inner\">\n\t\t\t\t\t<div class=\"flip_card_front\">\n\t\t\t\t\t\t<img src=img/15.png>\n\t\t\t\t\t</div>\n\t\t\t\t\t<div class=\"flip_card_back\">\n\t\t\t\t\t\t<h2>In what year was the first Nobel Prize awarded?</h2>\n\t\t\t\t\t\t<br>\n\t\t\t\t\t\t<p>Answer: <strong>1901</strong></p>\n\t\t\t\t\t</div>\n\t\t\t\t</div>\n\t\t\t</div>\n\t\t\t","response":null,"trial_type":"html-keyboard-response","trial_index":16,"time_elapsed":166183,"internal_node_id":"0.0-3.0-2.2","prolific_id":"5dfda52097234ba7a779bea7","session_id":"643c24f235057c53409a0694","study_id":"64370a36d30bfa807bc7e43c"},{"rt":1883,"stimulus":"\n\t\t\t\t\t<div>\n\t\t\t\t\t<h2>Trial 3 is over</h2>\n\t\t\t\t\t<p>Press <span style=\"color: red\"><strong>any key</strong></span> to continue to the next trial</p>\n\t\t\t\t\t</div>\n\t\t\t\t","response":"enter","trial_type":"html-keyboard-response","trial_index":17,"time_elapsed":168067,"internal_node_id":"0.0-3.0-3.2","prolific_id":"5dfda52097234ba7a779bea7","session_id":"643c24f235057c53409a0694","study_id":"64370a36d30bfa807bc7e43c"},{"rt":9696,"response":{"prediction":"67"},"trial_type":"survey-text","trial_index":18,"time_elapsed":177762,"internal_node_id":"0.0-3.0-0.3","prolific_id":"5dfda52097234ba7a779bea7","session_id":"643c24f235057c53409a0694","study_id":"64370a36d30bfa807bc7e43c"},{"rt":8474,"response":{"prior knowledge":1,"curiosity":5},"accuracy":[],"trial_type":"survey","trial_index":19,"time_elapsed":186267,"internal_node_id":"0.0-3.0-1.3","prolific_id":"5dfda52097234ba7a779bea7","session_id":"643c24f235057c53409a0694","study_id":"64370a36d30bfa807bc7e43c"},{"rt":null,"stimulus":"\n\t\t\t<div class=\"flip_card\">\n\t\t\t\t<div class=\"flip_card_inner\">\n\t\t\t\t\t<div class=\"flip_card_front\">\n\t\t\t\t\t\t<img src=img/14.png>\n\t\t\t\t\t</div>\n\t\t\t\t\t<div class=\"flip_card_back\">\n\t\t\t\t\t\t<h2>How many floors are in the Burj Khalifa, the tallest building in the world?</h2>\n\t\t\t\t\t\t<br>\n\t\t\t\t\t\t<p>Answer: <strong>163</strong></p>\n\t\t\t\t\t</div>\n\t\t\t\t</div>\n\t\t\t</div>\n\t\t\t","response":null,"trial_type":"html-keyboard-response","trial_index":20,"time_elapsed":191271,"internal_node_id":"0.0-3.0-2.3","prolific_id":"5dfda52097234ba7a779bea7","session_id":"643c24f235057c53409a0694","study_id":"64370a36d30bfa807bc7e43c"},{"rt":1980,"stimulus":"\n\t\t\t\t\t<div>\n\t\t\t\t\t<h2>Trial 4 is over</h2>\n\t\t\t\t\t<p>Press <span style=\"color: red\"><strong>any key</strong></span> to continue to the next trial</p>\n\t\t\t\t\t</div>\n\t\t\t\t","response":"enter","trial_type":"html-keyboard-response","trial_index":21,"time_elapsed":193252,"internal_node_id":"0.0-3.0-3.3","prolific_id":"5dfda52097234ba7a779bea7","session_id":"643c24f235057c53409a0694","study_id":"64370a36d30bfa807bc7e43c"},{"rt":8371,"response":{"prediction":"9"},"trial_type":"survey-text","trial_index":22,"time_elapsed":201627,"internal_node_id":"0.0-3.0-0.4","prolific_id":"5dfda52097234ba7a779bea7","session_id":"643c24f235057c53409a0694","study_id":"64370a36d30bfa807bc7e43c"},{"rt":7356,"response":{"prior knowledge":2,"curiosity":4},"accuracy":[],"trial_type":"survey","trial_index":23,"time_elapsed":209014,"internal_node_id":"0.0-3.0-1.4","prolific_id":"5dfda52097234ba7a779bea7","session_id":"643c24f235057c53409a0694","study_id":"64370a36d30bfa807bc7e43c"},{"rt":null,"stimulus":"\n\t\t\t<div class=\"flip_card\">\n\t\t\t\t<div class=\"flip_card_inner\">\n\t\t\t\t\t<div class=\"flip_card_front\">\n\t\t\t\t\t\t<img src=img/12.png>\n\t\t\t\t\t</div>\n\t\t\t\t\t<div class=\"flip_card_back\">\n\t\t\t\t\t\t<h2>How many moons does Neptune have?</h2>\n\t\t\t\t\t\t<br>\n\t\t\t\t\t\t<p>Answer: <strong>14</strong></p>\n\t\t\t\t\t</div>\n\t\t\t\t</div>\n\t\t\t</div>\n\t\t\t","response":null,"trial_type":"html-keyboard-response","trial_index":24,"time_elapsed":214017,"internal_node_id":"0.0-3.0-2.4","prolific_id":"5dfda52097234ba7a779bea7","session_id":"643c24f235057c53409a0694","study_id":"64370a36d30bfa807bc7e43c"},{"rt":3170,"stimulus":"\n\t\t\t\t\t<div>\n\t\t\t\t\t<h2>Trial 5 is over</h2>\n\t\t\t\t\t<p>Press <span style=\"color: red\"><strong>any key</strong></span> to continue to the next trial</p>\n\t\t\t\t\t</div>\n\t\t\t\t","response":"enter","trial_type":"html-keyboard-response","trial_index":25,"time_elapsed":217188,"internal_node_id":"0.0-3.0-3.4","prolific_id":"5dfda52097234ba7a779bea7","session_id":"643c24f235057c53409a0694","study_id":"64370a36d30bfa807bc7e43c"},{"rt":12459,"response":{"prediction":"24520"},"trial_type":"survey-text","trial_index":26,"time_elapsed":229653,"internal_node_id":"0.0-3.0-0.5","prolific_id":"5dfda52097234ba7a779bea7","session_id":"643c24f235057c53409a0694","study_id":"64370a36d30bfa807bc7e43c"},{"rt":6302,"response":{"prior knowledge":1,"curiosity":5},"accuracy":[],"trial_type":"survey","trial_index":27,"time_elapsed":235980,"internal_node_id":"0.0-3.0-1.5","prolific_id":"5dfda52097234ba7a779bea7","session_id":"643c24f235057c53409a0694","study_id":"64370a36d30bfa807bc7e43c"},{"rt":null,"stimulus":"\n\t\t\t<div class=\"flip_card\">\n\t\t\t\t<div class=\"flip_card_inner\">\n\t\t\t\t\t<div class=\"flip_card_front\">\n\t\t\t\t\t\t<img src=img/11.png>\n\t\t\t\t\t</div>\n\t\t\t\t\t<div class=\"flip_card_back\">\n\t\t\t\t\t\t<h2>What is the diameter of Earth in miles?</h2>\n\t\t\t\t\t\t<br>\n\t\t\t\t\t\t<p>Answer: <strong>7917.5</strong></p>\n\t\t\t\t\t</div>\n\t\t\t\t</div>\n\t\t\t</div>\n\t\t\t","response":null,"trial_type":"html-keyboard-response","trial_index":28,"time_elapsed":240984,"internal_node_id":"0.0-3.0-2.5","prolific_id":"5dfda52097234ba7a779bea7","session_id":"643c24f235057c53409a0694","study_id":"64370a36d30bfa807bc7e43c"},{"rt":2476,"stimulus":"\n\t\t\t\t\t<div>\n\t\t\t\t\t<h2>Trial 6 is over</h2>\n\t\t\t\t\t<p>Press <span style=\"color: red\"><strong>any key</strong></span> to continue to the next trial</p>\n\t\t\t\t\t</div>\n\t\t\t\t","response":"enter","trial_type":"html-keyboard-response","trial_index":29,"time_elapsed":243461,"internal_node_id":"0.0-3.0-3.5","prolific_id":"5dfda52097234ba7a779bea7","session_id":"643c24f235057c53409a0694","study_id":"64370a36d30bfa807bc7e43c"},{"rt":8779,"response":{"prediction":"9"},"trial_type":"survey-text","trial_index":30,"time_elapsed":252247,"internal_node_id":"0.0-3.0-0.6","prolific_id":"5dfda52097234ba7a779bea7","session_id":"643c24f235057c53409a0694","study_id":"64370a36d30bfa807bc7e43c"},{"rt":15801,"response":{"prior knowledge":0,"curiosity":2},"accuracy":[],"trial_type":"survey","trial_index":31,"time_elapsed":268078,"internal_node_id":"0.0-3.0-1.6","prolific_id":"5dfda52097234ba7a779bea7","session_id":"643c24f235057c53409a0694","study_id":"64370a36d30bfa807bc7e43c"},{"rt":null,"stimulus":"\n\t\t\t<div class=\"flip_card\">\n\t\t\t\t<div class=\"flip_card_inner\">\n\t\t\t\t\t<div class=\"flip_card_front\">\n\t\t\t\t\t\t<img src=img/9.png>\n\t\t\t\t\t</div>\n\t\t\t\t\t<div class=\"flip_card_back\">\n\t\t\t\t\t\t<h2>How many soccer players should each team have on the field at the start of each match?</h2>\n\t\t\t\t\t\t<br>\n\t\t\t\t\t\t<p>Answer: <strong>11</strong></p>\n\t\t\t\t\t</div>\n\t\t\t\t</div>\n\t\t\t</div>\n\t\t\t","response":null,"trial_type":"html-keyboard-response","trial_index":32,"time_elapsed":273081,"internal_node_id":"0.0-3.0-2.6","prolific_id":"5dfda52097234ba7a779bea7","session_id":"643c24f235057c53409a0694","study_id":"64370a36d30bfa807bc7e43c"},{"rt":2416,"stimulus":"\n\t\t\t\t\t<div>\n\t\t\t\t\t<h2>Trial 7 is over</h2>\n\t\t\t\t\t<p>Press <span style=\"color: red\"><strong>any key</strong></span> to continue to the next trial</p>\n\t\t\t\t\t</div>\n\t\t\t\t","response":"enter","trial_type":"html-keyboard-response","trial_index":33,"time_elapsed":275498,"internal_node_id":"0.0-3.0-3.6","prolific_id":"5dfda52097234ba7a779bea7","session_id":"643c24f235057c53409a0694","study_id":"64370a36d30bfa807bc7e43c"},{"rt":11432,"response":{"prediction":"1892"},"trial_type":"survey-text","trial_index":34,"time_elapsed":286936,"internal_node_id":"0.0-3.0-0.7","prolific_id":"5dfda52097234ba7a779bea7","session_id":"643c24f235057c53409a0694","study_id":"64370a36d30bfa807bc7e43c"},{"rt":9863,"response":{"prior knowledge":1,"curiosity":3},"accuracy":[],"trial_type":"survey","trial_index":35,"time_elapsed":296823,"internal_node_id":"0.0-3.0-1.7","prolific_id":"5dfda52097234ba7a779bea7","session_id":"643c24f235057c53409a0694","study_id":"64370a36d30bfa807bc7e43c"},{"rt":null,"stimulus":"\n\t\t\t<div class=\"flip_card\">\n\t\t\t\t<div class=\"flip_card_inner\">\n\t\t\t\t\t<div class=\"flip_card_front\">\n\t\t\t\t\t\t<img src=img/27.png>\n\t\t\t\t\t</div>\n\t\t\t\t\t<div class=\"flip_card_back\">\n\t\t\t\t\t\t<h2>In what year did the first Modern Olympic Games take place?</h2>\n\t\t\t\t\t\t<br>\n\t\t\t\t\t\t<p>Answer: <strong>1896</strong></p>\n\t\t\t\t\t</div>\n\t\t\t\t</div>\n\t\t\t</div>\n\t\t\t","response":null,"trial_type":"html-keyboard-response","trial_index":36,"time_elapsed":301826,"internal_node_id":"0.0-3.0-2.7","prolific_id":"5dfda52097234ba7a779bea7","session_id":"643c24f235057c53409a0694","study_id":"64370a36d30bfa807bc7e43c"},{"rt":2408,"stimulus":"\n\t\t\t\t\t<div>\n\t\t\t\t\t<h2>Trial 8 is over</h2>\n\t\t\t\t\t<p>Press <span style=\"color: red\"><strong>any key</strong></span> to continue to the next trial</p>\n\t\t\t\t\t</div>\n\t\t\t\t","response":"enter","trial_type":"html-keyboard-response","trial_index":37,"time_elapsed":304236,"internal_node_id":"0.0-3.0-3.7","prolific_id":"5dfda52097234ba7a779bea7","session_id":"643c24f235057c53409a0694","study_id":"64370a36d30bfa807bc7e43c"},{"rt":5694,"response":{"prediction":"17"},"trial_type":"survey-text","trial_index":38,"time_elapsed":309935,"internal_node_id":"0.0-3.0-0.8","prolific_id":"5dfda52097234ba7a779bea7","session_id":"643c24f235057c53409a0694","study_id":"64370a36d30bfa807bc7e43c"},{"rt":11395,"response":{"prior knowledge":2,"curiosity":4},"accuracy":[],"trial_type":"survey","trial_index":39,"time_elapsed":321361,"internal_node_id":"0.0-3.0-1.8","prolific_id":"5dfda52097234ba7a779bea7","session_id":"643c24f235057c53409a0694","study_id":"64370a36d30bfa807bc7e43c"},{"rt":null,"stimulus":"\n\t\t\t<div class=\"flip_card\">\n\t\t\t\t<div class=\"flip_card_inner\">\n\t\t\t\t\t<div class=\"flip_card_front\">\n\t\t\t\t\t\t<img src=img/5.png>\n\t\t\t\t\t</div>\n\t\t\t\t\t<div class=\"flip_card_back\">\n\t\t\t\t\t\t<h2>How old was King Tut when he died?</h2>\n\t\t\t\t\t\t<br>\n\t\t\t\t\t\t<p>Answer: <strong>19</strong></p>\n\t\t\t\t\t</div>\n\t\t\t\t</div>\n\t\t\t</div>\n\t\t\t","response":null,"trial_type":"html-keyboard-response","trial_index":40,"time_elapsed":326365,"internal_node_id":"0.0-3.0-2.8","prolific_id":"5dfda52097234ba7a779bea7","session_id":"643c24f235057c53409a0694","study_id":"64370a36d30bfa807bc7e43c"},{"rt":2420,"stimulus":"\n\t\t\t\t\t<div>\n\t\t\t\t\t<h2>Trial 9 is over</h2>\n\t\t\t\t\t<p>Press <span style=\"color: red\"><strong>any key</strong></span> to continue to the next trial</p>\n\t\t\t\t\t</div>\n\t\t\t\t","response":"enter","trial_type":"html-keyboard-response","trial_index":41,"time_elapsed":328787,"internal_node_id":"0.0-3.0-3.8","prolific_id":"5dfda52097234ba7a779bea7","session_id":"643c24f235057c53409a0694","study_id":"64370a36d30bfa807bc7e43c"},{"rt":9711,"response":{"prediction":"6000"},"trial_type":"survey-text","trial_index":42,"time_elapsed":338503,"internal_node_id":"0.0-3.0-0.9","prolific_id":"5dfda52097234ba7a779bea7","session_id":"643c24f235057c53409a0694","study_id":"64370a36d30bfa807bc7e43c"},{"rt":7362,"response":{"prior knowledge":1,"curiosity":4},"accuracy":[],"trial_type":"survey","trial_index":43,"time_elapsed":345894,"internal_node_id":"0.0-3.0-1.9","prolific_id":"5dfda52097234ba7a779bea7","session_id":"643c24f235057c53409a0694","study_id":"64370a36d30bfa807bc7e43c"},{"rt":null,"stimulus":"\n\t\t\t<div class=\"flip_card\">\n\t\t\t\t<div class=\"flip_card_inner\">\n\t\t\t\t\t<div class=\"flip_card_front\">\n\t\t\t\t\t\t<img src=img/2.png>\n\t\t\t\t\t</div>\n\t\t\t\t\t<div class=\"flip_card_back\">\n\t\t\t\t\t\t<h2>How long is the Great Wall of China (in miles)?</h2>\n\t\t\t\t\t\t<br>\n\t\t\t\t\t\t<p>Answer: <strong>13171</strong></p>\n\t\t\t\t\t</div>\n\t\t\t\t</div>\n\t\t\t</div>\n\t\t\t","response":null,"trial_type":"html-keyboard-response","trial_index":44,"time_elapsed":350890,"internal_node_id":"0.0-3.0-2.9","prolific_id":"5dfda52097234ba7a779bea7","session_id":"643c24f235057c53409a0694","study_id":"64370a36d30bfa807bc7e43c"},{"rt":1956,"stimulus":"\n\t\t\t\t\t<div>\n\t\t\t\t\t<h2>Trial 10 is over</h2>\n\t\t\t\t\t<p>Press <span style=\"color: red\"><strong>any key</strong></span> to continue to the next trial</p>\n\t\t\t\t\t</div>\n\t\t\t\t","response":"enter","trial_type":"html-keyboard-response","trial_index":45,"time_elapsed":352848,"internal_node_id":"0.0-3.0-3.9","prolific_id":"5dfda52097234ba7a779bea7","session_id":"643c24f235057c53409a0694","study_id":"64370a36d30bfa807bc7e43c"},{"rt":8488,"response":{"prediction":"69"},"trial_type":"survey-text","trial_index":46,"time_elapsed":361340,"internal_node_id":"0.0-3.0-0.10","prolific_id":"5dfda52097234ba7a779bea7","session_id":"643c24f235057c53409a0694","study_id":"64370a36d30bfa807bc7e43c"},{"rt":10626,"response":{"prior knowledge":2,"curiosity":3},"accuracy":[],"trial_type":"survey","trial_index":47,"time_elapsed":371999,"internal_node_id":"0.0-3.0-1.10","prolific_id":"5dfda52097234ba7a779bea7","session_id":"643c24f235057c53409a0694","study_id":"64370a36d30bfa807bc7e43c"},{"rt":null,"stimulus":"\n\t\t\t<div class=\"flip_card\">\n\t\t\t\t<div class=\"flip_card_inner\">\n\t\t\t\t\t<div class=\"flip_card_front\">\n\t\t\t\t\t\t<img src=img/23.png>\n\t\t\t\t\t</div>\n\t\t\t\t\t<div class=\"flip_card_back\">\n\t\t\t\t\t\t<h2>How many books are in the Catholic Bible?</h2>\n\t\t\t\t\t\t<br>\n\t\t\t\t\t\t<p>Answer: <strong>73</strong></p>\n\t\t\t\t\t</div>\n\t\t\t\t</div>\n\t\t\t</div>\n\t\t\t","response":null,"trial_type":"html-keyboard-response","trial_index":48,"time_elapsed":377003,"internal_node_id":"0.0-3.0-2.10","prolific_id":"5dfda52097234ba7a779bea7","session_id":"643c24f235057c53409a0694","study_id":"64370a36d30bfa807bc7e43c"},{"rt":3645,"stimulus":"\n\t\t\t\t\t<div>\n\t\t\t\t\t<h2>Trial 11 is over</h2>\n\t\t\t\t\t<p>Press <span style=\"color: red\"><strong>any key</strong></span> to continue to the next trial</p>\n\t\t\t\t\t</div>\n\t\t\t\t","response":"enter","trial_type":"html-keyboard-response","trial_index":49,"time_elapsed":380649,"internal_node_id":"0.0-3.0-3.10","prolific_id":"5dfda52097234ba7a779bea7","session_id":"643c24f235057c53409a0694","study_id":"64370a36d30bfa807bc7e43c"},{"rt":11064,"response":{"prediction":"15"},"trial_type":"survey-text","trial_index":50,"time_elapsed":391717,"internal_node_id":"0.0-3.0-0.11","prolific_id":"5dfda52097234ba7a779bea7","session_id":"643c24f235057c53409a0694","study_id":"64370a36d30bfa807bc7e43c"},{"rt":7558,"response":{"prior knowledge":1,"curiosity":4},"accuracy":[],"trial_type":"survey","trial_index":51,"time_elapsed":399303,"internal_node_id":"0.0-3.0-1.11","prolific_id":"5dfda52097234ba7a779bea7","session_id":"643c24f235057c53409a0694","study_id":"64370a36d30bfa807bc7e43c"},{"rt":null,"stimulus":"\n\t\t\t<div class=\"flip_card\">\n\t\t\t\t<div class=\"flip_card_inner\">\n\t\t\t\t\t<div class=\"flip_card_front\">\n\t\t\t\t\t\t<img src=img/7.png>\n\t\t\t\t\t</div>\n\t\t\t\t\t<div class=\"flip_card_back\">\n\t\t\t\t\t\t<h2>How many different animals (real or imaginary) are represented in the Chinese calendar?</h2>\n\t\t\t\t\t\t<br>\n\t\t\t\t\t\t<p>Answer: <strong>12</strong></p>\n\t\t\t\t\t</div>\n\t\t\t\t</div>\n\t\t\t</div>\n\t\t\t","response":null,"trial_type":"html-keyboard-response","trial_index":52,"time_elapsed":404307,"internal_node_id":"0.0-3.0-2.11","prolific_id":"5dfda52097234ba7a779bea7","session_id":"643c24f235057c53409a0694","study_id":"64370a36d30bfa807bc7e43c"},{"rt":2232,"stimulus":"\n\t\t\t\t\t<div>\n\t\t\t\t\t<h2>Trial 12 is over</h2>\n\t\t\t\t\t<p>Press <span style=\"color: red\"><strong>any key</strong></span> to continue to the next trial</p>\n\t\t\t\t\t</div>\n\t\t\t\t","response":"enter","trial_type":"html-keyboard-response","trial_index":53,"time_elapsed":406540,"internal_node_id":"0.0-3.0-3.11","prolific_id":"5dfda52097234ba7a779bea7","session_id":"643c24f235057c53409a0694","study_id":"64370a36d30bfa807bc7e43c"},{"rt":11791,"response":{"prediction":"1962"},"trial_type":"survey-text","trial_index":54,"time_elapsed":418330,"internal_node_id":"0.0-3.0-0.12","prolific_id":"5dfda52097234ba7a779bea7","session_id":"643c24f235057c53409a0694","study_id":"64370a36d30bfa807bc7e43c"},{"rt":6120,"response":{"prior knowledge":2,"curiosity":4},"accuracy":[],"trial_type":"survey","trial_index":55,"time_elapsed":424478,"internal_node_id":"0.0-3.0-1.12","prolific_id":"5dfda52097234ba7a779bea7","session_id":"643c24f235057c53409a0694","study_id":"64370a36d30bfa807bc7e43c"},{"rt":null,"stimulus":"\n\t\t\t<div class=\"flip_card\">\n\t\t\t\t<div class=\"flip_card_inner\">\n\t\t\t\t\t<div class=\"flip_card_front\">\n\t\t\t\t\t\t<img src=img/13.png>\n\t\t\t\t\t</div>\n\t\t\t\t\t<div class=\"flip_card_back\">\n\t\t\t\t\t\t<h2>What year did the Berlin Wall fall?</h2>\n\t\t\t\t\t\t<br>\n\t\t\t\t\t\t<p>Answer: <strong>1989</strong></p>\n\t\t\t\t\t</div>\n\t\t\t\t</div>\n\t\t\t</div>\n\t\t\t","response":null,"trial_type":"html-keyboard-response","trial_index":56,"time_elapsed":429482,"internal_node_id":"0.0-3.0-2.12","prolific_id":"5dfda52097234ba7a779bea7","session_id":"643c24f235057c53409a0694","study_id":"64370a36d30bfa807bc7e43c"},{"rt":3582,"stimulus":"\n\t\t\t\t\t<div>\n\t\t\t\t\t<h2>Trial 13 is over</h2>\n\t\t\t\t\t<p>Press <span style=\"color: red\"><strong>any key</strong></span> to continue to the next trial</p>\n\t\t\t\t\t</div>\n\t\t\t\t","response":"enter","trial_type":"html-keyboard-response","trial_index":57,"time_elapsed":433068,"internal_node_id":"0.0-3.0-3.12","prolific_id":"5dfda52097234ba7a779bea7","session_id":"643c24f235057c53409a0694","study_id":"64370a36d30bfa807bc7e43c"},{"rt":5628,"response":{"prediction":"43"},"trial_type":"survey-text","trial_index":58,"time_elapsed":438701,"internal_node_id":"0.0-3.0-0.13","prolific_id":"5dfda52097234ba7a779bea7","session_id":"643c24f235057c53409a0694","study_id":"64370a36d30bfa807bc7e43c"},{"rt":5632,"response":{"prior knowledge":1,"curiosity":4},"accuracy":[],"trial_type":"survey","trial_index":59,"time_elapsed":444359,"internal_node_id":"0.0-3.0-1.13","prolific_id":"5dfda52097234ba7a779bea7","session_id":"643c24f235057c53409a0694","study_id":"64370a36d30bfa807bc7e43c"},{"rt":null,"stimulus":"\n\t\t\t<div class=\"flip_card\">\n\t\t\t\t<div class=\"flip_card_inner\">\n\t\t\t\t\t<div class=\"flip_card_front\">\n\t\t\t\t\t\t<img src=img/29.png>\n\t\t\t\t\t</div>\n\t\t\t\t\t<div class=\"flip_card_back\">\n\t\t\t\t\t\t<h2>How many books has Stephen King published?</h2>\n\t\t\t\t\t\t<br>\n\t\t\t\t\t\t<p>Answer: <strong>65</strong></p>\n\t\t\t\t\t</div>\n\t\t\t\t</div>\n\t\t\t</div>\n\t\t\t","response":null,"trial_type":"html-keyboard-response","trial_index":60,"time_elapsed":449363,"internal_node_id":"0.0-3.0-2.13","prolific_id":"5dfda52097234ba7a779bea7","session_id":"643c24f235057c53409a0694","study_id":"64370a36d30bfa807bc7e43c"},{"rt":2155,"stimulus":"\n\t\t\t\t\t<div>\n\t\t\t\t\t<h2>Trial 14 is over</h2>\n\t\t\t\t\t<p>Press <span style=\"color: red\"><strong>any key</strong></span> to continue to the next trial</p>\n\t\t\t\t\t</div>\n\t\t\t\t","response":"enter","trial_type":"html-keyboard-response","trial_index":61,"time_elapsed":451519,"internal_node_id":"0.0-3.0-3.13","prolific_id":"5dfda52097234ba7a779bea7","session_id":"643c24f235057c53409a0694","study_id":"64370a36d30bfa807bc7e43c"},{"rt":7209,"response":{"prediction":"13"},"trial_type":"survey-text","trial_index":62,"time_elapsed":458734,"internal_node_id":"0.0-3.0-0.14","prolific_id":"5dfda52097234ba7a779bea7","session_id":"643c24f235057c53409a0694","study_id":"64370a36d30bfa807bc7e43c"},{"rt":7573,"response":{"prior knowledge":3,"curiosity":5},"accuracy":[],"trial_type":"survey","trial_index":63,"time_elapsed":466335,"internal_node_id":"0.0-3.0-1.14","prolific_id":"5dfda52097234ba7a779bea7","session_id":"643c24f235057c53409a0694","study_id":"64370a36d30bfa807bc7e43c"},{"rt":null,"stimulus":"\n\t\t\t<div class=\"flip_card\">\n\t\t\t\t<div class=\"flip_card_inner\">\n\t\t\t\t\t<div class=\"flip_card_front\">\n\t\t\t\t\t\t<img src=img/10.png>\n\t\t\t\t\t</div>\n\t\t\t\t\t<div class=\"flip_card_back\">\n\t\t\t\t\t\t<h2>A bar mitzvah is traditionally celebrated when Jewish males turn what age?</h2>\n\t\t\t\t\t\t<br>\n\t\t\t\t\t\t<p>Answer: <strong>13</strong></p>\n\t\t\t\t\t</div>\n\t\t\t\t</div>\n\t\t\t</div>\n\t\t\t","response":null,"trial_type":"html-keyboard-response","trial_index":64,"time_elapsed":471331,"internal_node_id":"0.0-3.0-2.14","prolific_id":"5dfda52097234ba7a779bea7","session_id":"643c24f235057c53409a0694","study_id":"64370a36d30bfa807bc7e43c"},{"rt":1701,"stimulus":"\n\t\t\t\t\t<div>\n\t\t\t\t\t<h2>Trial 15 is over</h2>\n\t\t\t\t\t<p>Press <span style=\"color: red\"><strong>any key</strong></span> to continue to the next trial</p>\n\t\t\t\t\t</div>\n\t\t\t\t","response":"enter","trial_type":"html-keyboard-response","trial_index":65,"time_elapsed":473034,"internal_node_id":"0.0-3.0-3.14","prolific_id":"5dfda52097234ba7a779bea7","session_id":"643c24f235057c53409a0694","study_id":"64370a36d30bfa807bc7e43c"},{"rt":5742,"response":{"prediction":"13"},"trial_type":"survey-text","trial_index":66,"time_elapsed":478782,"internal_node_id":"0.0-3.0-0.15","prolific_id":"5dfda52097234ba7a779bea7","session_id":"643c24f235057c53409a0694","study_id":"64370a36d30bfa807bc7e43c"},{"rt":5656,"response":{"prior knowledge":4,"curiosity":5},"accuracy":[],"trial_type":"survey","trial_index":67,"time_elapsed":484464,"internal_node_id":"0.0-3.0-1.15","prolific_id":"5dfda52097234ba7a779bea7","session_id":"643c24f235057c53409a0694","study_id":"64370a36d30bfa807bc7e43c"},{"rt":null,"stimulus":"\n\t\t\t<div class=\"flip_card\">\n\t\t\t\t<div class=\"flip_card_inner\">\n\t\t\t\t\t<div class=\"flip_card_front\">\n\t\t\t\t\t\t<img src=img/1.png>\n\t\t\t\t\t</div>\n\t\t\t\t\t<div class=\"flip_card_back\">\n\t\t\t\t\t\t<h2>How much is in a Baker's Dozen?</h2>\n\t\t\t\t\t\t<br>\n\t\t\t\t\t\t<p>Answer: <strong>13</strong></p>\n\t\t\t\t\t</div>\n\t\t\t\t</div>\n\t\t\t</div>\n\t\t\t","response":null,"trial_type":"html-keyboard-response","trial_index":68,"time_elapsed":489468,"internal_node_id":"0.0-3.0-2.15","prolific_id":"5dfda52097234ba7a779bea7","session_id":"643c24f235057c53409a0694","study_id":"64370a36d30bfa807bc7e43c"},{"rt":1791,"stimulus":"\n\t\t\t\t\t<div>\n\t\t\t\t\t<h2>Trial 16 is over</h2>\n\t\t\t\t\t<p>Press <span style=\"color: red\"><strong>any key</strong></span> to continue to the next trial</p>\n\t\t\t\t\t</div>\n\t\t\t\t","response":"enter","trial_type":"html-keyboard-response","trial_index":69,"time_elapsed":491259,"internal_node_id":"0.0-3.0-3.15","prolific_id":"5dfda52097234ba7a779bea7","session_id":"643c24f235057c53409a0694","study_id":"64370a36d30bfa807bc7e43c"},{"rt":14908,"response":{"prediction":"1998"},"trial_type":"survey-text","trial_index":70,"time_elapsed":506172,"internal_node_id":"0.0-3.0-0.16","prolific_id":"5dfda52097234ba7a779bea7","session_id":"643c24f235057c53409a0694","study_id":"64370a36d30bfa807bc7e43c"},{"rt":8014,"response":{"prior knowledge":2,"curiosity":3},"accuracy":[],"trial_type":"survey","trial_index":71,"time_elapsed":514214,"internal_node_id":"0.0-3.0-1.16","prolific_id":"5dfda52097234ba7a779bea7","session_id":"643c24f235057c53409a0694","study_id":"64370a36d30bfa807bc7e43c"},{"rt":null,"stimulus":"\n\t\t\t<div class=\"flip_card\">\n\t\t\t\t<div class=\"flip_card_inner\">\n\t\t\t\t\t<div class=\"flip_card_front\">\n\t\t\t\t\t\t<img src=img/17.png>\n\t\t\t\t\t</div>\n\t\t\t\t\t<div class=\"flip_card_back\">\n\t\t\t\t\t\t<h2>What year was the very first model of the iPhone released?</h2>\n\t\t\t\t\t\t<br>\n\t\t\t\t\t\t<p>Answer: <strong>2007</strong></p>\n\t\t\t\t\t</div>\n\t\t\t\t</div>\n\t\t\t</div>\n\t\t\t","response":null,"trial_type":"html-keyboard-response","trial_index":72,"time_elapsed":519217,"internal_node_id":"0.0-3.0-2.16","prolific_id":"5dfda52097234ba7a779bea7","session_id":"643c24f235057c53409a0694","study_id":"64370a36d30bfa807bc7e43c"},{"rt":15865,"stimulus":"\n\t\t\t\t\t<div>\n\t\t\t\t\t<h2>Trial 17 is over</h2>\n\t\t\t\t\t<p>Press <span style=\"color: red\"><strong>any key</strong></span> to continue to the next trial</p>\n\t\t\t\t\t</div>\n\t\t\t\t","response":"enter","trial_type":"html-keyboard-response","trial_index":73,"time_elapsed":535077,"internal_node_id":"0.0-3.0-3.16","prolific_id":"5dfda52097234ba7a779bea7","session_id":"643c24f235057c53409a0694","study_id":"64370a36d30bfa807bc7e43c"},{"rt":10759,"response":{"prediction":"185"},"trial_type":"survey-text","trial_index":74,"time_elapsed":545841,"internal_node_id":"0.0-3.0-0.17","prolific_id":"5dfda52097234ba7a779bea7","session_id":"643c24f235057c53409a0694","study_id":"64370a36d30bfa807bc7e43c"},{"rt":6087,"response":{"prior knowledge":1,"curiosity":3},"accuracy":[],"trial_type":"survey","trial_index":75,"time_elapsed":551953,"internal_node_id":"0.0-3.0-1.17","prolific_id":"5dfda52097234ba7a779bea7","session_id":"643c24f235057c53409a0694","study_id":"64370a36d30bfa807bc7e43c"},{"rt":null,"stimulus":"\n\t\t\t<div class=\"flip_card\">\n\t\t\t\t<div class=\"flip_card_inner\">\n\t\t\t\t\t<div class=\"flip_card_front\">\n\t\t\t\t\t\t<img src=img/16.png>\n\t\t\t\t\t</div>\n\t\t\t\t\t<div class=\"flip_card_back\">\n\t\t\t\t\t\t<h2>How many bones is a human baby born with?</h2>\n\t\t\t\t\t\t<br>\n\t\t\t\t\t\t<p>Answer: <strong>300</strong></p>\n\t\t\t\t\t</div>\n\t\t\t\t</div>\n\t\t\t</div>\n\t\t\t","response":null,"trial_type":"html-keyboard-response","trial_index":76,"time_elapsed":556955,"internal_node_id":"0.0-3.0-2.17","prolific_id":"5dfda52097234ba7a779bea7","session_id":"643c24f235057c53409a0694","study_id":"64370a36d30bfa807bc7e43c"},{"rt":2434,"stimulus":"\n\t\t\t\t\t<div>\n\t\t\t\t\t<h2>Trial 18 is over</h2>\n\t\t\t\t\t<p>Press <span style=\"color: red\"><strong>any key</strong></span> to continue to the next trial</p>\n\t\t\t\t\t</div>\n\t\t\t\t","response":"enter","trial_type":"html-keyboard-response","trial_index":77,"time_elapsed":559390,"internal_node_id":"0.0-3.0-3.17","prolific_id":"5dfda52097234ba7a779bea7","session_id":"643c24f235057c53409a0694","study_id":"64370a36d30bfa807bc7e43c"},{"rt":9336,"response":{"prediction":"112"},"trial_type":"survey-text","trial_index":78,"time_elapsed":568731,"internal_node_id":"0.0-3.0-0.18","prolific_id":"5dfda52097234ba7a779bea7","session_id":"643c24f235057c53409a0694","study_id":"64370a36d30bfa807bc7e43c"},{"rt":7683,"response":{"prior knowledge":1,"curiosity":3},"accuracy":[],"trial_type":"survey","trial_index":79,"time_elapsed":576440,"internal_node_id":"0.0-3.0-1.18","prolific_id":"5dfda52097234ba7a779bea7","session_id":"643c24f235057c53409a0694","study_id":"64370a36d30bfa807bc7e43c"},{"rt":null,"stimulus":"\n\t\t\t<div class=\"flip_card\">\n\t\t\t\t<div class=\"flip_card_inner\">\n\t\t\t\t\t<div class=\"flip_card_front\">\n\t\t\t\t\t\t<img src=img/25.png>\n\t\t\t\t\t</div>\n\t\t\t\t\t<div class=\"flip_card_back\">\n\t\t\t\t\t\t<h2>How many double stitches does a baseball have?</h2>\n\t\t\t\t\t\t<br>\n\t\t\t\t\t\t<p>Answer: <strong>108</strong></p>\n\t\t\t\t\t</div>\n\t\t\t\t</div>\n\t\t\t</div>\n\t\t\t","response":null,"trial_type":"html-keyboard-response","trial_index":80,"time_elapsed":581443,"internal_node_id":"0.0-3.0-2.18","prolific_id":"5dfda52097234ba7a779bea7","session_id":"643c24f235057c53409a0694","study_id":"64370a36d30bfa807bc7e43c"},{"rt":1968,"stimulus":"\n\t\t\t\t\t<div>\n\t\t\t\t\t<h2>Trial 19 is over</h2>\n\t\t\t\t\t<p>Press <span style=\"color: red\"><strong>any key</strong></span> to continue to the next trial</p>\n\t\t\t\t\t</div>\n\t\t\t\t","response":"enter","trial_type":"html-keyboard-response","trial_index":81,"time_elapsed":583412,"internal_node_id":"0.0-3.0-3.18","prolific_id":"5dfda52097234ba7a779bea7","session_id":"643c24f235057c53409a0694","study_id":"64370a36d30bfa807bc7e43c"},{"rt":8133,"response":{"prediction":"412"},"trial_type":"survey-text","trial_index":82,"time_elapsed":591550,"internal_node_id":"0.0-3.0-0.19","prolific_id":"5dfda52097234ba7a779bea7","session_id":"643c24f235057c53409a0694","study_id":"64370a36d30bfa807bc7e43c"},{"rt":6366,"response":{"prior knowledge":1,"curiosity":3},"accuracy":[],"trial_type":"survey","trial_index":83,"time_elapsed":597937,"internal_node_id":"0.0-3.0-1.19","prolific_id":"5dfda52097234ba7a779bea7","session_id":"643c24f235057c53409a0694","study_id":"64370a36d30bfa807bc7e43c"},{"rt":null,"stimulus":"\n\t\t\t<div class=\"flip_card\">\n\t\t\t\t<div class=\"flip_card_inner\">\n\t\t\t\t\t<div class=\"flip_card_front\">\n\t\t\t\t\t\t<img src=img/6.png>\n\t\t\t\t\t</div>\n\t\t\t\t\t<div class=\"flip_card_back\">\n\t\t\t\t\t\t<h2>How many constellations are there?</h2>\n\t\t\t\t\t\t<br>\n\t\t\t\t\t\t<p>Answer: <strong>88</strong></p>\n\t\t\t\t\t</div>\n\t\t\t\t</div>\n\t\t\t</div>\n\t\t\t","response":null,"trial_type":"html-keyboard-response","trial_index":84,"time_elapsed":602942,"internal_node_id":"0.0-3.0-2.19","prolific_id":"5dfda52097234ba7a779bea7","session_id":"643c24f235057c53409a0694","study_id":"64370a36d30bfa807bc7e43c"},{"rt":4909,"stimulus":"\n\t\t\t\t\t<div>\n\t\t\t\t\t<h2>Trial 20 is over</h2>\n\t\t\t\t\t<p>Press <span style=\"color: red\"><strong>any key</strong></span> to continue to the next trial</p>\n\t\t\t\t\t</div>\n\t\t\t\t","response":"enter","trial_type":"html-keyboard-response","trial_index":85,"time_elapsed":607852,"internal_node_id":"0.0-3.0-3.19","prolific_id":"5dfda52097234ba7a779bea7","session_id":"643c24f235057c53409a0694","study_id":"64370a36d30bfa807bc7e43c"},{"rt":10052,"response":{"prediction":"200"},"trial_type":"survey-text","trial_index":86,"time_elapsed":617908,"internal_node_id":"0.0-3.0-0.20","prolific_id":"5dfda52097234ba7a779bea7","session_id":"643c24f235057c53409a0694","study_id":"64370a36d30bfa807bc7e43c"},{"rt":7378,"response":{"prior knowledge":0,"curiosity":3},"accuracy":[],"trial_type":"survey","trial_index":87,"time_elapsed":625313,"internal_node_id":"0.0-3.0-1.20","prolific_id":"5dfda52097234ba7a779bea7","session_id":"643c24f235057c53409a0694","study_id":"64370a36d30bfa807bc7e43c"},{"rt":null,"stimulus":"\n\t\t\t<div class=\"flip_card\">\n\t\t\t\t<div class=\"flip_card_inner\">\n\t\t\t\t\t<div class=\"flip_card_front\">\n\t\t\t\t\t\t<img src=img/20.png>\n\t\t\t\t\t</div>\n\t\t\t\t\t<div class=\"flip_card_back\">\n\t\t\t\t\t\t<h2>How many single hand gestures, or mudras, are used in Indian classical dance?</h2>\n\t\t\t\t\t\t<br>\n\t\t\t\t\t\t<p>Answer: <strong>28</strong></p>\n\t\t\t\t\t</div>\n\t\t\t\t</div>\n\t\t\t</div>\n\t\t\t","response":null,"trial_type":"html-keyboard-response","trial_index":88,"time_elapsed":630316,"internal_node_id":"0.0-3.0-2.20","prolific_id":"5dfda52097234ba7a779bea7","session_id":"643c24f235057c53409a0694","study_id":"64370a36d30bfa807bc7e43c"},{"rt":2364,"stimulus":"\n\t\t\t\t\t<div>\n\t\t\t\t\t<h2>Trial 21 is over</h2>\n\t\t\t\t\t<p>Press <span style=\"color: red\"><strong>any key</strong></span> to continue to the next trial</p>\n\t\t\t\t\t</div>\n\t\t\t\t","response":"enter","trial_type":"html-keyboard-response","trial_index":89,"time_elapsed":632681,"internal_node_id":"0.0-3.0-3.20","prolific_id":"5dfda52097234ba7a779bea7","session_id":"643c24f235057c53409a0694","study_id":"64370a36d30bfa807bc7e43c"},{"rt":5936,"response":{"prediction":"4"},"trial_type":"survey-text","trial_index":90,"time_elapsed":638621,"internal_node_id":"0.0-3.0-0.21","prolific_id":"5dfda52097234ba7a779bea7","session_id":"643c24f235057c53409a0694","study_id":"64370a36d30bfa807bc7e43c"},{"rt":7868,"response":{"prior knowledge":1,"curiosity":3},"accuracy":[],"trial_type":"survey","trial_index":91,"time_elapsed":646515,"internal_node_id":"0.0-3.0-1.21","prolific_id":"5dfda52097234ba7a779bea7","session_id":"643c24f235057c53409a0694","study_id":"64370a36d30bfa807bc7e43c"},{"rt":null,"stimulus":"\n\t\t\t<div class=\"flip_card\">\n\t\t\t\t<div class=\"flip_card_inner\">\n\t\t\t\t\t<div class=\"flip_card_front\">\n\t\t\t\t\t\t<img src=img/4.png>\n\t\t\t\t\t</div>\n\t\t\t\t\t<div class=\"flip_card_back\">\n\t\t\t\t\t\t<h2>How many countries have territory in the Arctic Circle?</h2>\n\t\t\t\t\t\t<br>\n\t\t\t\t\t\t<p>Answer: <strong>8</strong></p>\n\t\t\t\t\t</div>\n\t\t\t\t</div>\n\t\t\t</div>\n\t\t\t","response":null,"trial_type":"html-keyboard-response","trial_index":92,"time_elapsed":651518,"internal_node_id":"0.0-3.0-2.21","prolific_id":"5dfda52097234ba7a779bea7","session_id":"643c24f235057c53409a0694","study_id":"64370a36d30bfa807bc7e43c"},{"rt":1839,"stimulus":"\n\t\t\t\t\t<div>\n\t\t\t\t\t<h2>Trial 22 is over</h2>\n\t\t\t\t\t<p>Press <span style=\"color: red\"><strong>any key</strong></span> to continue to the next trial</p>\n\t\t\t\t\t</div>\n\t\t\t\t","response":"enter","trial_type":"html-keyboard-response","trial_index":93,"time_elapsed":653358,"internal_node_id":"0.0-3.0-3.21","prolific_id":"5dfda52097234ba7a779bea7","session_id":"643c24f235057c53409a0694","study_id":"64370a36d30bfa807bc7e43c"},{"rt":9948,"response":{"prediction":"70"},"trial_type":"survey-text","trial_index":94,"time_elapsed":663305,"internal_node_id":"0.0-3.0-0.22","prolific_id":"5dfda52097234ba7a779bea7","session_id":"643c24f235057c53409a0694","study_id":"64370a36d30bfa807bc7e43c"},{"rt":6170,"response":{"prior knowledge":1,"curiosity":3},"accuracy":[],"trial_type":"survey","trial_index":95,"time_elapsed":669503,"internal_node_id":"0.0-3.0-1.22","prolific_id":"5dfda52097234ba7a779bea7","session_id":"643c24f235057c53409a0694","study_id":"64370a36d30bfa807bc7e43c"},{"rt":null,"stimulus":"\n\t\t\t<div class=\"flip_card\">\n\t\t\t\t<div class=\"flip_card_inner\">\n\t\t\t\t\t<div class=\"flip_card_front\">\n\t\t\t\t\t\t<img src=img/21.png>\n\t\t\t\t\t</div>\n\t\t\t\t\t<div class=\"flip_card_back\">\n\t\t\t\t\t\t<h2>How many main islands make up Japan?</h2>\n\t\t\t\t\t\t<br>\n\t\t\t\t\t\t<p>Answer: <strong>4</strong></p>\n\t\t\t\t\t</div>\n\t\t\t\t</div>\n\t\t\t</div>\n\t\t\t","response":null,"trial_type":"html-keyboard-response","trial_index":96,"time_elapsed":674508,"internal_node_id":"0.0-3.0-2.22","prolific_id":"5dfda52097234ba7a779bea7","session_id":"643c24f235057c53409a0694","study_id":"64370a36d30bfa807bc7e43c"},{"rt":2612,"stimulus":"\n\t\t\t\t\t<div>\n\t\t\t\t\t<h2>Trial 23 is over</h2>\n\t\t\t\t\t<p>Press <span style=\"color: red\"><strong>any key</strong></span> to continue to the next trial</p>\n\t\t\t\t\t</div>\n\t\t\t\t","response":"enter","trial_type":"html-keyboard-response","trial_index":97,"time_elapsed":677122,"internal_node_id":"0.0-3.0-3.22","prolific_id":"5dfda52097234ba7a779bea7","session_id":"643c24f235057c53409a0694","study_id":"64370a36d30bfa807bc7e43c"},{"rt":5690,"response":{"prediction":"5"},"trial_type":"survey-text","trial_index":98,"time_elapsed":682817,"internal_node_id":"0.0-3.0-0.23","prolific_id":"5dfda52097234ba7a779bea7","session_id":"643c24f235057c53409a0694","study_id":"64370a36d30bfa807bc7e43c"},{"rt":6722,"response":{"prior knowledge":1,"curiosity":2},"accuracy":[],"trial_type":"survey","trial_index":99,"time_elapsed":689569,"internal_node_id":"0.0-3.0-1.23","prolific_id":"5dfda52097234ba7a779bea7","session_id":"643c24f235057c53409a0694","study_id":"64370a36d30bfa807bc7e43c"},{"rt":null,"stimulus":"\n\t\t\t<div class=\"flip_card\">\n\t\t\t\t<div class=\"flip_card_inner\">\n\t\t\t\t\t<div class=\"flip_card_front\">\n\t\t\t\t\t\t<img src=img/18.png>\n\t\t\t\t\t</div>\n\t\t\t\t\t<div class=\"flip_card_back\">\n\t\t\t\t\t\t<h2>How many times a day do Muslims pray?</h2>\n\t\t\t\t\t\t<br>\n\t\t\t\t\t\t<p>Answer: <strong>5</strong></p>\n\t\t\t\t\t</div>\n\t\t\t\t</div>\n\t\t\t</div>\n\t\t\t","response":null,"trial_type":"html-keyboard-response","trial_index":100,"time_elapsed":694573,"internal_node_id":"0.0-3.0-2.23","prolific_id":"5dfda52097234ba7a779bea7","session_id":"643c24f235057c53409a0694","study_id":"64370a36d30bfa807bc7e43c"},{"rt":5172,"stimulus":"\n\t\t\t\t\t<div>\n\t\t\t\t\t<h2>Trial 24 is over</h2>\n\t\t\t\t\t<p>Press <span style=\"color: red\"><strong>any key</strong></span> to continue to the next trial</p>\n\t\t\t\t\t</div>\n\t\t\t\t","response":"enter","trial_type":"html-keyboard-response","trial_index":101,"time_elapsed":699746,"internal_node_id":"0.0-3.0-3.23","prolific_id":"5dfda52097234ba7a779bea7","session_id":"643c24f235057c53409a0694","study_id":"64370a36d30bfa807bc7e43c"},{"rt":8822,"response":{"prediction":"107"},"trial_type":"survey-text","trial_index":102,"time_elapsed":708572,"internal_node_id":"0.0-3.0-0.24","prolific_id":"5dfda52097234ba7a779bea7","session_id":"643c24f235057c53409a0694","study_id":"64370a36d30bfa807bc7e43c"},{"rt":5424,"response":{"prior knowledge":1,"curiosity":3},"accuracy":[],"trial_type":"survey","trial_index":103,"time_elapsed":714023,"internal_node_id":"0.0-3.0-1.24","prolific_id":"5dfda52097234ba7a779bea7","session_id":"643c24f235057c53409a0694","study_id":"64370a36d30bfa807bc7e43c"},{"rt":null,"stimulus":"\n\t\t\t<div class=\"flip_card\">\n\t\t\t\t<div class=\"flip_card_inner\">\n\t\t\t\t\t<div class=\"flip_card_front\">\n\t\t\t\t\t\t<img src=img/22.png>\n\t\t\t\t\t</div>\n\t\t\t\t\t<div class=\"flip_card_back\">\n\t\t\t\t\t\t<h2>How many countries are in Africa?</h2>\n\t\t\t\t\t\t<br>\n\t\t\t\t\t\t<p>Answer: <strong>54</strong></p>\n\t\t\t\t\t</div>\n\t\t\t\t</div>\n\t\t\t</div>\n\t\t\t","response":null,"trial_type":"html-keyboard-response","trial_index":104,"time_elapsed":719019,"internal_node_id":"0.0-3.0-2.24","prolific_id":"5dfda52097234ba7a779bea7","session_id":"643c24f235057c53409a0694","study_id":"64370a36d30bfa807bc7e43c"},{"rt":3984,"stimulus":"\n\t\t\t\t\t<div>\n\t\t\t\t\t<h2>Trial 25 is over</h2>\n\t\t\t\t\t<p>Press <span style=\"color: red\"><strong>any key</strong></span> to continue to the next trial</p>\n\t\t\t\t\t</div>\n\t\t\t\t","response":"enter","trial_type":"html-keyboard-response","trial_index":105,"time_elapsed":723004,"internal_node_id":"0.0-3.0-3.24","prolific_id":"5dfda52097234ba7a779bea7","session_id":"643c24f235057c53409a0694","study_id":"64370a36d30bfa807bc7e43c"},{"rt":6899,"response":{"prediction":"1882"},"trial_type":"survey-text","trial_index":106,"time_elapsed":729908,"internal_node_id":"0.0-3.0-0.25","prolific_id":"5dfda52097234ba7a779bea7","session_id":"643c24f235057c53409a0694","study_id":"64370a36d30bfa807bc7e43c"},{"rt":9369,"response":{"prior knowledge":1,"curiosity":4},"accuracy":[],"trial_type":"survey","trial_index":107,"time_elapsed":739304,"internal_node_id":"0.0-3.0-1.25","prolific_id":"5dfda52097234ba7a779bea7","session_id":"643c24f235057c53409a0694","study_id":"64370a36d30bfa807bc7e43c"},{"rt":null,"stimulus":"\n\t\t\t<div class=\"flip_card\">\n\t\t\t\t<div class=\"flip_card_inner\">\n\t\t\t\t\t<div class=\"flip_card_front\">\n\t\t\t\t\t\t<img src=img/3.png>\n\t\t\t\t\t</div>\n\t\t\t\t\t<div class=\"flip_card_back\">\n\t\t\t\t\t\t<h2>In what year was the Mexican artist Frida Kahlo born?</h2>\n\t\t\t\t\t\t<br>\n\t\t\t\t\t\t<p>Answer: <strong>1907</strong></p>\n\t\t\t\t\t</div>\n\t\t\t\t</div>\n\t\t\t</div>\n\t\t\t","response":null,"trial_type":"html-keyboard-response","trial_index":108,"time_elapsed":744305,"internal_node_id":"0.0-3.0-2.25","prolific_id":"5dfda52097234ba7a779bea7","session_id":"643c24f235057c53409a0694","study_id":"64370a36d30bfa807bc7e43c"},{"rt":3397,"stimulus":"\n\t\t\t\t\t<div>\n\t\t\t\t\t<h2>Trial 26 is over</h2>\n\t\t\t\t\t<p>Press <span style=\"color: red\"><strong>any key</strong></span> to continue to the next trial</p>\n\t\t\t\t\t</div>\n\t\t\t\t","response":"enter","trial_type":"html-keyboard-response","trial_index":109,"time_elapsed":747703,"internal_node_id":"0.0-3.0-3.25","prolific_id":"5dfda52097234ba7a779bea7","session_id":"643c24f235057c53409a0694","study_id":"64370a36d30bfa807bc7e43c"},{"rt":7480,"response":{"prediction":"125"},"trial_type":"survey-text","trial_index":110,"time_elapsed":755188,"internal_node_id":"0.0-3.0-0.26","prolific_id":"5dfda52097234ba7a779bea7","session_id":"643c24f235057c53409a0694","study_id":"64370a36d30bfa807bc7e43c"},{"rt":8319,"response":{"prior knowledge":0,"curiosity":3},"accuracy":[],"trial_type":"survey","trial_index":111,"time_elapsed":763535,"internal_node_id":"0.0-3.0-1.26","prolific_id":"5dfda52097234ba7a779bea7","session_id":"643c24f235057c53409a0694","study_id":"64370a36d30bfa807bc7e43c"},{"rt":null,"stimulus":"\n\t\t\t<div class=\"flip_card\">\n\t\t\t\t<div class=\"flip_card_inner\">\n\t\t\t\t\t<div class=\"flip_card_front\">\n\t\t\t\t\t\t<img src=img/26.png>\n\t\t\t\t\t</div>\n\t\t\t\t\t<div class=\"flip_card_back\">\n\t\t\t\t\t\t<h2>How many tones are in the Vietnamese language?</h2>\n\t\t\t\t\t\t<br>\n\t\t\t\t\t\t<p>Answer: <strong>6</strong></p>\n\t\t\t\t\t</div>\n\t\t\t\t</div>\n\t\t\t</div>\n\t\t\t","response":null,"trial_type":"html-keyboard-response","trial_index":112,"time_elapsed":768538,"internal_node_id":"0.0-3.0-2.26","prolific_id":"5dfda52097234ba7a779bea7","session_id":"643c24f235057c53409a0694","study_id":"64370a36d30bfa807bc7e43c"},{"rt":2079,"stimulus":"\n\t\t\t\t\t<div>\n\t\t\t\t\t<h2>Trial 27 is over</h2>\n\t\t\t\t\t<p>Press <span style=\"color: red\"><strong>any key</strong></span> to continue to the next trial</p>\n\t\t\t\t\t</div>\n\t\t\t\t","response":"enter","trial_type":"html-keyboard-response","trial_index":113,"time_elapsed":770618,"internal_node_id":"0.0-3.0-3.26","prolific_id":"5dfda52097234ba7a779bea7","session_id":"643c24f235057c53409a0694","study_id":"64370a36d30bfa807bc7e43c"},{"rt":28099,"response":{"prediction":"1300000000"},"trial_type":"survey-text","trial_index":114,"time_elapsed":798715,"internal_node_id":"0.0-3.0-0.27","prolific_id":"5dfda52097234ba7a779bea7","session_id":"643c24f235057c53409a0694","study_id":"64370a36d30bfa807bc7e43c"},{"rt":7840,"response":{"prior knowledge":0,"curiosity":3},"accuracy":[],"trial_type":"survey","trial_index":115,"time_elapsed":806581,"internal_node_id":"0.0-3.0-1.27","prolific_id":"5dfda52097234ba7a779bea7","session_id":"643c24f235057c53409a0694","study_id":"64370a36d30bfa807bc7e43c"},{"rt":null,"stimulus":"\n\t\t\t<div class=\"flip_card\">\n\t\t\t\t<div class=\"flip_card_inner\">\n\t\t\t\t\t<div class=\"flip_card_front\">\n\t\t\t\t\t\t<img src=img/28.png>\n\t\t\t\t\t</div>\n\t\t\t\t\t<div class=\"flip_card_back\">\n\t\t\t\t\t\t<h2>How many people are vegan globally (in millions)?</h2>\n\t\t\t\t\t\t<br>\n\t\t\t\t\t\t<p>Answer: <strong>79</strong></p>\n\t\t\t\t\t</div>\n\t\t\t\t</div>\n\t\t\t</div>\n\t\t\t","response":null,"trial_type":"html-keyboard-response","trial_index":116,"time_elapsed":811585,"internal_node_id":"0.0-3.0-2.27","prolific_id":"5dfda52097234ba7a779bea7","session_id":"643c24f235057c53409a0694","study_id":"64370a36d30bfa807bc7e43c"},{"rt":1839,"stimulus":"\n\t\t\t\t\t<div>\n\t\t\t\t\t<h2>Trial 28 is over</h2>\n\t\t\t\t\t<p>Press <span style=\"color: red\"><strong>any key</strong></span> to continue to the next trial</p>\n\t\t\t\t\t</div>\n\t\t\t\t","response":"enter","trial_type":"html-keyboard-response","trial_index":117,"time_elapsed":813425,"internal_node_id":"0.0-3.0-3.27","prolific_id":"5dfda52097234ba7a779bea7","session_id":"643c24f235057c53409a0694","study_id":"64370a36d30bfa807bc7e43c"},{"rt":10384,"response":{"prediction":"14"},"trial_type":"survey-text","trial_index":118,"time_elapsed":823814,"internal_node_id":"0.0-3.0-0.28","prolific_id":"5dfda52097234ba7a779bea7","session_id":"643c24f235057c53409a0694","study_id":"64370a36d30bfa807bc7e43c"},{"rt":9503,"response":{"prior knowledge":0,"curiosity":3},"accuracy":[],"trial_type":"survey","trial_index":119,"time_elapsed":833344,"internal_node_id":"0.0-3.0-1.28","prolific_id":"5dfda52097234ba7a779bea7","session_id":"643c24f235057c53409a0694","study_id":"64370a36d30bfa807bc7e43c"},{"rt":null,"stimulus":"\n\t\t\t<div class=\"flip_card\">\n\t\t\t\t<div class=\"flip_card_inner\">\n\t\t\t\t\t<div class=\"flip_card_front\">\n\t\t\t\t\t\t<img src=img/19.png>\n\t\t\t\t\t</div>\n\t\t\t\t\t<div class=\"flip_card_back\">\n\t\t\t\t\t\t<h2>How many native species of kangaroos are found in Australia?</h2>\n\t\t\t\t\t\t<br>\n\t\t\t\t\t\t<p>Answer: <strong>4</strong></p>\n\t\t\t\t\t</div>\n\t\t\t\t</div>\n\t\t\t</div>\n\t\t\t","response":null,"trial_type":"html-keyboard-response","trial_index":120,"time_elapsed":838343,"internal_node_id":"0.0-3.0-2.28","prolific_id":"5dfda52097234ba7a779bea7","session_id":"643c24f235057c53409a0694","study_id":"64370a36d30bfa807bc7e43c"},{"rt":2702,"stimulus":"\n\t\t\t\t\t<div>\n\t\t\t\t\t<h2>Trial 29 is over</h2>\n\t\t\t\t\t<p>Press <span style=\"color: red\"><strong>any key</strong></span> to continue to the next trial</p>\n\t\t\t\t\t</div>\n\t\t\t\t","response":"enter","trial_type":"html-keyboard-response","trial_index":121,"time_elapsed":841045,"internal_node_id":"0.0-3.0-3.28","prolific_id":"5dfda52097234ba7a779bea7","session_id":"643c24f235057c53409a0694","study_id":"64370a36d30bfa807bc7e43c"},{"rt":6270,"response":{"prediction":"8"},"trial_type":"survey-text","trial_index":122,"time_elapsed":847320,"internal_node_id":"0.0-3.0-0.29","prolific_id":"5dfda52097234ba7a779bea7","session_id":"643c24f235057c53409a0694","study_id":"64370a36d30bfa807bc7e43c"},{"rt":10042,"response":{"prior knowledge":0,"curiosity":3},"accuracy":[],"trial_type":"survey","trial_index":123,"time_elapsed":857390,"internal_node_id":"0.0-3.0-1.29","prolific_id":"5dfda52097234ba7a779bea7","session_id":"643c24f235057c53409a0694","study_id":"64370a36d30bfa807bc7e43c"},{"rt":null,"stimulus":"\n\t\t\t<div class=\"flip_card\">\n\t\t\t\t<div class=\"flip_card_inner\">\n\t\t\t\t\t<div class=\"flip_card_front\">\n\t\t\t\t\t\t<img src=img/30.png>\n\t\t\t\t\t</div>\n\t\t\t\t\t<div class=\"flip_card_back\">\n\t\t\t\t\t\t<h2>How many lines are in a sonnet?</h2>\n\t\t\t\t\t\t<br>\n\t\t\t\t\t\t<p>Answer: <strong>14</strong></p>\n\t\t\t\t\t</div>\n\t\t\t\t</div>\n\t\t\t</div>\n\t\t\t","response":null,"trial_type":"html-keyboard-response","trial_index":124,"time_elapsed":862395,"internal_node_id":"0.0-3.0-2.29","prolific_id":"5dfda52097234ba7a779bea7","session_id":"643c24f235057c53409a0694","study_id":"64370a36d30bfa807bc7e43c"},{"rt":2520,"stimulus":"\n\t\t\t\t\t<div>\n\t\t\t\t\t<h2>Trial 30 is over</h2>\n\t\t\t\t\t<p>Press <span style=\"color: red\"><strong>any key</strong></span> to continue to the next trial</p>\n\t\t\t\t\t</div>\n\t\t\t\t","response":"enter","trial_type":"html-keyboard-response","trial_index":125,"time_elapsed":864916,"internal_node_id":"0.0-3.0-3.29","prolific_id":"5dfda52097234ba7a779bea7","session_id":"643c24f235057c53409a0694","study_id":"64370a36d30bfa807bc7e43c"},{"rt":17471,"stimulus":"\n\t\t\t<h2>Good job! You've finished the 30 trials:p</h2>\n\t\t\t<p>In the next session, you will see two cards on the screen in each trial.</p>\n\t\t\t<p>On one card is a pattern that you have seen before in the experiment,\n\t\t\t\tand on the other card is one you have not seen.</p><br>\n\t\t\t<p>Your task is to choose the one you think you <em>have</em> seen before for every trial.</p>\n\t\t\t<p>Press '<span style=\"color: red;\"><strong>F</strong></span>' to choose the card on the left,\n\t\t\t\tand '<span style=\"color: red;\"><strong>J</strong></span>' to choose the card on the right.</p>\n\t\t\t<p>Have fun!</p>\n\t\t\t<br>\n\t\t\t<p>The trials will begin in 30 seconds</p>\n\t\t\t","response":"f","trial_type":"html-keyboard-response","trial_index":126,"time_elapsed":882388,"internal_node_id":"0.0-4.0","prolific_id":"5dfda52097234ba7a779bea7","session_id":"643c24f235057c53409a0694","study_id":"64370a36d30bfa807bc7e43c"},{"rt":2451,"stimulus":"\n\t\t\t\t\t\t<div class=\"two_card_container\">\n\t\t\t\t\t\t<div class=\"card_container\">\n\t\t\t\t\t\t<img src=img/36.png>\n\t\t\t\t\t\t</div>\n\n\t\t\t\t\t\t<div class=\"card_container\">\n\t\t\t\t\t\t<img src=img/15.png>\n\t\t\t\t\t\t</div>","response":"f","task":"response","correct_response":"j","trial_type":"html-keyboard-response","trial_index":127,"time_elapsed":884842,"internal_node_id":"0.0-5.0-0.0","prolific_id":"5dfda52097234ba7a779bea7","session_id":"643c24f235057c53409a0694","study_id":"64370a36d30bfa807bc7e43c","correct":false},{"rt":null,"stimulus":"\n\t\t\t\t\t<p>Wrong answer</p>\n\t\t\t\t\t","response":null,"trial_type":"html-keyboard-response","trial_index":128,"time_elapsed":885846,"internal_node_id":"0.0-5.0-1.0","prolific_id":"5dfda52097234ba7a779bea7","session_id":"643c24f235057c53409a0694","study_id":"64370a36d30bfa807bc7e43c"},{"rt":1978,"stimulus":"\n\t\t\t\t\t\t<div class=\"two_card_container\">\n\t\t\t\t\t\t<div class=\"card_container\">\n\t\t\t\t\t\t<img src=img/35.png>\n\t\t\t\t\t\t</div>\n\n\t\t\t\t\t\t<div class=\"card_container\">\n\t\t\t\t\t\t<img src=img/22.png>\n\t\t\t\t\t\t</div>","response":"j","task":"response","correct_response":"j","trial_type":"html-keyboard-response","trial_index":129,"time_elapsed":887825,"internal_node_id":"0.0-5.0-0.1","prolific_id":"5dfda52097234ba7a779bea7","session_id":"643c24f235057c53409a0694","study_id":"64370a36d30bfa807bc7e43c","correct":true},{"rt":null,"stimulus":"\n\t\t\t\t\t<p>Correct!</p>\n\t\t\t\t\t","response":null,"trial_type":"html-keyboard-response","trial_index":130,"time_elapsed":888828,"internal_node_id":"0.0-5.0-1.1","prolific_id":"5dfda52097234ba7a779bea7","session_id":"643c24f235057c53409a0694","study_id":"64370a36d30bfa807bc7e43c"},{"rt":2737,"stimulus":"\n\t\t\t\t\t\t<div class=\"two_card_container\">\n\t\t\t\t\t\t<div class=\"card_container\">\n\t\t\t\t\t\t<img src=img/14.png>\n\t\t\t\t\t\t</div>\n\n\t\t\t\t\t\t<div class=\"card_container\">\n\t\t\t\t\t\t<img src=img/34.png>\n\t\t\t\t\t\t</div>","response":"f","task":"response","correct_response":"f","trial_type":"html-keyboard-response","trial_index":131,"time_elapsed":891567,"internal_node_id":"0.0-5.0-0.2","prolific_id":"5dfda52097234ba7a779bea7","session_id":"643c24f235057c53409a0694","study_id":"64370a36d30bfa807bc7e43c","correct":true},{"rt":null,"stimulus":"\n\t\t\t\t\t<p>Correct!</p>\n\t\t\t\t\t","response":null,"trial_type":"html-keyboard-response","trial_index":132,"time_elapsed":892569,"internal_node_id":"0.0-5.0-1.2","prolific_id":"5dfda52097234ba7a779bea7","session_id":"643c24f235057c53409a0694","study_id":"64370a36d30bfa807bc7e43c"},{"rt":1554,"stimulus":"\n\t\t\t\t\t\t<div class=\"two_card_container\">\n\t\t\t\t\t\t<div class=\"card_container\">\n\t\t\t\t\t\t<img src=img/38.png>\n\t\t\t\t\t\t</div>\n\n\t\t\t\t\t\t<div class=\"card_container\">\n\t\t\t\t\t\t<img src=img/30.png>\n\t\t\t\t\t\t</div>","response":"j","task":"response","correct_response":"j","trial_type":"html-keyboard-response","trial_index":133,"time_elapsed":894124,"internal_node_id":"0.0-5.0-0.3","prolific_id":"5dfda52097234ba7a779bea7","session_id":"643c24f235057c53409a0694","study_id":"64370a36d30bfa807bc7e43c","correct":true},{"rt":null,"stimulus":"\n\t\t\t\t\t<p>Correct!</p>\n\t\t\t\t\t","response":null,"trial_type":"html-keyboard-response","trial_index":134,"time_elapsed":895119,"internal_node_id":"0.0-5.0-1.3","prolific_id":"5dfda52097234ba7a779bea7","session_id":"643c24f235057c53409a0694","study_id":"64370a36d30bfa807bc7e43c"},{"rt":1977,"stimulus":"\n\t\t\t\t\t\t<div class=\"two_card_container\">\n\t\t\t\t\t\t<div class=\"card_container\">\n\t\t\t\t\t\t<img src=img/12.png>\n\t\t\t\t\t\t</div>\n\n\t\t\t\t\t\t<div class=\"card_container\">\n\t\t\t\t\t\t<img src=img/33.png>\n\t\t\t\t\t\t</div>","response":"f","task":"response","correct_response":"f","trial_type":"html-keyboard-response","trial_index":135,"time_elapsed":897099,"internal_node_id":"0.0-5.0-0.4","prolific_id":"5dfda52097234ba7a779bea7","session_id":"643c24f235057c53409a0694","study_id":"64370a36d30bfa807bc7e43c","correct":true},{"rt":null,"stimulus":"\n\t\t\t\t\t<p>Correct!</p>\n\t\t\t\t\t","response":null,"trial_type":"html-keyboard-response","trial_index":136,"time_elapsed":898102,"internal_node_id":"0.0-5.0-1.4","prolific_id":"5dfda52097234ba7a779bea7","session_id":"643c24f235057c53409a0694","study_id":"64370a36d30bfa807bc7e43c"},{"rt":1148,"stimulus":"\n\t\t\t\t\t\t<div class=\"two_card_container\">\n\t\t\t\t\t\t<div class=\"card_container\">\n\t\t\t\t\t\t<img src=img/40.png>\n\t\t\t\t\t\t</div>\n\n\t\t\t\t\t\t<div class=\"card_container\">\n\t\t\t\t\t\t<img src=img/21.png>\n\t\t\t\t\t\t</div>","response":"j","task":"response","correct_response":"j","trial_type":"html-keyboard-response","trial_index":137,"time_elapsed":899251,"internal_node_id":"0.0-5.0-0.5","prolific_id":"5dfda52097234ba7a779bea7","session_id":"643c24f235057c53409a0694","study_id":"64370a36d30bfa807bc7e43c","correct":true},{"rt":null,"stimulus":"\n\t\t\t\t\t<p>Correct!</p>\n\t\t\t\t\t","response":null,"trial_type":"html-keyboard-response","trial_index":138,"time_elapsed":900253,"internal_node_id":"0.0-5.0-1.5","prolific_id":"5dfda52097234ba7a779bea7","session_id":"643c24f235057c53409a0694","study_id":"64370a36d30bfa807bc7e43c"},{"rt":1350,"stimulus":"\n\t\t\t\t\t\t<div class=\"two_card_container\">\n\t\t\t\t\t\t<div class=\"card_container\">\n\t\t\t\t\t\t<img src=img/18.png>\n\t\t\t\t\t\t</div>\n\n\t\t\t\t\t\t<div class=\"card_container\">\n\t\t\t\t\t\t<img src=img/31.png>\n\t\t\t\t\t\t</div>","response":"f","task":"response","correct_response":"f","trial_type":"html-keyboard-response","trial_index":139,"time_elapsed":901605,"internal_node_id":"0.0-5.0-0.6","prolific_id":"5dfda52097234ba7a779bea7","session_id":"643c24f235057c53409a0694","study_id":"64370a36d30bfa807bc7e43c","correct":true},{"rt":null,"stimulus":"\n\t\t\t\t\t<p>Correct!</p>\n\t\t\t\t\t","response":null,"trial_type":"html-keyboard-response","trial_index":140,"time_elapsed":902609,"internal_node_id":"0.0-5.0-1.6","prolific_id":"5dfda52097234ba7a779bea7","session_id":"643c24f235057c53409a0694","study_id":"64370a36d30bfa807bc7e43c"},{"rt":1518,"stimulus":"\n\t\t\t\t\t\t<div class=\"two_card_container\">\n\t\t\t\t\t\t<div class=\"card_container\">\n\t\t\t\t\t\t<img src=img/7.png>\n\t\t\t\t\t\t</div>\n\n\t\t\t\t\t\t<div class=\"card_container\">\n\t\t\t\t\t\t<img src=img/32.png>\n\t\t\t\t\t\t</div>","response":"f","task":"response","correct_response":"f","trial_type":"html-keyboard-response","trial_index":141,"time_elapsed":904131,"internal_node_id":"0.0-5.0-0.7","prolific_id":"5dfda52097234ba7a779bea7","session_id":"643c24f235057c53409a0694","study_id":"64370a36d30bfa807bc7e43c","correct":true},{"rt":null,"stimulus":"\n\t\t\t\t\t<p>Correct!</p>\n\t\t\t\t\t","response":null,"trial_type":"html-keyboard-response","trial_index":142,"time_elapsed":905133,"internal_node_id":"0.0-5.0-1.7","prolific_id":"5dfda52097234ba7a779bea7","session_id":"643c24f235057c53409a0694","study_id":"64370a36d30bfa807bc7e43c"},{"rt":2211,"stimulus":"\n\t\t\t\t\t\t<div class=\"two_card_container\">\n\t\t\t\t\t\t<div class=\"card_container\">\n\t\t\t\t\t\t<img src=img/39.png>\n\t\t\t\t\t\t</div>\n\n\t\t\t\t\t\t<div class=\"card_container\">\n\t\t\t\t\t\t<img src=img/9.png>\n\t\t\t\t\t\t</div>","response":"j","task":"response","correct_response":"j","trial_type":"html-keyboard-response","trial_index":143,"time_elapsed":907346,"internal_node_id":"0.0-5.0-0.8","prolific_id":"5dfda52097234ba7a779bea7","session_id":"643c24f235057c53409a0694","study_id":"64370a36d30bfa807bc7e43c","correct":true},{"rt":null,"stimulus":"\n\t\t\t\t\t<p>Correct!</p>\n\t\t\t\t\t","response":null,"trial_type":"html-keyboard-response","trial_index":144,"time_elapsed":908349,"internal_node_id":"0.0-5.0-1.8","prolific_id":"5dfda52097234ba7a779bea7","session_id":"643c24f235057c53409a0694","study_id":"64370a36d30bfa807bc7e43c"},{"rt":1120,"stimulus":"\n\t\t\t\t\t\t<div class=\"two_card_container\">\n\t\t\t\t\t\t<div class=\"card_container\">\n\t\t\t\t\t\t<img src=img/19.png>\n\t\t\t\t\t\t</div>\n\n\t\t\t\t\t\t<div class=\"card_container\">\n\t\t\t\t\t\t<img src=img/37.png>\n\t\t\t\t\t\t</div>","response":"f","task":"response","correct_response":"f","trial_type":"html-keyboard-response","trial_index":145,"time_elapsed":909470,"internal_node_id":"0.0-5.0-0.9","prolific_id":"5dfda52097234ba7a779bea7","session_id":"643c24f235057c53409a0694","study_id":"64370a36d30bfa807bc7e43c","correct":true},{"rt":null,"stimulus":"\n\t\t\t\t\t<p>Correct!</p>\n\t\t\t\t\t","response":null,"trial_type":"html-keyboard-response","trial_index":146,"time_elapsed":910494,"internal_node_id":"0.0-5.0-1.9","prolific_id":"5dfda52097234ba7a779bea7","session_id":"643c24f235057c53409a0694","study_id":"64370a36d30bfa807bc7e43c"},{"rt":null,"stimulus":"\n\t\t\t<h2>Good job :p</h2>\n\t\t\t<p>In the next session, you will see a trivia question on the screen in each trial.</p>\n\t\t\t<p>Each of these trivia questions is chosen from the questions you have already seen in the first session of the experiment.</p><br>\n\t\t\t<p>Your task is to answer the trivia question based on what you remember as accurately as you can.</p>\n\t\t\t<p>Have fun!</p>\n\t\t\t<br>\n\t\t\t<p>The trials will begin in 30 seconds</p>\n\t\t\t","response":null,"trial_type":"html-keyboard-response","trial_index":147,"time_elapsed":940496,"internal_node_id":"0.0-6.0","prolific_id":"5dfda52097234ba7a779bea7","session_id":"643c24f235057c53409a0694","study_id":"64370a36d30bfa807bc7e43c"},{"rt":8605,"response":{"answer":"28"},"task":"response","correct_response":"28","trial_type":"survey-text","trial_index":148,"time_elapsed":949107,"internal_node_id":"0.0-7.0-0.0","prolific_id":"5dfda52097234ba7a779bea7","session_id":"643c24f235057c53409a0694","study_id":"64370a36d30bfa807bc7e43c","difference":0},{"rt":null,"stimulus":"<h2>The correct answer is 28.</h2><p>Your answer was different from the answer by 0.</p><p>You got the right answer. Amazing work!</p>","response":null,"trial_type":"html-keyboard-response","trial_index":149,"time_elapsed":951609,"internal_node_id":"0.0-7.0-1.0","prolific_id":"5dfda52097234ba7a779bea7","session_id":"643c24f235057c53409a0694","study_id":"64370a36d30bfa807bc7e43c"},{"rt":5503,"response":{"answer":"79"},"task":"response","correct_response":"79","trial_type":"survey-text","trial_index":150,"time_elapsed":957113,"internal_node_id":"0.0-7.0-0.1","prolific_id":"5dfda52097234ba7a779bea7","session_id":"643c24f235057c53409a0694","study_id":"64370a36d30bfa807bc7e43c","difference":0},{"rt":null,"stimulus":"<h2>The correct answer is 79.</h2><p>Your answer was different from the answer by 0.</p><p>You got the right answer. Amazing work!</p>","response":null,"trial_type":"html-keyboard-response","trial_index":151,"time_elapsed":959615,"internal_node_id":"0.0-7.0-1.1","prolific_id":"5dfda52097234ba7a779bea7","session_id":"643c24f235057c53409a0694","study_id":"64370a36d30bfa807bc7e43c"},{"rt":5344,"response":{"answer":"14"},"task":"response","correct_response":"14","trial_type":"survey-text","trial_index":152,"time_elapsed":964963,"internal_node_id":"0.0-7.0-0.2","prolific_id":"5dfda52097234ba7a779bea7","session_id":"643c24f235057c53409a0694","study_id":"64370a36d30bfa807bc7e43c","difference":0},{"rt":null,"stimulus":"<h2>The correct answer is 14.</h2><p>Your answer was different from the answer by 0.</p><p>You got the right answer. Amazing work!</p>","response":null,"trial_type":"html-keyboard-response","trial_index":153,"time_elapsed":967467,"internal_node_id":"0.0-7.0-1.2","prolific_id":"5dfda52097234ba7a779bea7","session_id":"643c24f235057c53409a0694","study_id":"64370a36d30bfa807bc7e43c"},{"rt":4253,"response":{"answer":"4"},"task":"response","correct_response":"4","trial_type":"survey-text","trial_index":154,"time_elapsed":971728,"internal_node_id":"0.0-7.0-0.3","prolific_id":"5dfda52097234ba7a779bea7","session_id":"643c24f235057c53409a0694","study_id":"64370a36d30bfa807bc7e43c","difference":0},{"rt":null,"stimulus":"<h2>The correct answer is 4.</h2><p>Your answer was different from the answer by 0.</p><p>You got the right answer. Amazing work!</p>","response":null,"trial_type":"html-keyboard-response","trial_index":155,"time_elapsed":974231,"internal_node_id":"0.0-7.0-1.3","prolific_id":"5dfda52097234ba7a779bea7","session_id":"643c24f235057c53409a0694","study_id":"64370a36d30bfa807bc7e43c"},{"rt":7235,"response":{"answer":"25"},"task":"response","correct_response":"21","trial_type":"survey-text","trial_index":156,"time_elapsed":981472,"internal_node_id":"0.0-7.0-0.4","prolific_id":"5dfda52097234ba7a779bea7","session_id":"643c24f235057c53409a0694","study_id":"64370a36d30bfa807bc7e43c","difference":19},{"rt":null,"stimulus":"<h2>The correct answer is 21.</h2><p>Your answer was different from the answer by 4.</p><p>A pretty good job indeed.</p>","response":null,"trial_type":"html-keyboard-response","trial_index":157,"time_elapsed":983976,"internal_node_id":"0.0-7.0-1.4","prolific_id":"5dfda52097234ba7a779bea7","session_id":"643c24f235057c53409a0694","study_id":"64370a36d30bfa807bc7e43c"},{"rt":11110,"response":{"answer":"21"},"task":"response","correct_response":"12","trial_type":"survey-text","trial_index":158,"time_elapsed":995092,"internal_node_id":"0.0-7.0-0.5","prolific_id":"5dfda52097234ba7a779bea7","session_id":"643c24f235057c53409a0694","study_id":"64370a36d30bfa807bc7e43c","difference":75},{"rt":null,"stimulus":"<h2>The correct answer is 12.</h2><p>Your answer was different from the answer by 9.</p><p>Not even close... do better next time!</p>","response":null,"trial_type":"html-keyboard-response","trial_index":159,"time_elapsed":997595,"internal_node_id":"0.0-7.0-1.5","prolific_id":"5dfda52097234ba7a779bea7","session_id":"643c24f235057c53409a0694","study_id":"64370a36d30bfa807bc7e43c"},{"rt":6357,"response":{"answer":"1907"},"task":"response","correct_response":"1907","trial_type":"survey-text","trial_index":160,"time_elapsed":1003959,"internal_node_id":"0.0-7.0-0.6","prolific_id":"5dfda52097234ba7a779bea7","session_id":"643c24f235057c53409a0694","study_id":"64370a36d30bfa807bc7e43c","difference":0},{"rt":null,"stimulus":"<h2>The correct answer is 1907.</h2><p>Your answer was different from the answer by 0.</p><p>You got the right answer. Amazing work!</p>","response":null,"trial_type":"html-keyboard-response","trial_index":161,"time_elapsed":1006464,"internal_node_id":"0.0-7.0-1.6","prolific_id":"5dfda52097234ba7a779bea7","session_id":"643c24f235057c53409a0694","study_id":"64370a36d30bfa807bc7e43c"},{"rt":21573,"response":{"answer":"79412"},"task":"response","correct_response":"13171","trial_type":"survey-text","trial_index":162,"time_elapsed":1028042,"internal_node_id":"0.0-7.0-0.7","prolific_id":"5dfda52097234ba7a779bea7","session_id":"643c24f235057c53409a0694","study_id":"64370a36d30bfa807bc7e43c","difference":100},{"rt":null,"stimulus":"<h2>The correct answer is 13171.</h2><p>Your answer was different from the answer by 66241.</p><p>Not even close... do better next time!</p>","response":null,"trial_type":"html-keyboard-response","trial_index":163,"time_elapsed":1030546,"internal_node_id":"0.0-7.0-1.7","prolific_id":"5dfda52097234ba7a779bea7","session_id":"643c24f235057c53409a0694","study_id":"64370a36d30bfa807bc7e43c"},{"rt":5367,"response":{"answer":"108"},"task":"response","correct_response":"108","trial_type":"survey-text","trial_index":164,"time_elapsed":1035920,"internal_node_id":"0.0-7.0-0.8","prolific_id":"5dfda52097234ba7a779bea7","session_id":"643c24f235057c53409a0694","study_id":"64370a36d30bfa807bc7e43c","difference":0},{"rt":null,"stimulus":"<h2>The correct answer is 108.</h2><p>Your answer was different from the answer by 0.</p><p>You got the right answer. Amazing work!</p>","response":null,"trial_type":"html-keyboard-response","trial_index":165,"time_elapsed":1038422,"internal_node_id":"0.0-7.0-1.8","prolific_id":"5dfda52097234ba7a779bea7","session_id":"643c24f235057c53409a0694","study_id":"64370a36d30bfa807bc7e43c"},{"rt":6911,"response":{"answer":"73"},"task":"response","correct_response":"73","trial_type":"survey-text","trial_index":166,"time_elapsed":1045338,"internal_node_id":"0.0-7.0-0.9","prolific_id":"5dfda52097234ba7a779bea7","session_id":"643c24f235057c53409a0694","study_id":"64370a36d30bfa807bc7e43c","difference":0},{"rt":null,"stimulus":"<h2>The correct answer is 73.</h2><p>Your answer was different from the answer by 0.</p><p>You got the right answer. Amazing work!</p>","response":null,"trial_type":"html-keyboard-response","trial_index":167,"time_elapsed":1047842,"internal_node_id":"0.0-7.0-1.9","prolific_id":"5dfda52097234ba7a779bea7","session_id":"643c24f235057c53409a0694","study_id":"64370a36d30bfa807bc7e43c"}]