[{"success":true,"timeout":false,"failed_images":[],"failed_audio":[],"failed_video":[],"trial_type":"preload","trial_index":0,"time_elapsed":2929,"internal_node_id":"0.0-0.0","prolific_id":"5e0e49cfbf3d4e5b0925b2a3","session_id":"643c252673702c496c141a03","study_id":"64370a36d30bfa807bc7e43c"},{"rt":9057,"stimulus":"\n\t\t\t\t\t<p>Welcome and thank you for participating in this study!</p>\n\t\t\t\t\t<p>In each trial, you will be given a trivia question and then be asked to:</p><br>\n\t\t\t\t\t<div class=\"list\">\n\t\t\t\t\t<p>1) Predict the answer</p>\n\t\t\t\t\t<p>2) Rate how much you already know about the topic</p>\n\t\t\t\t\t<p>3) Rate how much you want to know the answer</p>\n\t\t\t\t\t</div>\n\t\t\t\t\t<br>\n\t\t\t\t\t<p>Then, you will see a card that flips over to reveal the answer.</p>\n\t\t\t\t\t<br>\n\t\t\t\t\t<p>Let's try a practice round. Press <span style=\"color: red\"><strong>any key</strong></span> to move to the next slide</p>\n\t\t\t\t\t","response":"m","trial_type":"html-keyboard-response","trial_index":1,"time_elapsed":11987,"internal_node_id":"0.0-1.0","prolific_id":"5e0e49cfbf3d4e5b0925b2a3","session_id":"643c252673702c496c141a03","study_id":"64370a36d30bfa807bc7e43c"},{"rt":9085,"response":{"practice prediction":"2"},"task":"practice","trial_type":"survey-text","trial_index":2,"time_elapsed":21098,"internal_node_id":"0.0-2.0-0.0","prolific_id":"5e0e49cfbf3d4e5b0925b2a3","session_id":"643c252673702c496c141a03","study_id":"64370a36d30bfa807bc7e43c"},{"rt":10101,"response":{"practice":5},"accuracy":[],"trial_type":"survey","trial_index":3,"time_elapsed":31255,"internal_node_id":"0.0-2.0-1.0","prolific_id":"5e0e49cfbf3d4e5b0925b2a3","session_id":"643c252673702c496c141a03","study_id":"64370a36d30bfa807bc7e43c"},{"rt":null,"stimulus":"\n\t\t\t\t<div class=\"flip_card\">\n\t\t\t\t\t<div class=\"flip_card_inner\">\n\t\t\t\t\t\t<div class=\"flip_card_front\">\n\t\t\t\t\t\t\t<img src=img/practice.png>\n\t\t\t\t\t\t</div>\n\t\t\t\t\t\t<div class=\"flip_card_back\">\n\t\t\t\t\t\t\t<h2>\"How many legs does a lobster have?\"</h2>\n\t\t\t\t\t\t    <br>\n\t\t\t\t\t\t    <p>Answer: <strong>\"10\"</strong></p>\n\t\t\t\t\t    </div>\n\t\t\t\t    </div>\n\t\t\t    </div>\n\t\t\t\t","response":null,"trial_type":"html-keyboard-response","trial_index":4,"time_elapsed":36264,"internal_node_id":"0.0-2.0-2.0","prolific_id":"5e0e49cfbf3d4e5b0925b2a3","session_id":"643c252673702c496c141a03","study_id":"64370a36d30bfa807bc7e43c"},{"rt":14437,"stimulus":"\n\t\t\t\t\t<div>\n\t\t\t\t\t<h2>The practice round is over</h2>\n\t\t\t\t\t<p>Press <span style=\"color: red\"><strong>any key</strong></span> to continue to the actual trials</p>\n\t\t\t\t\t<p>Good Luck!</p>\n\t\t\t\t\t</div>\n\t\t\t\t\t","response":"n","trial_type":"html-keyboard-response","trial_index":5,"time_elapsed":50702,"internal_node_id":"0.0-2.0-3.0","prolific_id":"5e0e49cfbf3d4e5b0925b2a3","session_id":"643c252673702c496c141a03","study_id":"64370a36d30bfa807bc7e43c"},{"rt":20663,"response":{"prediction":"15"},"trial_type":"survey-text","trial_index":6,"time_elapsed":71369,"internal_node_id":"0.0-3.0-0.0","prolific_id":"5e0e49cfbf3d4e5b0925b2a3","session_id":"643c252673702c496c141a03","study_id":"64370a36d30bfa807bc7e43c"},{"rt":5426,"response":{"prior knowledge":1,"curiosity":5},"accuracy":[],"trial_type":"survey","trial_index":7,"time_elapsed":76823,"internal_node_id":"0.0-3.0-1.0","prolific_id":"5e0e49cfbf3d4e5b0925b2a3","session_id":"643c252673702c496c141a03","study_id":"64370a36d30bfa807bc7e43c"},{"rt":null,"stimulus":"\n\t\t\t<div class=\"flip_card\">\n\t\t\t\t<div class=\"flip_card_inner\">\n\t\t\t\t\t<div class=\"flip_card_front\">\n\t\t\t\t\t\t<img src=img/16.png>\n\t\t\t\t\t</div>\n\t\t\t\t\t<div class=\"flip_card_back\">\n\t\t\t\t\t\t<h2>How many countries in Africa have French as the official language?</h2>\n\t\t\t\t\t\t<br>\n\t\t\t\t\t\t<p>Answer: <strong>21</strong></p>\n\t\t\t\t\t</div>\n\t\t\t\t</div>\n\t\t\t</div>\n\t\t\t","response":null,"trial_type":"html-keyboard-response","trial_index":8,"time_elapsed":81825,"internal_node_id":"0.0-3.0-2.0","prolific_id":"5e0e49cfbf3d4e5b0925b2a3","session_id":"643c252673702c496c141a03","study_id":"64370a36d30bfa807bc7e43c"},{"rt":3778,"stimulus":"\n\t\t\t\t\t<div>\n\t\t\t\t\t<h2>Trial 1 is over</h2>\n\t\t\t\t\t<p>Press <span style=\"color: red\"><strong>any key</strong></span> to continue to the next trial</p>\n\t\t\t\t\t</div>\n\t\t\t\t","response":"r","trial_type":"html-keyboard-response","trial_index":9,"time_elapsed":85604,"internal_node_id":"0.0-3.0-3.0","prolific_id":"5e0e49cfbf3d4e5b0925b2a3","session_id":"643c252673702c496c141a03","study_id":"64370a36d30bfa807bc7e43c"},{"rt":21834,"response":{"prediction":"1902"},"trial_type":"survey-text","trial_index":10,"time_elapsed":107440,"internal_node_id":"0.0-3.0-0.1","prolific_id":"5e0e49cfbf3d4e5b0925b2a3","session_id":"643c252673702c496c141a03","study_id":"64370a36d30bfa807bc7e43c"},{"rt":5138,"response":{"prior knowledge":0,"curiosity":5},"accuracy":[],"trial_type":"survey","trial_index":11,"time_elapsed":112602,"internal_node_id":"0.0-3.0-1.1","prolific_id":"5e0e49cfbf3d4e5b0925b2a3","session_id":"643c252673702c496c141a03","study_id":"64370a36d30bfa807bc7e43c"},{"rt":null,"stimulus":"\n\t\t\t<div class=\"flip_card\">\n\t\t\t\t<div class=\"flip_card_inner\">\n\t\t\t\t\t<div class=\"flip_card_front\">\n\t\t\t\t\t\t<img src=img/27.png>\n\t\t\t\t\t</div>\n\t\t\t\t\t<div class=\"flip_card_back\">\n\t\t\t\t\t\t<h2>In what year was the first Nobel Prize awarded?</h2>\n\t\t\t\t\t\t<br>\n\t\t\t\t\t\t<p>Answer: <strong>1901</strong></p>\n\t\t\t\t\t</div>\n\t\t\t\t</div>\n\t\t\t</div>\n\t\t\t","response":null,"trial_type":"html-keyboard-response","trial_index":12,"time_elapsed":117607,"internal_node_id":"0.0-3.0-2.1","prolific_id":"5e0e49cfbf3d4e5b0925b2a3","session_id":"643c252673702c496c141a03","study_id":"64370a36d30bfa807bc7e43c"},{"rt":6492,"stimulus":"\n\t\t\t\t\t<div>\n\t\t\t\t\t<h2>Trial 2 is over</h2>\n\t\t\t\t\t<p>Press <span style=\"color: red\"><strong>any key</strong></span> to continue to the next trial</p>\n\t\t\t\t\t</div>\n\t\t\t\t","response":"n","trial_type":"html-keyboard-response","trial_index":13,"time_elapsed":124099,"internal_node_id":"0.0-3.0-3.1","prolific_id":"5e0e49cfbf3d4e5b0925b2a3","session_id":"643c252673702c496c141a03","study_id":"64370a36d30bfa807bc7e43c"},{"rt":8346,"response":{"prediction":"10"},"trial_type":"survey-text","trial_index":14,"time_elapsed":132447,"internal_node_id":"0.0-3.0-0.2","prolific_id":"5e0e49cfbf3d4e5b0925b2a3","session_id":"643c252673702c496c141a03","study_id":"64370a36d30bfa807bc7e43c"},{"rt":3894,"response":{"prior knowledge":1,"curiosity":5},"accuracy":[],"trial_type":"survey","trial_index":15,"time_elapsed":136362,"internal_node_id":"0.0-3.0-1.2","prolific_id":"5e0e49cfbf3d4e5b0925b2a3","session_id":"643c252673702c496c141a03","study_id":"64370a36d30bfa807bc7e43c"},{"rt":null,"stimulus":"\n\t\t\t<div class=\"flip_card\">\n\t\t\t\t<div class=\"flip_card_inner\">\n\t\t\t\t\t<div class=\"flip_card_front\">\n\t\t\t\t\t\t<img src=img/9.png>\n\t\t\t\t\t</div>\n\t\t\t\t\t<div class=\"flip_card_back\">\n\t\t\t\t\t\t<h2>How many lines are in a sonnet?</h2>\n\t\t\t\t\t\t<br>\n\t\t\t\t\t\t<p>Answer: <strong>14</strong></p>\n\t\t\t\t\t</div>\n\t\t\t\t</div>\n\t\t\t</div>\n\t\t\t","response":null,"trial_type":"html-keyboard-response","trial_index":16,"time_elapsed":141366,"internal_node_id":"0.0-3.0-2.2","prolific_id":"5e0e49cfbf3d4e5b0925b2a3","session_id":"643c252673702c496c141a03","study_id":"64370a36d30bfa807bc7e43c"},{"rt":1121,"stimulus":"\n\t\t\t\t\t<div>\n\t\t\t\t\t<h2>Trial 3 is over</h2>\n\t\t\t\t\t<p>Press <span style=\"color: red\"><strong>any key</strong></span> to continue to the next trial</p>\n\t\t\t\t\t</div>\n\t\t\t\t","response":"n","trial_type":"html-keyboard-response","trial_index":17,"time_elapsed":142488,"internal_node_id":"0.0-3.0-3.2","prolific_id":"5e0e49cfbf3d4e5b0925b2a3","session_id":"643c252673702c496c141a03","study_id":"64370a36d30bfa807bc7e43c"},{"rt":9248,"response":{"prediction":"3"},"trial_type":"survey-text","trial_index":18,"time_elapsed":151739,"internal_node_id":"0.0-3.0-0.3","prolific_id":"5e0e49cfbf3d4e5b0925b2a3","session_id":"643c252673702c496c141a03","study_id":"64370a36d30bfa807bc7e43c"},{"rt":4100,"response":{"prior knowledge":0,"curiosity":5},"accuracy":[],"trial_type":"survey","trial_index":19,"time_elapsed":155863,"internal_node_id":"0.0-3.0-1.3","prolific_id":"5e0e49cfbf3d4e5b0925b2a3","session_id":"643c252673702c496c141a03","study_id":"64370a36d30bfa807bc7e43c"},{"rt":null,"stimulus":"\n\t\t\t<div class=\"flip_card\">\n\t\t\t\t<div class=\"flip_card_inner\">\n\t\t\t\t\t<div class=\"flip_card_front\">\n\t\t\t\t\t\t<img src=img/23.png>\n\t\t\t\t\t</div>\n\t\t\t\t\t<div class=\"flip_card_back\">\n\t\t\t\t\t\t<h2>How many tones are in the Vietnamese language?</h2>\n\t\t\t\t\t\t<br>\n\t\t\t\t\t\t<p>Answer: <strong>6</strong></p>\n\t\t\t\t\t</div>\n\t\t\t\t</div>\n\t\t\t</div>\n\t\t\t","response":null,"trial_type":"html-keyboard-response","trial_index":20,"time_elapsed":160871,"internal_node_id":"0.0-3.0-2.3","prolific_id":"5e0e49cfbf3d4e5b0925b2a3","session_id":"643c252673702c496c141a03","study_id":"64370a36d30bfa807bc7e43c"},{"rt":1374,"stimulus":"\n\t\t\t\t\t<div>\n\t\t\t\t\t<h2>Trial 4 is over</h2>\n\t\t\t\t\t<p>Press <span style=\"color: red\"><strong>any key</strong></span> to continue to the next trial</p>\n\t\t\t\t\t</div>\n\t\t\t\t","response":"d","trial_type":"html-keyboard-response","trial_index":21,"time_elapsed":162246,"internal_node_id":"0.0-3.0-3.3","prolific_id":"5e0e49cfbf3d4e5b0925b2a3","session_id":"643c252673702c496c141a03","study_id":"64370a36d30bfa807bc7e43c"},{"rt":19564,"response":{"prediction":"7"},"trial_type":"survey-text","trial_index":22,"time_elapsed":181818,"internal_node_id":"0.0-3.0-0.4","prolific_id":"5e0e49cfbf3d4e5b0925b2a3","session_id":"643c252673702c496c141a03","study_id":"64370a36d30bfa807bc7e43c"},{"rt":3516,"response":{"prior knowledge":0,"curiosity":5},"accuracy":[],"trial_type":"survey","trial_index":23,"time_elapsed":185349,"internal_node_id":"0.0-3.0-1.4","prolific_id":"5e0e49cfbf3d4e5b0925b2a3","session_id":"643c252673702c496c141a03","study_id":"64370a36d30bfa807bc7e43c"},{"rt":null,"stimulus":"\n\t\t\t<div class=\"flip_card\">\n\t\t\t\t<div class=\"flip_card_inner\">\n\t\t\t\t\t<div class=\"flip_card_front\">\n\t\t\t\t\t\t<img src=img/19.png>\n\t\t\t\t\t</div>\n\t\t\t\t\t<div class=\"flip_card_back\">\n\t\t\t\t\t\t<h2>How many countries have territory in the Arctic Circle?</h2>\n\t\t\t\t\t\t<br>\n\t\t\t\t\t\t<p>Answer: <strong>8</strong></p>\n\t\t\t\t\t</div>\n\t\t\t\t</div>\n\t\t\t</div>\n\t\t\t","response":null,"trial_type":"html-keyboard-response","trial_index":24,"time_elapsed":190358,"internal_node_id":"0.0-3.0-2.4","prolific_id":"5e0e49cfbf3d4e5b0925b2a3","session_id":"643c252673702c496c141a03","study_id":"64370a36d30bfa807bc7e43c"},{"rt":1866,"stimulus":"\n\t\t\t\t\t<div>\n\t\t\t\t\t<h2>Trial 5 is over</h2>\n\t\t\t\t\t<p>Press <span style=\"color: red\"><strong>any key</strong></span> to continue to the next trial</p>\n\t\t\t\t\t</div>\n\t\t\t\t","response":"f","trial_type":"html-keyboard-response","trial_index":25,"time_elapsed":192224,"internal_node_id":"0.0-3.0-3.4","prolific_id":"5e0e49cfbf3d4e5b0925b2a3","session_id":"643c252673702c496c141a03","study_id":"64370a36d30bfa807bc7e43c"},{"rt":3351,"response":{"prediction":"13"},"trial_type":"survey-text","trial_index":26,"time_elapsed":195577,"internal_node_id":"0.0-3.0-0.5","prolific_id":"5e0e49cfbf3d4e5b0925b2a3","session_id":"643c252673702c496c141a03","study_id":"64370a36d30bfa807bc7e43c"},{"rt":4524,"response":{"prior knowledge":4,"curiosity":5},"accuracy":[],"trial_type":"survey","trial_index":27,"time_elapsed":200122,"internal_node_id":"0.0-3.0-1.5","prolific_id":"5e0e49cfbf3d4e5b0925b2a3","session_id":"643c252673702c496c141a03","study_id":"64370a36d30bfa807bc7e43c"},{"rt":null,"stimulus":"\n\t\t\t<div class=\"flip_card\">\n\t\t\t\t<div class=\"flip_card_inner\">\n\t\t\t\t\t<div class=\"flip_card_front\">\n\t\t\t\t\t\t<img src=img/15.png>\n\t\t\t\t\t</div>\n\t\t\t\t\t<div class=\"flip_card_back\">\n\t\t\t\t\t\t<h2>How much is in a Baker's Dozen?</h2>\n\t\t\t\t\t\t<br>\n\t\t\t\t\t\t<p>Answer: <strong>13</strong></p>\n\t\t\t\t\t</div>\n\t\t\t\t</div>\n\t\t\t</div>\n\t\t\t","response":null,"trial_type":"html-keyboard-response","trial_index":28,"time_elapsed":205131,"internal_node_id":"0.0-3.0-2.5","prolific_id":"5e0e49cfbf3d4e5b0925b2a3","session_id":"643c252673702c496c141a03","study_id":"64370a36d30bfa807bc7e43c"},{"rt":1238,"stimulus":"\n\t\t\t\t\t<div>\n\t\t\t\t\t<h2>Trial 6 is over</h2>\n\t\t\t\t\t<p>Press <span style=\"color: red\"><strong>any key</strong></span> to continue to the next trial</p>\n\t\t\t\t\t</div>\n\t\t\t\t","response":"d","trial_type":"html-keyboard-response","trial_index":29,"time_elapsed":206369,"internal_node_id":"0.0-3.0-3.5","prolific_id":"5e0e49cfbf3d4e5b0925b2a3","session_id":"643c252673702c496c141a03","study_id":"64370a36d30bfa807bc7e43c"},{"rt":33132,"response":{"prediction":"1862"},"trial_type":"survey-text","trial_index":30,"time_elapsed":239503,"internal_node_id":"0.0-3.0-0.6","prolific_id":"5e0e49cfbf3d4e5b0925b2a3","session_id":"643c252673702c496c141a03","study_id":"64370a36d30bfa807bc7e43c"},{"rt":3331,"response":{"prior knowledge":0,"curiosity":5},"accuracy":[],"trial_type":"survey","trial_index":31,"time_elapsed":242855,"internal_node_id":"0.0-3.0-1.6","prolific_id":"5e0e49cfbf3d4e5b0925b2a3","session_id":"643c252673702c496c141a03","study_id":"64370a36d30bfa807bc7e43c"},{"rt":null,"stimulus":"\n\t\t\t<div class=\"flip_card\">\n\t\t\t\t<div class=\"flip_card_inner\">\n\t\t\t\t\t<div class=\"flip_card_front\">\n\t\t\t\t\t\t<img src=img/25.png>\n\t\t\t\t\t</div>\n\t\t\t\t\t<div class=\"flip_card_back\">\n\t\t\t\t\t\t<h2>In what year did the first Modern Olympic Games take place?</h2>\n\t\t\t\t\t\t<br>\n\t\t\t\t\t\t<p>Answer: <strong>1896</strong></p>\n\t\t\t\t\t</div>\n\t\t\t\t</div>\n\t\t\t</div>\n\t\t\t","response":null,"trial_type":"html-keyboard-response","trial_index":32,"time_elapsed":247861,"internal_node_id":"0.0-3.0-2.6","prolific_id":"5e0e49cfbf3d4e5b0925b2a3","session_id":"643c252673702c496c141a03","study_id":"64370a36d30bfa807bc7e43c"},{"rt":3554,"stimulus":"\n\t\t\t\t\t<div>\n\t\t\t\t\t<h2>Trial 7 is over</h2>\n\t\t\t\t\t<p>Press <span style=\"color: red\"><strong>any key</strong></span> to continue to the next trial</p>\n\t\t\t\t\t</div>\n\t\t\t\t","response":"d","trial_type":"html-keyboard-response","trial_index":33,"time_elapsed":251416,"internal_node_id":"0.0-3.0-3.6","prolific_id":"5e0e49cfbf3d4e5b0925b2a3","session_id":"643c252673702c496c141a03","study_id":"64370a36d30bfa807bc7e43c"},{"rt":9613,"response":{"prediction":"12"},"trial_type":"survey-text","trial_index":34,"time_elapsed":261032,"internal_node_id":"0.0-3.0-0.7","prolific_id":"5e0e49cfbf3d4e5b0925b2a3","session_id":"643c252673702c496c141a03","study_id":"64370a36d30bfa807bc7e43c"},{"rt":4473,"response":{"prior knowledge":1,"curiosity":5},"accuracy":[],"trial_type":"survey","trial_index":35,"time_elapsed":265524,"internal_node_id":"0.0-3.0-1.7","prolific_id":"5e0e49cfbf3d4e5b0925b2a3","session_id":"643c252673702c496c141a03","study_id":"64370a36d30bfa807bc7e43c"},{"rt":null,"stimulus":"\n\t\t\t<div class=\"flip_card\">\n\t\t\t\t<div class=\"flip_card_inner\">\n\t\t\t\t\t<div class=\"flip_card_front\">\n\t\t\t\t\t\t<img src=img/13.png>\n\t\t\t\t\t</div>\n\t\t\t\t\t<div class=\"flip_card_back\">\n\t\t\t\t\t\t<h2>How many different animals (real or imaginary) are represented in the Chinese calendar?</h2>\n\t\t\t\t\t\t<br>\n\t\t\t\t\t\t<p>Answer: <strong>12</strong></p>\n\t\t\t\t\t</div>\n\t\t\t\t</div>\n\t\t\t</div>\n\t\t\t","response":null,"trial_type":"html-keyboard-response","trial_index":36,"time_elapsed":270533,"internal_node_id":"0.0-3.0-2.7","prolific_id":"5e0e49cfbf3d4e5b0925b2a3","session_id":"643c252673702c496c141a03","study_id":"64370a36d30bfa807bc7e43c"},{"rt":1200,"stimulus":"\n\t\t\t\t\t<div>\n\t\t\t\t\t<h2>Trial 8 is over</h2>\n\t\t\t\t\t<p>Press <span style=\"color: red\"><strong>any key</strong></span> to continue to the next trial</p>\n\t\t\t\t\t</div>\n\t\t\t\t","response":"d","trial_type":"html-keyboard-response","trial_index":37,"time_elapsed":271733,"internal_node_id":"0.0-3.0-3.7","prolific_id":"5e0e49cfbf3d4e5b0925b2a3","session_id":"643c252673702c496c141a03","study_id":"64370a36d30bfa807bc7e43c"},{"rt":6016,"response":{"prediction":"40"},"trial_type":"survey-text","trial_index":38,"time_elapsed":277751,"internal_node_id":"0.0-3.0-0.8","prolific_id":"5e0e49cfbf3d4e5b0925b2a3","session_id":"643c252673702c496c141a03","study_id":"64370a36d30bfa807bc7e43c"},{"rt":3920,"response":{"prior knowledge":1,"curiosity":5},"accuracy":[],"trial_type":"survey","trial_index":39,"time_elapsed":281691,"internal_node_id":"0.0-3.0-1.8","prolific_id":"5e0e49cfbf3d4e5b0925b2a3","session_id":"643c252673702c496c141a03","study_id":"64370a36d30bfa807bc7e43c"},{"rt":null,"stimulus":"\n\t\t\t<div class=\"flip_card\">\n\t\t\t\t<div class=\"flip_card_inner\">\n\t\t\t\t\t<div class=\"flip_card_front\">\n\t\t\t\t\t\t<img src=img/7.png>\n\t\t\t\t\t</div>\n\t\t\t\t\t<div class=\"flip_card_back\">\n\t\t\t\t\t\t<h2>How many books are in the Catholic Bible?</h2>\n\t\t\t\t\t\t<br>\n\t\t\t\t\t\t<p>Answer: <strong>73</strong></p>\n\t\t\t\t\t</div>\n\t\t\t\t</div>\n\t\t\t</div>\n\t\t\t","response":null,"trial_type":"html-keyboard-response","trial_index":40,"time_elapsed":286697,"internal_node_id":"0.0-3.0-2.8","prolific_id":"5e0e49cfbf3d4e5b0925b2a3","session_id":"643c252673702c496c141a03","study_id":"64370a36d30bfa807bc7e43c"},{"rt":1165,"stimulus":"\n\t\t\t\t\t<div>\n\t\t\t\t\t<h2>Trial 9 is over</h2>\n\t\t\t\t\t<p>Press <span style=\"color: red\"><strong>any key</strong></span> to continue to the next trial</p>\n\t\t\t\t\t</div>\n\t\t\t\t","response":"d","trial_type":"html-keyboard-response","trial_index":41,"time_elapsed":287863,"internal_node_id":"0.0-3.0-3.8","prolific_id":"5e0e49cfbf3d4e5b0925b2a3","session_id":"643c252673702c496c141a03","study_id":"64370a36d30bfa807bc7e43c"},{"rt":15433,"response":{"prediction":"1933"},"trial_type":"survey-text","trial_index":42,"time_elapsed":303496,"internal_node_id":"0.0-3.0-0.9","prolific_id":"5e0e49cfbf3d4e5b0925b2a3","session_id":"643c252673702c496c141a03","study_id":"64370a36d30bfa807bc7e43c"},{"rt":3983,"response":{"prior knowledge":0,"curiosity":5},"accuracy":[],"trial_type":"survey","trial_index":43,"time_elapsed":307489,"internal_node_id":"0.0-3.0-1.9","prolific_id":"5e0e49cfbf3d4e5b0925b2a3","session_id":"643c252673702c496c141a03","study_id":"64370a36d30bfa807bc7e43c"},{"rt":null,"stimulus":"\n\t\t\t<div class=\"flip_card\">\n\t\t\t\t<div class=\"flip_card_inner\">\n\t\t\t\t\t<div class=\"flip_card_front\">\n\t\t\t\t\t\t<img src=img/1.png>\n\t\t\t\t\t</div>\n\t\t\t\t\t<div class=\"flip_card_back\">\n\t\t\t\t\t\t<h2>In what year was the Mexican artist Frida Kahlo born?</h2>\n\t\t\t\t\t\t<br>\n\t\t\t\t\t\t<p>Answer: <strong>1907</strong></p>\n\t\t\t\t\t</div>\n\t\t\t\t</div>\n\t\t\t</div>\n\t\t\t","response":null,"trial_type":"html-keyboard-response","trial_index":44,"time_elapsed":312495,"internal_node_id":"0.0-3.0-2.9","prolific_id":"5e0e49cfbf3d4e5b0925b2a3","session_id":"643c252673702c496c141a03","study_id":"64370a36d30bfa807bc7e43c"},{"rt":2236,"stimulus":"\n\t\t\t\t\t<div>\n\t\t\t\t\t<h2>Trial 10 is over</h2>\n\t\t\t\t\t<p>Press <span style=\"color: red\"><strong>any key</strong></span> to continue to the next trial</p>\n\t\t\t\t\t</div>\n\t\t\t\t","response":"s","trial_type":"html-keyboard-response","trial_index":45,"time_elapsed":314731,"internal_node_id":"0.0-3.0-3.9","prolific_id":"5e0e49cfbf3d4e5b0925b2a3","session_id":"643c252673702c496c141a03","study_id":"64370a36d30bfa807bc7e43c"},{"rt":7137,"response":{"prediction":"208"},"trial_type":"survey-text","trial_index":46,"time_elapsed":321869,"internal_node_id":"0.0-3.0-0.10","prolific_id":"5e0e49cfbf3d4e5b0925b2a3","session_id":"643c252673702c496c141a03","study_id":"64370a36d30bfa807bc7e43c"},{"rt":3238,"response":{"prior knowledge":1,"curiosity":5},"accuracy":[],"trial_type":"survey","trial_index":47,"time_elapsed":325118,"internal_node_id":"0.0-3.0-1.10","prolific_id":"5e0e49cfbf3d4e5b0925b2a3","session_id":"643c252673702c496c141a03","study_id":"64370a36d30bfa807bc7e43c"},{"rt":null,"stimulus":"\n\t\t\t<div class=\"flip_card\">\n\t\t\t\t<div class=\"flip_card_inner\">\n\t\t\t\t\t<div class=\"flip_card_front\">\n\t\t\t\t\t\t<img src=img/5.png>\n\t\t\t\t\t</div>\n\t\t\t\t\t<div class=\"flip_card_back\">\n\t\t\t\t\t\t<h2>How many bones is a human baby born with?</h2>\n\t\t\t\t\t\t<br>\n\t\t\t\t\t\t<p>Answer: <strong>300</strong></p>\n\t\t\t\t\t</div>\n\t\t\t\t</div>\n\t\t\t</div>\n\t\t\t","response":null,"trial_type":"html-keyboard-response","trial_index":48,"time_elapsed":330122,"internal_node_id":"0.0-3.0-2.10","prolific_id":"5e0e49cfbf3d4e5b0925b2a3","session_id":"643c252673702c496c141a03","study_id":"64370a36d30bfa807bc7e43c"},{"rt":1116,"stimulus":"\n\t\t\t\t\t<div>\n\t\t\t\t\t<h2>Trial 11 is over</h2>\n\t\t\t\t\t<p>Press <span style=\"color: red\"><strong>any key</strong></span> to continue to the next trial</p>\n\t\t\t\t\t</div>\n\t\t\t\t","response":"d","trial_type":"html-keyboard-response","trial_index":49,"time_elapsed":331238,"internal_node_id":"0.0-3.0-3.10","prolific_id":"5e0e49cfbf3d4e5b0925b2a3","session_id":"643c252673702c496c141a03","study_id":"64370a36d30bfa807bc7e43c"},{"rt":27534,"response":{"prediction":"9"},"trial_type":"survey-text","trial_index":50,"time_elapsed":358774,"internal_node_id":"0.0-3.0-0.11","prolific_id":"5e0e49cfbf3d4e5b0925b2a3","session_id":"643c252673702c496c141a03","study_id":"64370a36d30bfa807bc7e43c"},{"rt":4121,"response":{"prior knowledge":2,"curiosity":5},"accuracy":[],"trial_type":"survey","trial_index":51,"time_elapsed":362911,"internal_node_id":"0.0-3.0-1.11","prolific_id":"5e0e49cfbf3d4e5b0925b2a3","session_id":"643c252673702c496c141a03","study_id":"64370a36d30bfa807bc7e43c"},{"rt":null,"stimulus":"\n\t\t\t<div class=\"flip_card\">\n\t\t\t\t<div class=\"flip_card_inner\">\n\t\t\t\t\t<div class=\"flip_card_front\">\n\t\t\t\t\t\t<img src=img/29.png>\n\t\t\t\t\t</div>\n\t\t\t\t\t<div class=\"flip_card_back\">\n\t\t\t\t\t\t<h2>How many soccer players should each team have on the field at the start of each match?</h2>\n\t\t\t\t\t\t<br>\n\t\t\t\t\t\t<p>Answer: <strong>11</strong></p>\n\t\t\t\t\t</div>\n\t\t\t\t</div>\n\t\t\t</div>\n\t\t\t","response":null,"trial_type":"html-keyboard-response","trial_index":52,"time_elapsed":367918,"internal_node_id":"0.0-3.0-2.11","prolific_id":"5e0e49cfbf3d4e5b0925b2a3","session_id":"643c252673702c496c141a03","study_id":"64370a36d30bfa807bc7e43c"},{"rt":3135,"stimulus":"\n\t\t\t\t\t<div>\n\t\t\t\t\t<h2>Trial 12 is over</h2>\n\t\t\t\t\t<p>Press <span style=\"color: red\"><strong>any key</strong></span> to continue to the next trial</p>\n\t\t\t\t\t</div>\n\t\t\t\t","response":"h","trial_type":"html-keyboard-response","trial_index":53,"time_elapsed":371054,"internal_node_id":"0.0-3.0-3.11","prolific_id":"5e0e49cfbf3d4e5b0925b2a3","session_id":"643c252673702c496c141a03","study_id":"64370a36d30bfa807bc7e43c"},{"rt":14596,"response":{"prediction":"312"},"trial_type":"survey-text","trial_index":54,"time_elapsed":385651,"internal_node_id":"0.0-3.0-0.12","prolific_id":"5e0e49cfbf3d4e5b0925b2a3","session_id":"643c252673702c496c141a03","study_id":"64370a36d30bfa807bc7e43c"},{"rt":6086,"response":{"prior knowledge":0,"curiosity":5},"accuracy":[],"trial_type":"survey","trial_index":55,"time_elapsed":391756,"internal_node_id":"0.0-3.0-1.12","prolific_id":"5e0e49cfbf3d4e5b0925b2a3","session_id":"643c252673702c496c141a03","study_id":"64370a36d30bfa807bc7e43c"},{"rt":null,"stimulus":"\n\t\t\t<div class=\"flip_card\">\n\t\t\t\t<div class=\"flip_card_inner\">\n\t\t\t\t\t<div class=\"flip_card_front\">\n\t\t\t\t\t\t<img src=img/28.png>\n\t\t\t\t\t</div>\n\t\t\t\t\t<div class=\"flip_card_back\">\n\t\t\t\t\t\t<h2>How many double stitches does a baseball have?</h2>\n\t\t\t\t\t\t<br>\n\t\t\t\t\t\t<p>Answer: <strong>108</strong></p>\n\t\t\t\t\t</div>\n\t\t\t\t</div>\n\t\t\t</div>\n\t\t\t","response":null,"trial_type":"html-keyboard-response","trial_index":56,"time_elapsed":396760,"internal_node_id":"0.0-3.0-2.12","prolific_id":"5e0e49cfbf3d4e5b0925b2a3","session_id":"643c252673702c496c141a03","study_id":"64370a36d30bfa807bc7e43c"},{"rt":1195,"stimulus":"\n\t\t\t\t\t<div>\n\t\t\t\t\t<h2>Trial 13 is over</h2>\n\t\t\t\t\t<p>Press <span style=\"color: red\"><strong>any key</strong></span> to continue to the next trial</p>\n\t\t\t\t\t</div>\n\t\t\t\t","response":"n","trial_type":"html-keyboard-response","trial_index":57,"time_elapsed":397955,"internal_node_id":"0.0-3.0-3.12","prolific_id":"5e0e49cfbf3d4e5b0925b2a3","session_id":"643c252673702c496c141a03","study_id":"64370a36d30bfa807bc7e43c"},{"rt":13747,"response":{"prediction":"112"},"trial_type":"survey-text","trial_index":58,"time_elapsed":411703,"internal_node_id":"0.0-3.0-0.13","prolific_id":"5e0e49cfbf3d4e5b0925b2a3","session_id":"643c252673702c496c141a03","study_id":"64370a36d30bfa807bc7e43c"},{"rt":4546,"response":{"prior knowledge":0,"curiosity":5},"accuracy":[],"trial_type":"survey","trial_index":59,"time_elapsed":416259,"internal_node_id":"0.0-3.0-1.13","prolific_id":"5e0e49cfbf3d4e5b0925b2a3","session_id":"643c252673702c496c141a03","study_id":"64370a36d30bfa807bc7e43c"},{"rt":null,"stimulus":"\n\t\t\t<div class=\"flip_card\">\n\t\t\t\t<div class=\"flip_card_inner\">\n\t\t\t\t\t<div class=\"flip_card_front\">\n\t\t\t\t\t\t<img src=img/11.png>\n\t\t\t\t\t</div>\n\t\t\t\t\t<div class=\"flip_card_back\">\n\t\t\t\t\t\t<h2>How many floors are in the Burj Khalifa, the tallest building in the world?</h2>\n\t\t\t\t\t\t<br>\n\t\t\t\t\t\t<p>Answer: <strong>163</strong></p>\n\t\t\t\t\t</div>\n\t\t\t\t</div>\n\t\t\t</div>\n\t\t\t","response":null,"trial_type":"html-keyboard-response","trial_index":60,"time_elapsed":421262,"internal_node_id":"0.0-3.0-2.13","prolific_id":"5e0e49cfbf3d4e5b0925b2a3","session_id":"643c252673702c496c141a03","study_id":"64370a36d30bfa807bc7e43c"},{"rt":1418,"stimulus":"\n\t\t\t\t\t<div>\n\t\t\t\t\t<h2>Trial 14 is over</h2>\n\t\t\t\t\t<p>Press <span style=\"color: red\"><strong>any key</strong></span> to continue to the next trial</p>\n\t\t\t\t\t</div>\n\t\t\t\t","response":"n","trial_type":"html-keyboard-response","trial_index":61,"time_elapsed":422681,"internal_node_id":"0.0-3.0-3.13","prolific_id":"5e0e49cfbf3d4e5b0925b2a3","session_id":"643c252673702c496c141a03","study_id":"64370a36d30bfa807bc7e43c"},{"rt":10638,"response":{"prediction":"300"},"trial_type":"survey-text","trial_index":62,"time_elapsed":433319,"internal_node_id":"0.0-3.0-0.14","prolific_id":"5e0e49cfbf3d4e5b0925b2a3","session_id":"643c252673702c496c141a03","study_id":"64370a36d30bfa807bc7e43c"},{"rt":5344,"response":{"prior knowledge":1,"curiosity":5},"accuracy":[],"trial_type":"survey","trial_index":63,"time_elapsed":438674,"internal_node_id":"0.0-3.0-1.14","prolific_id":"5e0e49cfbf3d4e5b0925b2a3","session_id":"643c252673702c496c141a03","study_id":"64370a36d30bfa807bc7e43c"},{"rt":null,"stimulus":"\n\t\t\t<div class=\"flip_card\">\n\t\t\t\t<div class=\"flip_card_inner\">\n\t\t\t\t\t<div class=\"flip_card_front\">\n\t\t\t\t\t\t<img src=img/8.png>\n\t\t\t\t\t</div>\n\t\t\t\t\t<div class=\"flip_card_back\">\n\t\t\t\t\t\t<h2>How long is the Great Wall of China (in miles)?</h2>\n\t\t\t\t\t\t<br>\n\t\t\t\t\t\t<p>Answer: <strong>13171</strong></p>\n\t\t\t\t\t</div>\n\t\t\t\t</div>\n\t\t\t</div>\n\t\t\t","response":null,"trial_type":"html-keyboard-response","trial_index":64,"time_elapsed":443678,"internal_node_id":"0.0-3.0-2.14","prolific_id":"5e0e49cfbf3d4e5b0925b2a3","session_id":"643c252673702c496c141a03","study_id":"64370a36d30bfa807bc7e43c"},{"rt":1299,"stimulus":"\n\t\t\t\t\t<div>\n\t\t\t\t\t<h2>Trial 15 is over</h2>\n\t\t\t\t\t<p>Press <span style=\"color: red\"><strong>any key</strong></span> to continue to the next trial</p>\n\t\t\t\t\t</div>\n\t\t\t\t","response":"n","trial_type":"html-keyboard-response","trial_index":65,"time_elapsed":444977,"internal_node_id":"0.0-3.0-3.14","prolific_id":"5e0e49cfbf3d4e5b0925b2a3","session_id":"643c252673702c496c141a03","study_id":"64370a36d30bfa807bc7e43c"},{"rt":6762,"response":{"prediction":"3"},"trial_type":"survey-text","trial_index":66,"time_elapsed":451740,"internal_node_id":"0.0-3.0-0.15","prolific_id":"5e0e49cfbf3d4e5b0925b2a3","session_id":"643c252673702c496c141a03","study_id":"64370a36d30bfa807bc7e43c"},{"rt":3415,"response":{"prior knowledge":2,"curiosity":5},"accuracy":[],"trial_type":"survey","trial_index":67,"time_elapsed":455170,"internal_node_id":"0.0-3.0-1.15","prolific_id":"5e0e49cfbf3d4e5b0925b2a3","session_id":"643c252673702c496c141a03","study_id":"64370a36d30bfa807bc7e43c"},{"rt":null,"stimulus":"\n\t\t\t<div class=\"flip_card\">\n\t\t\t\t<div class=\"flip_card_inner\">\n\t\t\t\t\t<div class=\"flip_card_front\">\n\t\t\t\t\t\t<img src=img/12.png>\n\t\t\t\t\t</div>\n\t\t\t\t\t<div class=\"flip_card_back\">\n\t\t\t\t\t\t<h2>How many times a day do Muslims pray?</h2>\n\t\t\t\t\t\t<br>\n\t\t\t\t\t\t<p>Answer: <strong>5</strong></p>\n\t\t\t\t\t</div>\n\t\t\t\t</div>\n\t\t\t</div>\n\t\t\t","response":null,"trial_type":"html-keyboard-response","trial_index":68,"time_elapsed":460173,"internal_node_id":"0.0-3.0-2.15","prolific_id":"5e0e49cfbf3d4e5b0925b2a3","session_id":"643c252673702c496c141a03","study_id":"64370a36d30bfa807bc7e43c"},{"rt":1304,"stimulus":"\n\t\t\t\t\t<div>\n\t\t\t\t\t<h2>Trial 16 is over</h2>\n\t\t\t\t\t<p>Press <span style=\"color: red\"><strong>any key</strong></span> to continue to the next trial</p>\n\t\t\t\t\t</div>\n\t\t\t\t","response":"n","trial_type":"html-keyboard-response","trial_index":69,"time_elapsed":461477,"internal_node_id":"0.0-3.0-3.15","prolific_id":"5e0e49cfbf3d4e5b0925b2a3","session_id":"643c252673702c496c141a03","study_id":"64370a36d30bfa807bc7e43c"},{"rt":8330,"response":{"prediction":"38"},"trial_type":"survey-text","trial_index":70,"time_elapsed":469809,"internal_node_id":"0.0-3.0-0.16","prolific_id":"5e0e49cfbf3d4e5b0925b2a3","session_id":"643c252673702c496c141a03","study_id":"64370a36d30bfa807bc7e43c"},{"rt":3336,"response":{"prior knowledge":1,"curiosity":5},"accuracy":[],"trial_type":"survey","trial_index":71,"time_elapsed":473156,"internal_node_id":"0.0-3.0-1.16","prolific_id":"5e0e49cfbf3d4e5b0925b2a3","session_id":"643c252673702c496c141a03","study_id":"64370a36d30bfa807bc7e43c"},{"rt":null,"stimulus":"\n\t\t\t<div class=\"flip_card\">\n\t\t\t\t<div class=\"flip_card_inner\">\n\t\t\t\t\t<div class=\"flip_card_front\">\n\t\t\t\t\t\t<img src=img/26.png>\n\t\t\t\t\t</div>\n\t\t\t\t\t<div class=\"flip_card_back\">\n\t\t\t\t\t\t<h2>How many countries are in Africa?</h2>\n\t\t\t\t\t\t<br>\n\t\t\t\t\t\t<p>Answer: <strong>54</strong></p>\n\t\t\t\t\t</div>\n\t\t\t\t</div>\n\t\t\t</div>\n\t\t\t","response":null,"trial_type":"html-keyboard-response","trial_index":72,"time_elapsed":478157,"internal_node_id":"0.0-3.0-2.16","prolific_id":"5e0e49cfbf3d4e5b0925b2a3","session_id":"643c252673702c496c141a03","study_id":"64370a36d30bfa807bc7e43c"},{"rt":764,"stimulus":"\n\t\t\t\t\t<div>\n\t\t\t\t\t<h2>Trial 17 is over</h2>\n\t\t\t\t\t<p>Press <span style=\"color: red\"><strong>any key</strong></span> to continue to the next trial</p>\n\t\t\t\t\t</div>\n\t\t\t\t","response":"m","trial_type":"html-keyboard-response","trial_index":73,"time_elapsed":478922,"internal_node_id":"0.0-3.0-3.16","prolific_id":"5e0e49cfbf3d4e5b0925b2a3","session_id":"643c252673702c496c141a03","study_id":"64370a36d30bfa807bc7e43c"},{"rt":25321,"response":{"prediction":"1986"},"trial_type":"survey-text","trial_index":74,"time_elapsed":504244,"internal_node_id":"0.0-3.0-0.17","prolific_id":"5e0e49cfbf3d4e5b0925b2a3","session_id":"643c252673702c496c141a03","study_id":"64370a36d30bfa807bc7e43c"},{"rt":6354,"response":{"prior knowledge":1,"curiosity":5},"accuracy":[],"trial_type":"survey","trial_index":75,"time_elapsed":510615,"internal_node_id":"0.0-3.0-1.17","prolific_id":"5e0e49cfbf3d4e5b0925b2a3","session_id":"643c252673702c496c141a03","study_id":"64370a36d30bfa807bc7e43c"},{"rt":null,"stimulus":"\n\t\t\t<div class=\"flip_card\">\n\t\t\t\t<div class=\"flip_card_inner\">\n\t\t\t\t\t<div class=\"flip_card_front\">\n\t\t\t\t\t\t<img src=img/18.png>\n\t\t\t\t\t</div>\n\t\t\t\t\t<div class=\"flip_card_back\">\n\t\t\t\t\t\t<h2>What year did the Berlin Wall fall?</h2>\n\t\t\t\t\t\t<br>\n\t\t\t\t\t\t<p>Answer: <strong>1989</strong></p>\n\t\t\t\t\t</div>\n\t\t\t\t</div>\n\t\t\t</div>\n\t\t\t","response":null,"trial_type":"html-keyboard-response","trial_index":76,"time_elapsed":515623,"internal_node_id":"0.0-3.0-2.17","prolific_id":"5e0e49cfbf3d4e5b0925b2a3","session_id":"643c252673702c496c141a03","study_id":"64370a36d30bfa807bc7e43c"},{"rt":1316,"stimulus":"\n\t\t\t\t\t<div>\n\t\t\t\t\t<h2>Trial 18 is over</h2>\n\t\t\t\t\t<p>Press <span style=\"color: red\"><strong>any key</strong></span> to continue to the next trial</p>\n\t\t\t\t\t</div>\n\t\t\t\t","response":"n","trial_type":"html-keyboard-response","trial_index":77,"time_elapsed":516940,"internal_node_id":"0.0-3.0-3.17","prolific_id":"5e0e49cfbf3d4e5b0925b2a3","session_id":"643c252673702c496c141a03","study_id":"64370a36d30bfa807bc7e43c"},{"rt":16613,"response":{"prediction":"18"},"trial_type":"survey-text","trial_index":78,"time_elapsed":533555,"internal_node_id":"0.0-3.0-0.18","prolific_id":"5e0e49cfbf3d4e5b0925b2a3","session_id":"643c252673702c496c141a03","study_id":"64370a36d30bfa807bc7e43c"},{"rt":5159,"response":{"prior knowledge":1,"curiosity":5},"accuracy":[],"trial_type":"survey","trial_index":79,"time_elapsed":538731,"internal_node_id":"0.0-3.0-1.18","prolific_id":"5e0e49cfbf3d4e5b0925b2a3","session_id":"643c252673702c496c141a03","study_id":"64370a36d30bfa807bc7e43c"},{"rt":null,"stimulus":"\n\t\t\t<div class=\"flip_card\">\n\t\t\t\t<div class=\"flip_card_inner\">\n\t\t\t\t\t<div class=\"flip_card_front\">\n\t\t\t\t\t\t<img src=img/6.png>\n\t\t\t\t\t</div>\n\t\t\t\t\t<div class=\"flip_card_back\">\n\t\t\t\t\t\t<h2>How many people are vegan globally (in millions)?</h2>\n\t\t\t\t\t\t<br>\n\t\t\t\t\t\t<p>Answer: <strong>79</strong></p>\n\t\t\t\t\t</div>\n\t\t\t\t</div>\n\t\t\t</div>\n\t\t\t","response":null,"trial_type":"html-keyboard-response","trial_index":80,"time_elapsed":543735,"internal_node_id":"0.0-3.0-2.18","prolific_id":"5e0e49cfbf3d4e5b0925b2a3","session_id":"643c252673702c496c141a03","study_id":"64370a36d30bfa807bc7e43c"},{"rt":1122,"stimulus":"\n\t\t\t\t\t<div>\n\t\t\t\t\t<h2>Trial 19 is over</h2>\n\t\t\t\t\t<p>Press <span style=\"color: red\"><strong>any key</strong></span> to continue to the next trial</p>\n\t\t\t\t\t</div>\n\t\t\t\t","response":"n","trial_type":"html-keyboard-response","trial_index":81,"time_elapsed":544857,"internal_node_id":"0.0-3.0-3.18","prolific_id":"5e0e49cfbf3d4e5b0925b2a3","session_id":"643c252673702c496c141a03","study_id":"64370a36d30bfa807bc7e43c"},{"rt":7978,"response":{"prediction":"17"},"trial_type":"survey-text","trial_index":82,"time_elapsed":552837,"internal_node_id":"0.0-3.0-0.19","prolific_id":"5e0e49cfbf3d4e5b0925b2a3","session_id":"643c252673702c496c141a03","study_id":"64370a36d30bfa807bc7e43c"},{"rt":3474,"response":{"prior knowledge":0,"curiosity":5},"accuracy":[],"trial_type":"survey","trial_index":83,"time_elapsed":556329,"internal_node_id":"0.0-3.0-1.19","prolific_id":"5e0e49cfbf3d4e5b0925b2a3","session_id":"643c252673702c496c141a03","study_id":"64370a36d30bfa807bc7e43c"},{"rt":null,"stimulus":"\n\t\t\t<div class=\"flip_card\">\n\t\t\t\t<div class=\"flip_card_inner\">\n\t\t\t\t\t<div class=\"flip_card_front\">\n\t\t\t\t\t\t<img src=img/4.png>\n\t\t\t\t\t</div>\n\t\t\t\t\t<div class=\"flip_card_back\">\n\t\t\t\t\t\t<h2>How many native species of kangaroos are found in Australia?</h2>\n\t\t\t\t\t\t<br>\n\t\t\t\t\t\t<p>Answer: <strong>4</strong></p>\n\t\t\t\t\t</div>\n\t\t\t\t</div>\n\t\t\t</div>\n\t\t\t","response":null,"trial_type":"html-keyboard-response","trial_index":84,"time_elapsed":561335,"internal_node_id":"0.0-3.0-2.19","prolific_id":"5e0e49cfbf3d4e5b0925b2a3","session_id":"643c252673702c496c141a03","study_id":"64370a36d30bfa807bc7e43c"},{"rt":1334,"stimulus":"\n\t\t\t\t\t<div>\n\t\t\t\t\t<h2>Trial 20 is over</h2>\n\t\t\t\t\t<p>Press <span style=\"color: red\"><strong>any key</strong></span> to continue to the next trial</p>\n\t\t\t\t\t</div>\n\t\t\t\t","response":"n","trial_type":"html-keyboard-response","trial_index":85,"time_elapsed":562670,"internal_node_id":"0.0-3.0-3.19","prolific_id":"5e0e49cfbf3d4e5b0925b2a3","session_id":"643c252673702c496c141a03","study_id":"64370a36d30bfa807bc7e43c"},{"rt":14267,"response":{"prediction":"3"},"trial_type":"survey-text","trial_index":86,"time_elapsed":576939,"internal_node_id":"0.0-3.0-0.20","prolific_id":"5e0e49cfbf3d4e5b0925b2a3","session_id":"643c252673702c496c141a03","study_id":"64370a36d30bfa807bc7e43c"},{"rt":3389,"response":{"prior knowledge":1,"curiosity":5},"accuracy":[],"trial_type":"survey","trial_index":87,"time_elapsed":580346,"internal_node_id":"0.0-3.0-1.20","prolific_id":"5e0e49cfbf3d4e5b0925b2a3","session_id":"643c252673702c496c141a03","study_id":"64370a36d30bfa807bc7e43c"},{"rt":null,"stimulus":"\n\t\t\t<div class=\"flip_card\">\n\t\t\t\t<div class=\"flip_card_inner\">\n\t\t\t\t\t<div class=\"flip_card_front\">\n\t\t\t\t\t\t<img src=img/20.png>\n\t\t\t\t\t</div>\n\t\t\t\t\t<div class=\"flip_card_back\">\n\t\t\t\t\t\t<h2>How many moons does Neptune have?</h2>\n\t\t\t\t\t\t<br>\n\t\t\t\t\t\t<p>Answer: <strong>14</strong></p>\n\t\t\t\t\t</div>\n\t\t\t\t</div>\n\t\t\t</div>\n\t\t\t","response":null,"trial_type":"html-keyboard-response","trial_index":88,"time_elapsed":585350,"internal_node_id":"0.0-3.0-2.20","prolific_id":"5e0e49cfbf3d4e5b0925b2a3","session_id":"643c252673702c496c141a03","study_id":"64370a36d30bfa807bc7e43c"},{"rt":4941,"stimulus":"\n\t\t\t\t\t<div>\n\t\t\t\t\t<h2>Trial 21 is over</h2>\n\t\t\t\t\t<p>Press <span style=\"color: red\"><strong>any key</strong></span> to continue to the next trial</p>\n\t\t\t\t\t</div>\n\t\t\t\t","response":"b","trial_type":"html-keyboard-response","trial_index":89,"time_elapsed":590292,"internal_node_id":"0.0-3.0-3.20","prolific_id":"5e0e49cfbf3d4e5b0925b2a3","session_id":"643c252673702c496c141a03","study_id":"64370a36d30bfa807bc7e43c"},{"rt":22803,"response":{"prediction":"8"},"trial_type":"survey-text","trial_index":90,"time_elapsed":613097,"internal_node_id":"0.0-3.0-0.21","prolific_id":"5e0e49cfbf3d4e5b0925b2a3","session_id":"643c252673702c496c141a03","study_id":"64370a36d30bfa807bc7e43c"},{"rt":3494,"response":{"prior knowledge":0,"curiosity":5},"accuracy":[],"trial_type":"survey","trial_index":91,"time_elapsed":616608,"internal_node_id":"0.0-3.0-1.21","prolific_id":"5e0e49cfbf3d4e5b0925b2a3","session_id":"643c252673702c496c141a03","study_id":"64370a36d30bfa807bc7e43c"},{"rt":null,"stimulus":"\n\t\t\t<div class=\"flip_card\">\n\t\t\t\t<div class=\"flip_card_inner\">\n\t\t\t\t\t<div class=\"flip_card_front\">\n\t\t\t\t\t\t<img src=img/30.png>\n\t\t\t\t\t</div>\n\t\t\t\t\t<div class=\"flip_card_back\">\n\t\t\t\t\t\t<h2>How many single hand gestures, or mudras, are used in Indian classical dance?</h2>\n\t\t\t\t\t\t<br>\n\t\t\t\t\t\t<p>Answer: <strong>28</strong></p>\n\t\t\t\t\t</div>\n\t\t\t\t</div>\n\t\t\t</div>\n\t\t\t","response":null,"trial_type":"html-keyboard-response","trial_index":92,"time_elapsed":621611,"internal_node_id":"0.0-3.0-2.21","prolific_id":"5e0e49cfbf3d4e5b0925b2a3","session_id":"643c252673702c496c141a03","study_id":"64370a36d30bfa807bc7e43c"},{"rt":2424,"stimulus":"\n\t\t\t\t\t<div>\n\t\t\t\t\t<h2>Trial 22 is over</h2>\n\t\t\t\t\t<p>Press <span style=\"color: red\"><strong>any key</strong></span> to continue to the next trial</p>\n\t\t\t\t\t</div>\n\t\t\t\t","response":"m","trial_type":"html-keyboard-response","trial_index":93,"time_elapsed":624036,"internal_node_id":"0.0-3.0-3.21","prolific_id":"5e0e49cfbf3d4e5b0925b2a3","session_id":"643c252673702c496c141a03","study_id":"64370a36d30bfa807bc7e43c"},{"rt":14253,"response":{"prediction":"1904"},"trial_type":"survey-text","trial_index":94,"time_elapsed":638291,"internal_node_id":"0.0-3.0-0.22","prolific_id":"5e0e49cfbf3d4e5b0925b2a3","session_id":"643c252673702c496c141a03","study_id":"64370a36d30bfa807bc7e43c"},{"rt":3856,"response":{"prior knowledge":1,"curiosity":5},"accuracy":[],"trial_type":"survey","trial_index":95,"time_elapsed":642165,"internal_node_id":"0.0-3.0-1.22","prolific_id":"5e0e49cfbf3d4e5b0925b2a3","session_id":"643c252673702c496c141a03","study_id":"64370a36d30bfa807bc7e43c"},{"rt":null,"stimulus":"\n\t\t\t<div class=\"flip_card\">\n\t\t\t\t<div class=\"flip_card_inner\">\n\t\t\t\t\t<div class=\"flip_card_front\">\n\t\t\t\t\t\t<img src=img/10.png>\n\t\t\t\t\t</div>\n\t\t\t\t\t<div class=\"flip_card_back\">\n\t\t\t\t\t\t<h2>What year did the titanic sink?</h2>\n\t\t\t\t\t\t<br>\n\t\t\t\t\t\t<p>Answer: <strong>1912</strong></p>\n\t\t\t\t\t</div>\n\t\t\t\t</div>\n\t\t\t</div>\n\t\t\t","response":null,"trial_type":"html-keyboard-response","trial_index":96,"time_elapsed":647174,"internal_node_id":"0.0-3.0-2.22","prolific_id":"5e0e49cfbf3d4e5b0925b2a3","session_id":"643c252673702c496c141a03","study_id":"64370a36d30bfa807bc7e43c"},{"rt":1092,"stimulus":"\n\t\t\t\t\t<div>\n\t\t\t\t\t<h2>Trial 23 is over</h2>\n\t\t\t\t\t<p>Press <span style=\"color: red\"><strong>any key</strong></span> to continue to the next trial</p>\n\t\t\t\t\t</div>\n\t\t\t\t","response":"n","trial_type":"html-keyboard-response","trial_index":97,"time_elapsed":648267,"internal_node_id":"0.0-3.0-3.22","prolific_id":"5e0e49cfbf3d4e5b0925b2a3","session_id":"643c252673702c496c141a03","study_id":"64370a36d30bfa807bc7e43c"},{"rt":10473,"response":{"prediction":"33"},"trial_type":"survey-text","trial_index":98,"time_elapsed":658741,"internal_node_id":"0.0-3.0-0.23","prolific_id":"5e0e49cfbf3d4e5b0925b2a3","session_id":"643c252673702c496c141a03","study_id":"64370a36d30bfa807bc7e43c"},{"rt":3080,"response":{"prior knowledge":1,"curiosity":5},"accuracy":[],"trial_type":"survey","trial_index":99,"time_elapsed":661839,"internal_node_id":"0.0-3.0-1.23","prolific_id":"5e0e49cfbf3d4e5b0925b2a3","session_id":"643c252673702c496c141a03","study_id":"64370a36d30bfa807bc7e43c"},{"rt":null,"stimulus":"\n\t\t\t<div class=\"flip_card\">\n\t\t\t\t<div class=\"flip_card_inner\">\n\t\t\t\t\t<div class=\"flip_card_front\">\n\t\t\t\t\t\t<img src=img/3.png>\n\t\t\t\t\t</div>\n\t\t\t\t\t<div class=\"flip_card_back\">\n\t\t\t\t\t\t<h2>How many constellations are there?</h2>\n\t\t\t\t\t\t<br>\n\t\t\t\t\t\t<p>Answer: <strong>88</strong></p>\n\t\t\t\t\t</div>\n\t\t\t\t</div>\n\t\t\t</div>\n\t\t\t","response":null,"trial_type":"html-keyboard-response","trial_index":100,"time_elapsed":666843,"internal_node_id":"0.0-3.0-2.23","prolific_id":"5e0e49cfbf3d4e5b0925b2a3","session_id":"643c252673702c496c141a03","study_id":"64370a36d30bfa807bc7e43c"},{"rt":1039,"stimulus":"\n\t\t\t\t\t<div>\n\t\t\t\t\t<h2>Trial 24 is over</h2>\n\t\t\t\t\t<p>Press <span style=\"color: red\"><strong>any key</strong></span> to continue to the next trial</p>\n\t\t\t\t\t</div>\n\t\t\t\t","response":"n","trial_type":"html-keyboard-response","trial_index":101,"time_elapsed":667883,"internal_node_id":"0.0-3.0-3.23","prolific_id":"5e0e49cfbf3d4e5b0925b2a3","session_id":"643c252673702c496c141a03","study_id":"64370a36d30bfa807bc7e43c"},{"rt":7562,"response":{"prediction":"52"},"trial_type":"survey-text","trial_index":102,"time_elapsed":675447,"internal_node_id":"0.0-3.0-0.24","prolific_id":"5e0e49cfbf3d4e5b0925b2a3","session_id":"643c252673702c496c141a03","study_id":"64370a36d30bfa807bc7e43c"},{"rt":3475,"response":{"prior knowledge":1,"curiosity":5},"accuracy":[],"trial_type":"survey","trial_index":103,"time_elapsed":678942,"internal_node_id":"0.0-3.0-1.24","prolific_id":"5e0e49cfbf3d4e5b0925b2a3","session_id":"643c252673702c496c141a03","study_id":"64370a36d30bfa807bc7e43c"},{"rt":null,"stimulus":"\n\t\t\t<div class=\"flip_card\">\n\t\t\t\t<div class=\"flip_card_inner\">\n\t\t\t\t\t<div class=\"flip_card_front\">\n\t\t\t\t\t\t<img src=img/21.png>\n\t\t\t\t\t</div>\n\t\t\t\t\t<div class=\"flip_card_back\">\n\t\t\t\t\t\t<h2>How many books has Stephen King published?</h2>\n\t\t\t\t\t\t<br>\n\t\t\t\t\t\t<p>Answer: <strong>65</strong></p>\n\t\t\t\t\t</div>\n\t\t\t\t</div>\n\t\t\t</div>\n\t\t\t","response":null,"trial_type":"html-keyboard-response","trial_index":104,"time_elapsed":683947,"internal_node_id":"0.0-3.0-2.24","prolific_id":"5e0e49cfbf3d4e5b0925b2a3","session_id":"643c252673702c496c141a03","study_id":"64370a36d30bfa807bc7e43c"},{"rt":1030,"stimulus":"\n\t\t\t\t\t<div>\n\t\t\t\t\t<h2>Trial 25 is over</h2>\n\t\t\t\t\t<p>Press <span style=\"color: red\"><strong>any key</strong></span> to continue to the next trial</p>\n\t\t\t\t\t</div>\n\t\t\t\t","response":"n","trial_type":"html-keyboard-response","trial_index":105,"time_elapsed":684977,"internal_node_id":"0.0-3.0-3.24","prolific_id":"5e0e49cfbf3d4e5b0925b2a3","session_id":"643c252673702c496c141a03","study_id":"64370a36d30bfa807bc7e43c"},{"rt":9595,"response":{"prediction":"6"},"trial_type":"survey-text","trial_index":106,"time_elapsed":694574,"internal_node_id":"0.0-3.0-0.25","prolific_id":"5e0e49cfbf3d4e5b0925b2a3","session_id":"643c252673702c496c141a03","study_id":"64370a36d30bfa807bc7e43c"},{"rt":3456,"response":{"prior knowledge":0,"curiosity":5},"accuracy":[],"trial_type":"survey","trial_index":107,"time_elapsed":698050,"internal_node_id":"0.0-3.0-1.25","prolific_id":"5e0e49cfbf3d4e5b0925b2a3","session_id":"643c252673702c496c141a03","study_id":"64370a36d30bfa807bc7e43c"},{"rt":null,"stimulus":"\n\t\t\t<div class=\"flip_card\">\n\t\t\t\t<div class=\"flip_card_inner\">\n\t\t\t\t\t<div class=\"flip_card_front\">\n\t\t\t\t\t\t<img src=img/24.png>\n\t\t\t\t\t</div>\n\t\t\t\t\t<div class=\"flip_card_back\">\n\t\t\t\t\t\t<h2>How many main islands make up Japan?</h2>\n\t\t\t\t\t\t<br>\n\t\t\t\t\t\t<p>Answer: <strong>4</strong></p>\n\t\t\t\t\t</div>\n\t\t\t\t</div>\n\t\t\t</div>\n\t\t\t","response":null,"trial_type":"html-keyboard-response","trial_index":108,"time_elapsed":703061,"internal_node_id":"0.0-3.0-2.25","prolific_id":"5e0e49cfbf3d4e5b0925b2a3","session_id":"643c252673702c496c141a03","study_id":"64370a36d30bfa807bc7e43c"},{"rt":1096,"stimulus":"\n\t\t\t\t\t<div>\n\t\t\t\t\t<h2>Trial 26 is over</h2>\n\t\t\t\t\t<p>Press <span style=\"color: red\"><strong>any key</strong></span> to continue to the next trial</p>\n\t\t\t\t\t</div>\n\t\t\t\t","response":"g","trial_type":"html-keyboard-response","trial_index":109,"time_elapsed":704157,"internal_node_id":"0.0-3.0-3.25","prolific_id":"5e0e49cfbf3d4e5b0925b2a3","session_id":"643c252673702c496c141a03","study_id":"64370a36d30bfa807bc7e43c"},{"rt":5837,"response":{"prediction":"14"},"trial_type":"survey-text","trial_index":110,"time_elapsed":709996,"internal_node_id":"0.0-3.0-0.26","prolific_id":"5e0e49cfbf3d4e5b0925b2a3","session_id":"643c252673702c496c141a03","study_id":"64370a36d30bfa807bc7e43c"},{"rt":3848,"response":{"prior knowledge":1,"curiosity":5},"accuracy":[],"trial_type":"survey","trial_index":111,"time_elapsed":713862,"internal_node_id":"0.0-3.0-1.26","prolific_id":"5e0e49cfbf3d4e5b0925b2a3","session_id":"643c252673702c496c141a03","study_id":"64370a36d30bfa807bc7e43c"},{"rt":null,"stimulus":"\n\t\t\t<div class=\"flip_card\">\n\t\t\t\t<div class=\"flip_card_inner\">\n\t\t\t\t\t<div class=\"flip_card_front\">\n\t\t\t\t\t\t<img src=img/2.png>\n\t\t\t\t\t</div>\n\t\t\t\t\t<div class=\"flip_card_back\">\n\t\t\t\t\t\t<h2>How old was King Tut when he died?</h2>\n\t\t\t\t\t\t<br>\n\t\t\t\t\t\t<p>Answer: <strong>19</strong></p>\n\t\t\t\t\t</div>\n\t\t\t\t</div>\n\t\t\t</div>\n\t\t\t","response":null,"trial_type":"html-keyboard-response","trial_index":112,"time_elapsed":718869,"internal_node_id":"0.0-3.0-2.26","prolific_id":"5e0e49cfbf3d4e5b0925b2a3","session_id":"643c252673702c496c141a03","study_id":"64370a36d30bfa807bc7e43c"},{"rt":1221,"stimulus":"\n\t\t\t\t\t<div>\n\t\t\t\t\t<h2>Trial 27 is over</h2>\n\t\t\t\t\t<p>Press <span style=\"color: red\"><strong>any key</strong></span> to continue to the next trial</p>\n\t\t\t\t\t</div>\n\t\t\t\t","response":"f","trial_type":"html-keyboard-response","trial_index":113,"time_elapsed":720090,"internal_node_id":"0.0-3.0-3.26","prolific_id":"5e0e49cfbf3d4e5b0925b2a3","session_id":"643c252673702c496c141a03","study_id":"64370a36d30bfa807bc7e43c"},{"rt":10241,"response":{"prediction":"2080"},"trial_type":"survey-text","trial_index":114,"time_elapsed":730333,"internal_node_id":"0.0-3.0-0.27","prolific_id":"5e0e49cfbf3d4e5b0925b2a3","session_id":"643c252673702c496c141a03","study_id":"64370a36d30bfa807bc7e43c"},{"rt":5401,"response":{"prior knowledge":1,"curiosity":5},"accuracy":[],"trial_type":"survey","trial_index":115,"time_elapsed":735752,"internal_node_id":"0.0-3.0-1.27","prolific_id":"5e0e49cfbf3d4e5b0925b2a3","session_id":"643c252673702c496c141a03","study_id":"64370a36d30bfa807bc7e43c"},{"rt":null,"stimulus":"\n\t\t\t<div class=\"flip_card\">\n\t\t\t\t<div class=\"flip_card_inner\">\n\t\t\t\t\t<div class=\"flip_card_front\">\n\t\t\t\t\t\t<img src=img/17.png>\n\t\t\t\t\t</div>\n\t\t\t\t\t<div class=\"flip_card_back\">\n\t\t\t\t\t\t<h2>What is the diameter of Earth in miles?</h2>\n\t\t\t\t\t\t<br>\n\t\t\t\t\t\t<p>Answer: <strong>7917.5</strong></p>\n\t\t\t\t\t</div>\n\t\t\t\t</div>\n\t\t\t</div>\n\t\t\t","response":null,"trial_type":"html-keyboard-response","trial_index":116,"time_elapsed":740757,"internal_node_id":"0.0-3.0-2.27","prolific_id":"5e0e49cfbf3d4e5b0925b2a3","session_id":"643c252673702c496c141a03","study_id":"64370a36d30bfa807bc7e43c"},{"rt":1314,"stimulus":"\n\t\t\t\t\t<div>\n\t\t\t\t\t<h2>Trial 28 is over</h2>\n\t\t\t\t\t<p>Press <span style=\"color: red\"><strong>any key</strong></span> to continue to the next trial</p>\n\t\t\t\t\t</div>\n\t\t\t\t","response":"n","trial_type":"html-keyboard-response","trial_index":117,"time_elapsed":742071,"internal_node_id":"0.0-3.0-3.27","prolific_id":"5e0e49cfbf3d4e5b0925b2a3","session_id":"643c252673702c496c141a03","study_id":"64370a36d30bfa807bc7e43c"},{"rt":32066,"response":{"prediction":"2006"},"trial_type":"survey-text","trial_index":118,"time_elapsed":774139,"internal_node_id":"0.0-3.0-0.28","prolific_id":"5e0e49cfbf3d4e5b0925b2a3","session_id":"643c252673702c496c141a03","study_id":"64370a36d30bfa807bc7e43c"},{"rt":4712,"response":{"prior knowledge":1,"curiosity":5},"accuracy":[],"trial_type":"survey","trial_index":119,"time_elapsed":778870,"internal_node_id":"0.0-3.0-1.28","prolific_id":"5e0e49cfbf3d4e5b0925b2a3","session_id":"643c252673702c496c141a03","study_id":"64370a36d30bfa807bc7e43c"},{"rt":null,"stimulus":"\n\t\t\t<div class=\"flip_card\">\n\t\t\t\t<div class=\"flip_card_inner\">\n\t\t\t\t\t<div class=\"flip_card_front\">\n\t\t\t\t\t\t<img src=img/14.png>\n\t\t\t\t\t</div>\n\t\t\t\t\t<div class=\"flip_card_back\">\n\t\t\t\t\t\t<h2>What year was the very first model of the iPhone released?</h2>\n\t\t\t\t\t\t<br>\n\t\t\t\t\t\t<p>Answer: <strong>2007</strong></p>\n\t\t\t\t\t</div>\n\t\t\t\t</div>\n\t\t\t</div>\n\t\t\t","response":null,"trial_type":"html-keyboard-response","trial_index":120,"time_elapsed":783876,"internal_node_id":"0.0-3.0-2.28","prolific_id":"5e0e49cfbf3d4e5b0925b2a3","session_id":"643c252673702c496c141a03","study_id":"64370a36d30bfa807bc7e43c"},{"rt":10252,"stimulus":"\n\t\t\t\t\t<div>\n\t\t\t\t\t<h2>Trial 29 is over</h2>\n\t\t\t\t\t<p>Press <span style=\"color: red\"><strong>any key</strong></span> to continue to the next trial</p>\n\t\t\t\t\t</div>\n\t\t\t\t","response":"m","trial_type":"html-keyboard-response","trial_index":121,"time_elapsed":794128,"internal_node_id":"0.0-3.0-3.28","prolific_id":"5e0e49cfbf3d4e5b0925b2a3","session_id":"643c252673702c496c141a03","study_id":"64370a36d30bfa807bc7e43c"},{"rt":4428,"response":{"prediction":"13"},"trial_type":"survey-text","trial_index":122,"time_elapsed":798558,"internal_node_id":"0.0-3.0-0.29","prolific_id":"5e0e49cfbf3d4e5b0925b2a3","session_id":"643c252673702c496c141a03","study_id":"64370a36d30bfa807bc7e43c"},{"rt":3621,"response":{"prior knowledge":5,"curiosity":5},"accuracy":[],"trial_type":"survey","trial_index":123,"time_elapsed":802198,"internal_node_id":"0.0-3.0-1.29","prolific_id":"5e0e49cfbf3d4e5b0925b2a3","session_id":"643c252673702c496c141a03","study_id":"64370a36d30bfa807bc7e43c"},{"rt":null,"stimulus":"\n\t\t\t<div class=\"flip_card\">\n\t\t\t\t<div class=\"flip_card_inner\">\n\t\t\t\t\t<div class=\"flip_card_front\">\n\t\t\t\t\t\t<img src=img/22.png>\n\t\t\t\t\t</div>\n\t\t\t\t\t<div class=\"flip_card_back\">\n\t\t\t\t\t\t<h2>A bar mitzvah is traditionally celebrated when Jewish males turn what age?</h2>\n\t\t\t\t\t\t<br>\n\t\t\t\t\t\t<p>Answer: <strong>13</strong></p>\n\t\t\t\t\t</div>\n\t\t\t\t</div>\n\t\t\t</div>\n\t\t\t","response":null,"trial_type":"html-keyboard-response","trial_index":124,"time_elapsed":807204,"internal_node_id":"0.0-3.0-2.29","prolific_id":"5e0e49cfbf3d4e5b0925b2a3","session_id":"643c252673702c496c141a03","study_id":"64370a36d30bfa807bc7e43c"},{"rt":1160,"stimulus":"\n\t\t\t\t\t<div>\n\t\t\t\t\t<h2>Trial 30 is over</h2>\n\t\t\t\t\t<p>Press <span style=\"color: red\"><strong>any key</strong></span> to continue to the next trial</p>\n\t\t\t\t\t</div>\n\t\t\t\t","response":"n","trial_type":"html-keyboard-response","trial_index":125,"time_elapsed":808364,"internal_node_id":"0.0-3.0-3.29","prolific_id":"5e0e49cfbf3d4e5b0925b2a3","session_id":"643c252673702c496c141a03","study_id":"64370a36d30bfa807bc7e43c"},{"rt":null,"stimulus":"\n\t\t\t<h2>Good job! You've finished the 30 trials:p</h2>\n\t\t\t<p>In the next session, you will see two cards on the screen in each trial.</p>\n\t\t\t<p>On one card is a pattern that you have seen before in the experiment,\n\t\t\t\tand on the other card is one you have not seen.</p><br>\n\t\t\t<p>Your task is to choose the one you think you <em>have</em> seen before for every trial.</p>\n\t\t\t<p>Press '<span style=\"color: red;\"><strong>F</strong></span>' to choose the card on the left,\n\t\t\t\tand '<span style=\"color: red;\"><strong>J</strong></span>' to choose the card on the right.</p>\n\t\t\t<p>Have fun!</p>\n\t\t\t<br>\n\t\t\t<p>The trials will begin in 30 seconds</p>\n\t\t\t","response":null,"trial_type":"html-keyboard-response","trial_index":126,"time_elapsed":838372,"internal_node_id":"0.0-4.0","prolific_id":"5e0e49cfbf3d4e5b0925b2a3","session_id":"643c252673702c496c141a03","study_id":"64370a36d30bfa807bc7e43c"},{"rt":4117,"stimulus":"\n\t\t\t\t\t\t<div class=\"two_card_container\">\n\t\t\t\t\t\t<div class=\"card_container\">\n\t\t\t\t\t\t<img src=img/31.png>\n\t\t\t\t\t\t</div>\n\n\t\t\t\t\t\t<div class=\"card_container\">\n\t\t\t\t\t\t<img src=img/3.png>\n\t\t\t\t\t\t</div>","response":"j","task":"response","correct_response":"j","trial_type":"html-keyboard-response","trial_index":127,"time_elapsed":842493,"internal_node_id":"0.0-5.0-0.0","prolific_id":"5e0e49cfbf3d4e5b0925b2a3","session_id":"643c252673702c496c141a03","study_id":"64370a36d30bfa807bc7e43c","correct":true},{"rt":null,"stimulus":"\n\t\t\t\t\t<p>Correct!</p>\n\t\t\t\t\t","response":null,"trial_type":"html-keyboard-response","trial_index":128,"time_elapsed":843497,"internal_node_id":"0.0-5.0-1.0","prolific_id":"5e0e49cfbf3d4e5b0925b2a3","session_id":"643c252673702c496c141a03","study_id":"64370a36d30bfa807bc7e43c"},{"rt":14894,"stimulus":"\n\t\t\t\t\t\t<div class=\"two_card_container\">\n\t\t\t\t\t\t<div class=\"card_container\">\n\t\t\t\t\t\t<img src=img/7.png>\n\t\t\t\t\t\t</div>\n\n\t\t\t\t\t\t<div class=\"card_container\">\n\t\t\t\t\t\t<img src=img/32.png>\n\t\t\t\t\t\t</div>","response":"f","task":"response","correct_response":"f","trial_type":"html-keyboard-response","trial_index":129,"time_elapsed":858392,"internal_node_id":"0.0-5.0-0.1","prolific_id":"5e0e49cfbf3d4e5b0925b2a3","session_id":"643c252673702c496c141a03","study_id":"64370a36d30bfa807bc7e43c","correct":true},{"rt":null,"stimulus":"\n\t\t\t\t\t<p>Correct!</p>\n\t\t\t\t\t","response":null,"trial_type":"html-keyboard-response","trial_index":130,"time_elapsed":859395,"internal_node_id":"0.0-5.0-1.1","prolific_id":"5e0e49cfbf3d4e5b0925b2a3","session_id":"643c252673702c496c141a03","study_id":"64370a36d30bfa807bc7e43c"},{"rt":2151,"stimulus":"\n\t\t\t\t\t\t<div class=\"two_card_container\">\n\t\t\t\t\t\t<div class=\"card_container\">\n\t\t\t\t\t\t<img src=img/29.png>\n\t\t\t\t\t\t</div>\n\n\t\t\t\t\t\t<div class=\"card_container\">\n\t\t\t\t\t\t<img src=img/36.png>\n\t\t\t\t\t\t</div>","response":"f","task":"response","correct_response":"f","trial_type":"html-keyboard-response","trial_index":131,"time_elapsed":861547,"internal_node_id":"0.0-5.0-0.2","prolific_id":"5e0e49cfbf3d4e5b0925b2a3","session_id":"643c252673702c496c141a03","study_id":"64370a36d30bfa807bc7e43c","correct":true},{"rt":null,"stimulus":"\n\t\t\t\t\t<p>Correct!</p>\n\t\t\t\t\t","response":null,"trial_type":"html-keyboard-response","trial_index":132,"time_elapsed":862553,"internal_node_id":"0.0-5.0-1.2","prolific_id":"5e0e49cfbf3d4e5b0925b2a3","session_id":"643c252673702c496c141a03","study_id":"64370a36d30bfa807bc7e43c"},{"rt":1425,"stimulus":"\n\t\t\t\t\t\t<div class=\"two_card_container\">\n\t\t\t\t\t\t<div class=\"card_container\">\n\t\t\t\t\t\t<img src=img/37.png>\n\t\t\t\t\t\t</div>\n\n\t\t\t\t\t\t<div class=\"card_container\">\n\t\t\t\t\t\t<img src=img/24.png>\n\t\t\t\t\t\t</div>","response":"j","task":"response","correct_response":"j","trial_type":"html-keyboard-response","trial_index":133,"time_elapsed":863979,"internal_node_id":"0.0-5.0-0.3","prolific_id":"5e0e49cfbf3d4e5b0925b2a3","session_id":"643c252673702c496c141a03","study_id":"64370a36d30bfa807bc7e43c","correct":true},{"rt":null,"stimulus":"\n\t\t\t\t\t<p>Correct!</p>\n\t\t\t\t\t","response":null,"trial_type":"html-keyboard-response","trial_index":134,"time_elapsed":864984,"internal_node_id":"0.0-5.0-1.3","prolific_id":"5e0e49cfbf3d4e5b0925b2a3","session_id":"643c252673702c496c141a03","study_id":"64370a36d30bfa807bc7e43c"},{"rt":2220,"stimulus":"\n\t\t\t\t\t\t<div class=\"two_card_container\">\n\t\t\t\t\t\t<div class=\"card_container\">\n\t\t\t\t\t\t<img src=img/2.png>\n\t\t\t\t\t\t</div>\n\n\t\t\t\t\t\t<div class=\"card_container\">\n\t\t\t\t\t\t<img src=img/40.png>\n\t\t\t\t\t\t</div>","response":"f","task":"response","correct_response":"f","trial_type":"html-keyboard-response","trial_index":135,"time_elapsed":867205,"internal_node_id":"0.0-5.0-0.4","prolific_id":"5e0e49cfbf3d4e5b0925b2a3","session_id":"643c252673702c496c141a03","study_id":"64370a36d30bfa807bc7e43c","correct":true},{"rt":null,"stimulus":"\n\t\t\t\t\t<p>Correct!</p>\n\t\t\t\t\t","response":null,"trial_type":"html-keyboard-response","trial_index":136,"time_elapsed":868211,"internal_node_id":"0.0-5.0-1.4","prolific_id":"5e0e49cfbf3d4e5b0925b2a3","session_id":"643c252673702c496c141a03","study_id":"64370a36d30bfa807bc7e43c"},{"rt":1389,"stimulus":"\n\t\t\t\t\t\t<div class=\"two_card_container\">\n\t\t\t\t\t\t<div class=\"card_container\">\n\t\t\t\t\t\t<img src=img/38.png>\n\t\t\t\t\t\t</div>\n\n\t\t\t\t\t\t<div class=\"card_container\">\n\t\t\t\t\t\t<img src=img/11.png>\n\t\t\t\t\t\t</div>","response":"j","task":"response","correct_response":"j","trial_type":"html-keyboard-response","trial_index":137,"time_elapsed":869601,"internal_node_id":"0.0-5.0-0.5","prolific_id":"5e0e49cfbf3d4e5b0925b2a3","session_id":"643c252673702c496c141a03","study_id":"64370a36d30bfa807bc7e43c","correct":true},{"rt":null,"stimulus":"\n\t\t\t\t\t<p>Correct!</p>\n\t\t\t\t\t","response":null,"trial_type":"html-keyboard-response","trial_index":138,"time_elapsed":870611,"internal_node_id":"0.0-5.0-1.5","prolific_id":"5e0e49cfbf3d4e5b0925b2a3","session_id":"643c252673702c496c141a03","study_id":"64370a36d30bfa807bc7e43c"},{"rt":970,"stimulus":"\n\t\t\t\t\t\t<div class=\"two_card_container\">\n\t\t\t\t\t\t<div class=\"card_container\">\n\t\t\t\t\t\t<img src=img/33.png>\n\t\t\t\t\t\t</div>\n\n\t\t\t\t\t\t<div class=\"card_container\">\n\t\t\t\t\t\t<img src=img/21.png>\n\t\t\t\t\t\t</div>","response":"j","task":"response","correct_response":"j","trial_type":"html-keyboard-response","trial_index":139,"time_elapsed":871582,"internal_node_id":"0.0-5.0-0.6","prolific_id":"5e0e49cfbf3d4e5b0925b2a3","session_id":"643c252673702c496c141a03","study_id":"64370a36d30bfa807bc7e43c","correct":true},{"rt":null,"stimulus":"\n\t\t\t\t\t<p>Correct!</p>\n\t\t\t\t\t","response":null,"trial_type":"html-keyboard-response","trial_index":140,"time_elapsed":872584,"internal_node_id":"0.0-5.0-1.6","prolific_id":"5e0e49cfbf3d4e5b0925b2a3","session_id":"643c252673702c496c141a03","study_id":"64370a36d30bfa807bc7e43c"},{"rt":2342,"stimulus":"\n\t\t\t\t\t\t<div class=\"two_card_container\">\n\t\t\t\t\t\t<div class=\"card_container\">\n\t\t\t\t\t\t<img src=img/1.png>\n\t\t\t\t\t\t</div>\n\n\t\t\t\t\t\t<div class=\"card_container\">\n\t\t\t\t\t\t<img src=img/39.png>\n\t\t\t\t\t\t</div>","response":"f","task":"response","correct_response":"f","trial_type":"html-keyboard-response","trial_index":141,"time_elapsed":874927,"internal_node_id":"0.0-5.0-0.7","prolific_id":"5e0e49cfbf3d4e5b0925b2a3","session_id":"643c252673702c496c141a03","study_id":"64370a36d30bfa807bc7e43c","correct":true},{"rt":null,"stimulus":"\n\t\t\t\t\t<p>Correct!</p>\n\t\t\t\t\t","response":null,"trial_type":"html-keyboard-response","trial_index":142,"time_elapsed":875928,"internal_node_id":"0.0-5.0-1.7","prolific_id":"5e0e49cfbf3d4e5b0925b2a3","session_id":"643c252673702c496c141a03","study_id":"64370a36d30bfa807bc7e43c"},{"rt":1454,"stimulus":"\n\t\t\t\t\t\t<div class=\"two_card_container\">\n\t\t\t\t\t\t<div class=\"card_container\">\n\t\t\t\t\t\t<img src=img/35.png>\n\t\t\t\t\t\t</div>\n\n\t\t\t\t\t\t<div class=\"card_container\">\n\t\t\t\t\t\t<img src=img/18.png>\n\t\t\t\t\t\t</div>","response":"f","task":"response","correct_response":"j","trial_type":"html-keyboard-response","trial_index":143,"time_elapsed":877384,"internal_node_id":"0.0-5.0-0.8","prolific_id":"5e0e49cfbf3d4e5b0925b2a3","session_id":"643c252673702c496c141a03","study_id":"64370a36d30bfa807bc7e43c","correct":false},{"rt":null,"stimulus":"\n\t\t\t\t\t<p>Wrong answer</p>\n\t\t\t\t\t","response":null,"trial_type":"html-keyboard-response","trial_index":144,"time_elapsed":878392,"internal_node_id":"0.0-5.0-1.8","prolific_id":"5e0e49cfbf3d4e5b0925b2a3","session_id":"643c252673702c496c141a03","study_id":"64370a36d30bfa807bc7e43c"},{"rt":1233,"stimulus":"\n\t\t\t\t\t\t<div class=\"two_card_container\">\n\t\t\t\t\t\t<div class=\"card_container\">\n\t\t\t\t\t\t<img src=img/4.png>\n\t\t\t\t\t\t</div>\n\n\t\t\t\t\t\t<div class=\"card_container\">\n\t\t\t\t\t\t<img src=img/34.png>\n\t\t\t\t\t\t</div>","response":"f","task":"response","correct_response":"f","trial_type":"html-keyboard-response","trial_index":145,"time_elapsed":879626,"internal_node_id":"0.0-5.0-0.9","prolific_id":"5e0e49cfbf3d4e5b0925b2a3","session_id":"643c252673702c496c141a03","study_id":"64370a36d30bfa807bc7e43c","correct":true},{"rt":null,"stimulus":"\n\t\t\t\t\t<p>Correct!</p>\n\t\t\t\t\t","response":null,"trial_type":"html-keyboard-response","trial_index":146,"time_elapsed":880632,"internal_node_id":"0.0-5.0-1.9","prolific_id":"5e0e49cfbf3d4e5b0925b2a3","session_id":"643c252673702c496c141a03","study_id":"64370a36d30bfa807bc7e43c"},{"rt":null,"stimulus":"\n\t\t\t<h2>Good job :p</h2>\n\t\t\t<p>In the next session, you will see a trivia question on the screen in each trial.</p>\n\t\t\t<p>Each of these trivia questions is chosen from the questions you have already seen in the first session of the experiment.</p><br>\n\t\t\t<p>Your task is to answer the trivia question based on what you remember as accurately as you can.</p>\n\t\t\t<p>Have fun!</p>\n\t\t\t<br>\n\t\t\t<p>The trials will begin in 30 seconds</p>\n\t\t\t","response":null,"trial_type":"html-keyboard-response","trial_index":147,"time_elapsed":910643,"internal_node_id":"0.0-6.0","prolific_id":"5e0e49cfbf3d4e5b0925b2a3","session_id":"643c252673702c496c141a03","study_id":"64370a36d30bfa807bc7e43c"},{"rt":3979,"response":{"answer":"300"},"task":"response","correct_response":"300","trial_type":"survey-text","trial_index":148,"time_elapsed":914626,"internal_node_id":"0.0-7.0-0.0","prolific_id":"5e0e49cfbf3d4e5b0925b2a3","session_id":"643c252673702c496c141a03","study_id":"64370a36d30bfa807bc7e43c","difference":0},{"rt":null,"stimulus":"<h2>The correct answer is 300.</h2><p>Your answer was different from the answer by 0.</p><p>You got the right answer. Amazing work!</p>","response":null,"trial_type":"html-keyboard-response","trial_index":149,"time_elapsed":917128,"internal_node_id":"0.0-7.0-1.0","prolific_id":"5e0e49cfbf3d4e5b0925b2a3","session_id":"643c252673702c496c141a03","study_id":"64370a36d30bfa807bc7e43c"},{"rt":3432,"response":{"answer":"14"},"task":"response","correct_response":"14","trial_type":"survey-text","trial_index":150,"time_elapsed":920563,"internal_node_id":"0.0-7.0-0.1","prolific_id":"5e0e49cfbf3d4e5b0925b2a3","session_id":"643c252673702c496c141a03","study_id":"64370a36d30bfa807bc7e43c","difference":0},{"rt":null,"stimulus":"<h2>The correct answer is 14.</h2><p>Your answer was different from the answer by 0.</p><p>You got the right answer. Amazing work!</p>","response":null,"trial_type":"html-keyboard-response","trial_index":151,"time_elapsed":923074,"internal_node_id":"0.0-7.0-1.1","prolific_id":"5e0e49cfbf3d4e5b0925b2a3","session_id":"643c252673702c496c141a03","study_id":"64370a36d30bfa807bc7e43c"},{"rt":3756,"response":{"answer":"2007"},"task":"response","correct_response":"2007","trial_type":"survey-text","trial_index":152,"time_elapsed":926833,"internal_node_id":"0.0-7.0-0.2","prolific_id":"5e0e49cfbf3d4e5b0925b2a3","session_id":"643c252673702c496c141a03","study_id":"64370a36d30bfa807bc7e43c","difference":0},{"rt":null,"stimulus":"<h2>The correct answer is 2007.</h2><p>Your answer was different from the answer by 0.</p><p>You got the right answer. Amazing work!</p>","response":null,"trial_type":"html-keyboard-response","trial_index":153,"time_elapsed":929340,"internal_node_id":"0.0-7.0-1.2","prolific_id":"5e0e49cfbf3d4e5b0925b2a3","session_id":"643c252673702c496c141a03","study_id":"64370a36d30bfa807bc7e43c"},{"rt":6318,"response":{"answer":"1914"},"task":"response","correct_response":"1912","trial_type":"survey-text","trial_index":154,"time_elapsed":935661,"internal_node_id":"0.0-7.0-0.3","prolific_id":"5e0e49cfbf3d4e5b0925b2a3","session_id":"643c252673702c496c141a03","study_id":"64370a36d30bfa807bc7e43c","difference":0},{"rt":null,"stimulus":"<h2>The correct answer is 1912.</h2><p>Your answer was different from the answer by 2.</p><p>Excellent. Kudos to you!</p>","response":null,"trial_type":"html-keyboard-response","trial_index":155,"time_elapsed":938168,"internal_node_id":"0.0-7.0-1.3","prolific_id":"5e0e49cfbf3d4e5b0925b2a3","session_id":"643c252673702c496c141a03","study_id":"64370a36d30bfa807bc7e43c"},{"rt":12013,"response":{"answer":"1902"},"task":"response","correct_response":"1901","trial_type":"survey-text","trial_index":156,"time_elapsed":950183,"internal_node_id":"0.0-7.0-0.4","prolific_id":"5e0e49cfbf3d4e5b0925b2a3","session_id":"643c252673702c496c141a03","study_id":"64370a36d30bfa807bc7e43c","difference":0},{"rt":null,"stimulus":"<h2>The correct answer is 1901.</h2><p>Your answer was different from the answer by 1.</p><p>Excellent. Kudos to you!</p>","response":null,"trial_type":"html-keyboard-response","trial_index":157,"time_elapsed":952690,"internal_node_id":"0.0-7.0-1.4","prolific_id":"5e0e49cfbf3d4e5b0925b2a3","session_id":"643c252673702c496c141a03","study_id":"64370a36d30bfa807bc7e43c"},{"rt":4244,"response":{"answer":"1989"},"task":"response","correct_response":"1989","trial_type":"survey-text","trial_index":158,"time_elapsed":956937,"internal_node_id":"0.0-7.0-0.5","prolific_id":"5e0e49cfbf3d4e5b0925b2a3","session_id":"643c252673702c496c141a03","study_id":"64370a36d30bfa807bc7e43c","difference":0},{"rt":null,"stimulus":"<h2>The correct answer is 1989.</h2><p>Your answer was different from the answer by 0.</p><p>You got the right answer. Amazing work!</p>","response":null,"trial_type":"html-keyboard-response","trial_index":159,"time_elapsed":959442,"internal_node_id":"0.0-7.0-1.5","prolific_id":"5e0e49cfbf3d4e5b0925b2a3","session_id":"643c252673702c496c141a03","study_id":"64370a36d30bfa807bc7e43c"},{"rt":4726,"response":{"answer":"64"},"task":"response","correct_response":"65","trial_type":"survey-text","trial_index":160,"time_elapsed":964171,"internal_node_id":"0.0-7.0-0.6","prolific_id":"5e0e49cfbf3d4e5b0925b2a3","session_id":"643c252673702c496c141a03","study_id":"64370a36d30bfa807bc7e43c","difference":2},{"rt":null,"stimulus":"<h2>The correct answer is 65.</h2><p>Your answer was different from the answer by 1.</p><p>Excellent. Kudos to you!</p>","response":null,"trial_type":"html-keyboard-response","trial_index":161,"time_elapsed":966679,"internal_node_id":"0.0-7.0-1.6","prolific_id":"5e0e49cfbf3d4e5b0925b2a3","session_id":"643c252673702c496c141a03","study_id":"64370a36d30bfa807bc7e43c"},{"rt":8704,"response":{"answer":"1901"},"task":"response","correct_response":"1896","trial_type":"survey-text","trial_index":162,"time_elapsed":975386,"internal_node_id":"0.0-7.0-0.7","prolific_id":"5e0e49cfbf3d4e5b0925b2a3","session_id":"643c252673702c496c141a03","study_id":"64370a36d30bfa807bc7e43c","difference":0},{"rt":null,"stimulus":"<h2>The correct answer is 1896.</h2><p>Your answer was different from the answer by 5.</p><p>Excellent. Kudos to you!</p>","response":null,"trial_type":"html-keyboard-response","trial_index":163,"time_elapsed":977890,"internal_node_id":"0.0-7.0-1.7","prolific_id":"5e0e49cfbf3d4e5b0925b2a3","session_id":"643c252673702c496c141a03","study_id":"64370a36d30bfa807bc7e43c"},{"rt":4559,"response":{"answer":"13"},"task":"response","correct_response":"14","trial_type":"survey-text","trial_index":164,"time_elapsed":982452,"internal_node_id":"0.0-7.0-0.8","prolific_id":"5e0e49cfbf3d4e5b0925b2a3","session_id":"643c252673702c496c141a03","study_id":"64370a36d30bfa807bc7e43c","difference":7},{"rt":null,"stimulus":"<h2>The correct answer is 14.</h2><p>Your answer was different from the answer by 1.</p><p>Excellent. Kudos to you!</p>","response":null,"trial_type":"html-keyboard-response","trial_index":165,"time_elapsed":984962,"internal_node_id":"0.0-7.0-1.8","prolific_id":"5e0e49cfbf3d4e5b0925b2a3","session_id":"643c252673702c496c141a03","study_id":"64370a36d30bfa807bc7e43c"},{"rt":7070,"response":{"answer":"102"},"task":"response","correct_response":"108","trial_type":"survey-text","trial_index":166,"time_elapsed":992034,"internal_node_id":"0.0-7.0-0.9","prolific_id":"5e0e49cfbf3d4e5b0925b2a3","session_id":"643c252673702c496c141a03","study_id":"64370a36d30bfa807bc7e43c","difference":6},{"rt":null,"stimulus":"<h2>The correct answer is 108.</h2><p>Your answer was different from the answer by 6.</p><p>Excellent. Kudos to you!</p>","response":null,"trial_type":"html-keyboard-response","trial_index":167,"time_elapsed":994545,"internal_node_id":"0.0-7.0-1.9","prolific_id":"5e0e49cfbf3d4e5b0925b2a3","session_id":"643c252673702c496c141a03","study_id":"64370a36d30bfa807bc7e43c"}]