[{"success":true,"timeout":false,"failed_images":[],"failed_audio":[],"failed_video":[],"trial_type":"preload","trial_index":0,"time_elapsed":3646,"internal_node_id":"0.0-0.0","prolific_id":"5e1b299528c70235eeed62ef","session_id":"643c2534193a7d486b20a32e","study_id":"64370a36d30bfa807bc7e43c"},{"rt":16386,"stimulus":"\n\t\t\t\t\t<p>Welcome and thank you for participating in this study!</p>\n\t\t\t\t\t<p>In each trial, you will be given a trivia question and then be asked to:</p><br>\n\t\t\t\t\t<div class=\"list\">\n\t\t\t\t\t<p>1) Predict the answer</p>\n\t\t\t\t\t<p>2) Rate how much you already know about the topic</p>\n\t\t\t\t\t<p>3) Rate how much you want to know the answer</p>\n\t\t\t\t\t</div>\n\t\t\t\t\t<br>\n\t\t\t\t\t<p>Then, you will see a card that flips over to reveal the answer.</p>\n\t\t\t\t\t<br>\n\t\t\t\t\t<p>Let's try a practice round. Press <span style=\"color: red\"><strong>any key</strong></span> to move to the next slide</p>\n\t\t\t\t\t","response":"enter","trial_type":"html-keyboard-response","trial_index":1,"time_elapsed":20033,"internal_node_id":"0.0-1.0","prolific_id":"5e1b299528c70235eeed62ef","session_id":"643c2534193a7d486b20a32e","study_id":"64370a36d30bfa807bc7e43c"},{"rt":4352,"response":{"practice prediction":"6"},"task":"practice","trial_type":"survey-text","trial_index":2,"time_elapsed":24398,"internal_node_id":"0.0-2.0-0.0","prolific_id":"5e1b299528c70235eeed62ef","session_id":"643c2534193a7d486b20a32e","study_id":"64370a36d30bfa807bc7e43c"},{"rt":7296,"response":{"practice":5},"accuracy":[],"trial_type":"survey","trial_index":3,"time_elapsed":31727,"internal_node_id":"0.0-2.0-1.0","prolific_id":"5e1b299528c70235eeed62ef","session_id":"643c2534193a7d486b20a32e","study_id":"64370a36d30bfa807bc7e43c"},{"rt":null,"stimulus":"\n\t\t\t\t<div class=\"flip_card\">\n\t\t\t\t\t<div class=\"flip_card_inner\">\n\t\t\t\t\t\t<div class=\"flip_card_front\">\n\t\t\t\t\t\t\t<img src=img/practice.png>\n\t\t\t\t\t\t</div>\n\t\t\t\t\t\t<div class=\"flip_card_back\">\n\t\t\t\t\t\t\t<h2>\"How many legs does a lobster have?\"</h2>\n\t\t\t\t\t\t    <br>\n\t\t\t\t\t\t    <p>Answer: <strong>\"10\"</strong></p>\n\t\t\t\t\t    </div>\n\t\t\t\t    </div>\n\t\t\t    </div>\n\t\t\t\t","response":null,"trial_type":"html-keyboard-response","trial_index":4,"time_elapsed":36732,"internal_node_id":"0.0-2.0-2.0","prolific_id":"5e1b299528c70235eeed62ef","session_id":"643c2534193a7d486b20a32e","study_id":"64370a36d30bfa807bc7e43c"},{"rt":2518,"stimulus":"\n\t\t\t\t\t<div>\n\t\t\t\t\t<h2>The practice round is over</h2>\n\t\t\t\t\t<p>Press <span style=\"color: red\"><strong>any key</strong></span> to continue to the actual trials</p>\n\t\t\t\t\t<p>Good Luck!</p>\n\t\t\t\t\t</div>\n\t\t\t\t\t","response":"enter","trial_type":"html-keyboard-response","trial_index":5,"time_elapsed":39250,"internal_node_id":"0.0-2.0-3.0","prolific_id":"5e1b299528c70235eeed62ef","session_id":"643c2534193a7d486b20a32e","study_id":"64370a36d30bfa807bc7e43c"},{"rt":5354,"response":{"prediction":"29"},"trial_type":"survey-text","trial_index":6,"time_elapsed":44605,"internal_node_id":"0.0-3.0-0.0","prolific_id":"5e1b299528c70235eeed62ef","session_id":"643c2534193a7d486b20a32e","study_id":"64370a36d30bfa807bc7e43c"},{"rt":4013,"response":{"prior knowledge":1,"curiosity":5},"accuracy":[],"trial_type":"survey","trial_index":7,"time_elapsed":48626,"internal_node_id":"0.0-3.0-1.0","prolific_id":"5e1b299528c70235eeed62ef","session_id":"643c2534193a7d486b20a32e","study_id":"64370a36d30bfa807bc7e43c"},{"rt":null,"stimulus":"\n\t\t\t<div class=\"flip_card\">\n\t\t\t\t<div class=\"flip_card_inner\">\n\t\t\t\t\t<div class=\"flip_card_front\">\n\t\t\t\t\t\t<img src=img/26.png>\n\t\t\t\t\t</div>\n\t\t\t\t\t<div class=\"flip_card_back\">\n\t\t\t\t\t\t<h2>How many countries are in Africa?</h2>\n\t\t\t\t\t\t<br>\n\t\t\t\t\t\t<p>Answer: <strong>54</strong></p>\n\t\t\t\t\t</div>\n\t\t\t\t</div>\n\t\t\t</div>\n\t\t\t","response":null,"trial_type":"html-keyboard-response","trial_index":8,"time_elapsed":53637,"internal_node_id":"0.0-3.0-2.0","prolific_id":"5e1b299528c70235eeed62ef","session_id":"643c2534193a7d486b20a32e","study_id":"64370a36d30bfa807bc7e43c"},{"rt":2576,"stimulus":"\n\t\t\t\t\t<div>\n\t\t\t\t\t<h2>Trial 1 is over</h2>\n\t\t\t\t\t<p>Press <span style=\"color: red\"><strong>any key</strong></span> to continue to the next trial</p>\n\t\t\t\t\t</div>\n\t\t\t\t","response":"enter","trial_type":"html-keyboard-response","trial_index":9,"time_elapsed":56214,"internal_node_id":"0.0-3.0-3.0","prolific_id":"5e1b299528c70235eeed62ef","session_id":"643c2534193a7d486b20a32e","study_id":"64370a36d30bfa807bc7e43c"},{"rt":5086,"response":{"prediction":"204"},"trial_type":"survey-text","trial_index":10,"time_elapsed":61301,"internal_node_id":"0.0-3.0-0.1","prolific_id":"5e1b299528c70235eeed62ef","session_id":"643c2534193a7d486b20a32e","study_id":"64370a36d30bfa807bc7e43c"},{"rt":4698,"response":{"prior knowledge":4,"curiosity":5},"accuracy":[],"trial_type":"survey","trial_index":11,"time_elapsed":66007,"internal_node_id":"0.0-3.0-1.1","prolific_id":"5e1b299528c70235eeed62ef","session_id":"643c2534193a7d486b20a32e","study_id":"64370a36d30bfa807bc7e43c"},{"rt":null,"stimulus":"\n\t\t\t<div class=\"flip_card\">\n\t\t\t\t<div class=\"flip_card_inner\">\n\t\t\t\t\t<div class=\"flip_card_front\">\n\t\t\t\t\t\t<img src=img/30.png>\n\t\t\t\t\t</div>\n\t\t\t\t\t<div class=\"flip_card_back\">\n\t\t\t\t\t\t<h2>How many bones is a human baby born with?</h2>\n\t\t\t\t\t\t<br>\n\t\t\t\t\t\t<p>Answer: <strong>300</strong></p>\n\t\t\t\t\t</div>\n\t\t\t\t</div>\n\t\t\t</div>\n\t\t\t","response":null,"trial_type":"html-keyboard-response","trial_index":12,"time_elapsed":71009,"internal_node_id":"0.0-3.0-2.1","prolific_id":"5e1b299528c70235eeed62ef","session_id":"643c2534193a7d486b20a32e","study_id":"64370a36d30bfa807bc7e43c"},{"rt":2418,"stimulus":"\n\t\t\t\t\t<div>\n\t\t\t\t\t<h2>Trial 2 is over</h2>\n\t\t\t\t\t<p>Press <span style=\"color: red\"><strong>any key</strong></span> to continue to the next trial</p>\n\t\t\t\t\t</div>\n\t\t\t\t","response":"enter","trial_type":"html-keyboard-response","trial_index":13,"time_elapsed":73428,"internal_node_id":"0.0-3.0-3.1","prolific_id":"5e1b299528c70235eeed62ef","session_id":"643c2534193a7d486b20a32e","study_id":"64370a36d30bfa807bc7e43c"},{"rt":3374,"response":{"prediction":"13"},"trial_type":"survey-text","trial_index":14,"time_elapsed":76803,"internal_node_id":"0.0-3.0-0.2","prolific_id":"5e1b299528c70235eeed62ef","session_id":"643c2534193a7d486b20a32e","study_id":"64370a36d30bfa807bc7e43c"},{"rt":3458,"response":{"prior knowledge":5,"curiosity":5},"accuracy":[],"trial_type":"survey","trial_index":15,"time_elapsed":80271,"internal_node_id":"0.0-3.0-1.2","prolific_id":"5e1b299528c70235eeed62ef","session_id":"643c2534193a7d486b20a32e","study_id":"64370a36d30bfa807bc7e43c"},{"rt":null,"stimulus":"\n\t\t\t<div class=\"flip_card\">\n\t\t\t\t<div class=\"flip_card_inner\">\n\t\t\t\t\t<div class=\"flip_card_front\">\n\t\t\t\t\t\t<img src=img/14.png>\n\t\t\t\t\t</div>\n\t\t\t\t\t<div class=\"flip_card_back\">\n\t\t\t\t\t\t<h2>How much is in a Baker's Dozen?</h2>\n\t\t\t\t\t\t<br>\n\t\t\t\t\t\t<p>Answer: <strong>13</strong></p>\n\t\t\t\t\t</div>\n\t\t\t\t</div>\n\t\t\t</div>\n\t\t\t","response":null,"trial_type":"html-keyboard-response","trial_index":16,"time_elapsed":85277,"internal_node_id":"0.0-3.0-2.2","prolific_id":"5e1b299528c70235eeed62ef","session_id":"643c2534193a7d486b20a32e","study_id":"64370a36d30bfa807bc7e43c"},{"rt":10496,"stimulus":"\n\t\t\t\t\t<div>\n\t\t\t\t\t<h2>Trial 3 is over</h2>\n\t\t\t\t\t<p>Press <span style=\"color: red\"><strong>any key</strong></span> to continue to the next trial</p>\n\t\t\t\t\t</div>\n\t\t\t\t","response":"enter","trial_type":"html-keyboard-response","trial_index":17,"time_elapsed":95773,"internal_node_id":"0.0-3.0-3.2","prolific_id":"5e1b299528c70235eeed62ef","session_id":"643c2534193a7d486b20a32e","study_id":"64370a36d30bfa807bc7e43c"},{"rt":11338,"response":{"prediction":"1886"},"trial_type":"survey-text","trial_index":18,"time_elapsed":107113,"internal_node_id":"0.0-3.0-0.3","prolific_id":"5e1b299528c70235eeed62ef","session_id":"643c2534193a7d486b20a32e","study_id":"64370a36d30bfa807bc7e43c"},{"rt":8184,"response":{"prior knowledge":0,"curiosity":0},"accuracy":[],"trial_type":"survey","trial_index":19,"time_elapsed":115306,"internal_node_id":"0.0-3.0-1.3","prolific_id":"5e1b299528c70235eeed62ef","session_id":"643c2534193a7d486b20a32e","study_id":"64370a36d30bfa807bc7e43c"},{"rt":null,"stimulus":"\n\t\t\t<div class=\"flip_card\">\n\t\t\t\t<div class=\"flip_card_inner\">\n\t\t\t\t\t<div class=\"flip_card_front\">\n\t\t\t\t\t\t<img src=img/21.png>\n\t\t\t\t\t</div>\n\t\t\t\t\t<div class=\"flip_card_back\">\n\t\t\t\t\t\t<h2>In what year was the first Nobel Prize awarded?</h2>\n\t\t\t\t\t\t<br>\n\t\t\t\t\t\t<p>Answer: <strong>1901</strong></p>\n\t\t\t\t\t</div>\n\t\t\t\t</div>\n\t\t\t</div>\n\t\t\t","response":null,"trial_type":"html-keyboard-response","trial_index":20,"time_elapsed":120314,"internal_node_id":"0.0-3.0-2.3","prolific_id":"5e1b299528c70235eeed62ef","session_id":"643c2534193a7d486b20a32e","study_id":"64370a36d30bfa807bc7e43c"},{"rt":1873,"stimulus":"\n\t\t\t\t\t<div>\n\t\t\t\t\t<h2>Trial 4 is over</h2>\n\t\t\t\t\t<p>Press <span style=\"color: red\"><strong>any key</strong></span> to continue to the next trial</p>\n\t\t\t\t\t</div>\n\t\t\t\t","response":"enter","trial_type":"html-keyboard-response","trial_index":21,"time_elapsed":122187,"internal_node_id":"0.0-3.0-3.3","prolific_id":"5e1b299528c70235eeed62ef","session_id":"643c2534193a7d486b20a32e","study_id":"64370a36d30bfa807bc7e43c"},{"rt":5840,"response":{"prediction":"2007"},"trial_type":"survey-text","trial_index":22,"time_elapsed":128029,"internal_node_id":"0.0-3.0-0.4","prolific_id":"5e1b299528c70235eeed62ef","session_id":"643c2534193a7d486b20a32e","study_id":"64370a36d30bfa807bc7e43c"},{"rt":7158,"response":{"prior knowledge":3,"curiosity":5},"accuracy":[],"trial_type":"survey","trial_index":23,"time_elapsed":135196,"internal_node_id":"0.0-3.0-1.4","prolific_id":"5e1b299528c70235eeed62ef","session_id":"643c2534193a7d486b20a32e","study_id":"64370a36d30bfa807bc7e43c"},{"rt":null,"stimulus":"\n\t\t\t<div class=\"flip_card\">\n\t\t\t\t<div class=\"flip_card_inner\">\n\t\t\t\t\t<div class=\"flip_card_front\">\n\t\t\t\t\t\t<img src=img/20.png>\n\t\t\t\t\t</div>\n\t\t\t\t\t<div class=\"flip_card_back\">\n\t\t\t\t\t\t<h2>What year was the very first model of the iPhone released?</h2>\n\t\t\t\t\t\t<br>\n\t\t\t\t\t\t<p>Answer: <strong>2007</strong></p>\n\t\t\t\t\t</div>\n\t\t\t\t</div>\n\t\t\t</div>\n\t\t\t","response":null,"trial_type":"html-keyboard-response","trial_index":24,"time_elapsed":140201,"internal_node_id":"0.0-3.0-2.4","prolific_id":"5e1b299528c70235eeed62ef","session_id":"643c2534193a7d486b20a32e","study_id":"64370a36d30bfa807bc7e43c"},{"rt":2260,"stimulus":"\n\t\t\t\t\t<div>\n\t\t\t\t\t<h2>Trial 5 is over</h2>\n\t\t\t\t\t<p>Press <span style=\"color: red\"><strong>any key</strong></span> to continue to the next trial</p>\n\t\t\t\t\t</div>\n\t\t\t\t","response":"enter","trial_type":"html-keyboard-response","trial_index":25,"time_elapsed":142461,"internal_node_id":"0.0-3.0-3.4","prolific_id":"5e1b299528c70235eeed62ef","session_id":"643c2534193a7d486b20a32e","study_id":"64370a36d30bfa807bc7e43c"},{"rt":4827,"response":{"prediction":"86"},"trial_type":"survey-text","trial_index":26,"time_elapsed":147290,"internal_node_id":"0.0-3.0-0.5","prolific_id":"5e1b299528c70235eeed62ef","session_id":"643c2534193a7d486b20a32e","study_id":"64370a36d30bfa807bc7e43c"},{"rt":3661,"response":{"prior knowledge":0,"curiosity":0},"accuracy":[],"trial_type":"survey","trial_index":27,"time_elapsed":150959,"internal_node_id":"0.0-3.0-1.5","prolific_id":"5e1b299528c70235eeed62ef","session_id":"643c2534193a7d486b20a32e","study_id":"64370a36d30bfa807bc7e43c"},{"rt":null,"stimulus":"\n\t\t\t<div class=\"flip_card\">\n\t\t\t\t<div class=\"flip_card_inner\">\n\t\t\t\t\t<div class=\"flip_card_front\">\n\t\t\t\t\t\t<img src=img/3.png>\n\t\t\t\t\t</div>\n\t\t\t\t\t<div class=\"flip_card_back\">\n\t\t\t\t\t\t<h2>How many books has Stephen King published?</h2>\n\t\t\t\t\t\t<br>\n\t\t\t\t\t\t<p>Answer: <strong>65</strong></p>\n\t\t\t\t\t</div>\n\t\t\t\t</div>\n\t\t\t</div>\n\t\t\t","response":null,"trial_type":"html-keyboard-response","trial_index":28,"time_elapsed":155962,"internal_node_id":"0.0-3.0-2.5","prolific_id":"5e1b299528c70235eeed62ef","session_id":"643c2534193a7d486b20a32e","study_id":"64370a36d30bfa807bc7e43c"},{"rt":1778,"stimulus":"\n\t\t\t\t\t<div>\n\t\t\t\t\t<h2>Trial 6 is over</h2>\n\t\t\t\t\t<p>Press <span style=\"color: red\"><strong>any key</strong></span> to continue to the next trial</p>\n\t\t\t\t\t</div>\n\t\t\t\t","response":"enter","trial_type":"html-keyboard-response","trial_index":29,"time_elapsed":157740,"internal_node_id":"0.0-3.0-3.5","prolific_id":"5e1b299528c70235eeed62ef","session_id":"643c2534193a7d486b20a32e","study_id":"64370a36d30bfa807bc7e43c"},{"rt":6200,"response":{"prediction":"8"},"trial_type":"survey-text","trial_index":30,"time_elapsed":163941,"internal_node_id":"0.0-3.0-0.6","prolific_id":"5e1b299528c70235eeed62ef","session_id":"643c2534193a7d486b20a32e","study_id":"64370a36d30bfa807bc7e43c"},{"rt":4560,"response":{"prior knowledge":0,"curiosity":0},"accuracy":[],"trial_type":"survey","trial_index":31,"time_elapsed":168509,"internal_node_id":"0.0-3.0-1.6","prolific_id":"5e1b299528c70235eeed62ef","session_id":"643c2534193a7d486b20a32e","study_id":"64370a36d30bfa807bc7e43c"},{"rt":null,"stimulus":"\n\t\t\t<div class=\"flip_card\">\n\t\t\t\t<div class=\"flip_card_inner\">\n\t\t\t\t\t<div class=\"flip_card_front\">\n\t\t\t\t\t\t<img src=img/9.png>\n\t\t\t\t\t</div>\n\t\t\t\t\t<div class=\"flip_card_back\">\n\t\t\t\t\t\t<h2>How many soccer players should each team have on the field at the start of each match?</h2>\n\t\t\t\t\t\t<br>\n\t\t\t\t\t\t<p>Answer: <strong>11</strong></p>\n\t\t\t\t\t</div>\n\t\t\t\t</div>\n\t\t\t</div>\n\t\t\t","response":null,"trial_type":"html-keyboard-response","trial_index":32,"time_elapsed":173513,"internal_node_id":"0.0-3.0-2.6","prolific_id":"5e1b299528c70235eeed62ef","session_id":"643c2534193a7d486b20a32e","study_id":"64370a36d30bfa807bc7e43c"},{"rt":1260,"stimulus":"\n\t\t\t\t\t<div>\n\t\t\t\t\t<h2>Trial 7 is over</h2>\n\t\t\t\t\t<p>Press <span style=\"color: red\"><strong>any key</strong></span> to continue to the next trial</p>\n\t\t\t\t\t</div>\n\t\t\t\t","response":"enter","trial_type":"html-keyboard-response","trial_index":33,"time_elapsed":174773,"internal_node_id":"0.0-3.0-3.6","prolific_id":"5e1b299528c70235eeed62ef","session_id":"643c2534193a7d486b20a32e","study_id":"64370a36d30bfa807bc7e43c"},{"rt":5671,"response":{"prediction":"5"},"trial_type":"survey-text","trial_index":34,"time_elapsed":180445,"internal_node_id":"0.0-3.0-0.7","prolific_id":"5e1b299528c70235eeed62ef","session_id":"643c2534193a7d486b20a32e","study_id":"64370a36d30bfa807bc7e43c"},{"rt":3626,"response":{"prior knowledge":4,"curiosity":5},"accuracy":[],"trial_type":"survey","trial_index":35,"time_elapsed":184080,"internal_node_id":"0.0-3.0-1.7","prolific_id":"5e1b299528c70235eeed62ef","session_id":"643c2534193a7d486b20a32e","study_id":"64370a36d30bfa807bc7e43c"},{"rt":null,"stimulus":"\n\t\t\t<div class=\"flip_card\">\n\t\t\t\t<div class=\"flip_card_inner\">\n\t\t\t\t\t<div class=\"flip_card_front\">\n\t\t\t\t\t\t<img src=img/1.png>\n\t\t\t\t\t</div>\n\t\t\t\t\t<div class=\"flip_card_back\">\n\t\t\t\t\t\t<h2>How many countries have territory in the Arctic Circle?</h2>\n\t\t\t\t\t\t<br>\n\t\t\t\t\t\t<p>Answer: <strong>8</strong></p>\n\t\t\t\t\t</div>\n\t\t\t\t</div>\n\t\t\t</div>\n\t\t\t","response":null,"trial_type":"html-keyboard-response","trial_index":36,"time_elapsed":189093,"internal_node_id":"0.0-3.0-2.7","prolific_id":"5e1b299528c70235eeed62ef","session_id":"643c2534193a7d486b20a32e","study_id":"64370a36d30bfa807bc7e43c"},{"rt":1296,"stimulus":"\n\t\t\t\t\t<div>\n\t\t\t\t\t<h2>Trial 8 is over</h2>\n\t\t\t\t\t<p>Press <span style=\"color: red\"><strong>any key</strong></span> to continue to the next trial</p>\n\t\t\t\t\t</div>\n\t\t\t\t","response":"enter","trial_type":"html-keyboard-response","trial_index":37,"time_elapsed":190389,"internal_node_id":"0.0-3.0-3.7","prolific_id":"5e1b299528c70235eeed62ef","session_id":"643c2534193a7d486b20a32e","study_id":"64370a36d30bfa807bc7e43c"},{"rt":5041,"response":{"prediction":"18"},"trial_type":"survey-text","trial_index":38,"time_elapsed":195431,"internal_node_id":"0.0-3.0-0.8","prolific_id":"5e1b299528c70235eeed62ef","session_id":"643c2534193a7d486b20a32e","study_id":"64370a36d30bfa807bc7e43c"},{"rt":3874,"response":{"prior knowledge":2,"curiosity":5},"accuracy":[],"trial_type":"survey","trial_index":39,"time_elapsed":199314,"internal_node_id":"0.0-3.0-1.8","prolific_id":"5e1b299528c70235eeed62ef","session_id":"643c2534193a7d486b20a32e","study_id":"64370a36d30bfa807bc7e43c"},{"rt":null,"stimulus":"\n\t\t\t<div class=\"flip_card\">\n\t\t\t\t<div class=\"flip_card_inner\">\n\t\t\t\t\t<div class=\"flip_card_front\">\n\t\t\t\t\t\t<img src=img/25.png>\n\t\t\t\t\t</div>\n\t\t\t\t\t<div class=\"flip_card_back\">\n\t\t\t\t\t\t<h2>How old was King Tut when he died?</h2>\n\t\t\t\t\t\t<br>\n\t\t\t\t\t\t<p>Answer: <strong>19</strong></p>\n\t\t\t\t\t</div>\n\t\t\t\t</div>\n\t\t\t</div>\n\t\t\t","response":null,"trial_type":"html-keyboard-response","trial_index":40,"time_elapsed":204322,"internal_node_id":"0.0-3.0-2.8","prolific_id":"5e1b299528c70235eeed62ef","session_id":"643c2534193a7d486b20a32e","study_id":"64370a36d30bfa807bc7e43c"},{"rt":1435,"stimulus":"\n\t\t\t\t\t<div>\n\t\t\t\t\t<h2>Trial 9 is over</h2>\n\t\t\t\t\t<p>Press <span style=\"color: red\"><strong>any key</strong></span> to continue to the next trial</p>\n\t\t\t\t\t</div>\n\t\t\t\t","response":"enter","trial_type":"html-keyboard-response","trial_index":41,"time_elapsed":205758,"internal_node_id":"0.0-3.0-3.8","prolific_id":"5e1b299528c70235eeed62ef","session_id":"643c2534193a7d486b20a32e","study_id":"64370a36d30bfa807bc7e43c"},{"rt":5323,"response":{"prediction":"120"},"trial_type":"survey-text","trial_index":42,"time_elapsed":211081,"internal_node_id":"0.0-3.0-0.9","prolific_id":"5e1b299528c70235eeed62ef","session_id":"643c2534193a7d486b20a32e","study_id":"64370a36d30bfa807bc7e43c"},{"rt":4302,"response":{"prior knowledge":2,"curiosity":5},"accuracy":[],"trial_type":"survey","trial_index":43,"time_elapsed":215391,"internal_node_id":"0.0-3.0-1.9","prolific_id":"5e1b299528c70235eeed62ef","session_id":"643c2534193a7d486b20a32e","study_id":"64370a36d30bfa807bc7e43c"},{"rt":null,"stimulus":"\n\t\t\t<div class=\"flip_card\">\n\t\t\t\t<div class=\"flip_card_inner\">\n\t\t\t\t\t<div class=\"flip_card_front\">\n\t\t\t\t\t\t<img src=img/15.png>\n\t\t\t\t\t</div>\n\t\t\t\t\t<div class=\"flip_card_back\">\n\t\t\t\t\t\t<h2>How many floors are in the Burj Khalifa, the tallest building in the world?</h2>\n\t\t\t\t\t\t<br>\n\t\t\t\t\t\t<p>Answer: <strong>163</strong></p>\n\t\t\t\t\t</div>\n\t\t\t\t</div>\n\t\t\t</div>\n\t\t\t","response":null,"trial_type":"html-keyboard-response","trial_index":44,"time_elapsed":220397,"internal_node_id":"0.0-3.0-2.9","prolific_id":"5e1b299528c70235eeed62ef","session_id":"643c2534193a7d486b20a32e","study_id":"64370a36d30bfa807bc7e43c"},{"rt":3001,"stimulus":"\n\t\t\t\t\t<div>\n\t\t\t\t\t<h2>Trial 10 is over</h2>\n\t\t\t\t\t<p>Press <span style=\"color: red\"><strong>any key</strong></span> to continue to the next trial</p>\n\t\t\t\t\t</div>\n\t\t\t\t","response":"enter","trial_type":"html-keyboard-response","trial_index":45,"time_elapsed":223398,"internal_node_id":"0.0-3.0-3.9","prolific_id":"5e1b299528c70235eeed62ef","session_id":"643c2534193a7d486b20a32e","study_id":"64370a36d30bfa807bc7e43c"},{"rt":6009,"response":{"prediction":"100"},"trial_type":"survey-text","trial_index":46,"time_elapsed":229408,"internal_node_id":"0.0-3.0-0.10","prolific_id":"5e1b299528c70235eeed62ef","session_id":"643c2534193a7d486b20a32e","study_id":"64370a36d30bfa807bc7e43c"},{"rt":4729,"response":{"prior knowledge":0,"curiosity":0},"accuracy":[],"trial_type":"survey","trial_index":47,"time_elapsed":234146,"internal_node_id":"0.0-3.0-1.10","prolific_id":"5e1b299528c70235eeed62ef","session_id":"643c2534193a7d486b20a32e","study_id":"64370a36d30bfa807bc7e43c"},{"rt":null,"stimulus":"\n\t\t\t<div class=\"flip_card\">\n\t\t\t\t<div class=\"flip_card_inner\">\n\t\t\t\t\t<div class=\"flip_card_front\">\n\t\t\t\t\t\t<img src=img/12.png>\n\t\t\t\t\t</div>\n\t\t\t\t\t<div class=\"flip_card_back\">\n\t\t\t\t\t\t<h2>How many constellations are there?</h2>\n\t\t\t\t\t\t<br>\n\t\t\t\t\t\t<p>Answer: <strong>88</strong></p>\n\t\t\t\t\t</div>\n\t\t\t\t</div>\n\t\t\t</div>\n\t\t\t","response":null,"trial_type":"html-keyboard-response","trial_index":48,"time_elapsed":239157,"internal_node_id":"0.0-3.0-2.10","prolific_id":"5e1b299528c70235eeed62ef","session_id":"643c2534193a7d486b20a32e","study_id":"64370a36d30bfa807bc7e43c"},{"rt":3345,"stimulus":"\n\t\t\t\t\t<div>\n\t\t\t\t\t<h2>Trial 11 is over</h2>\n\t\t\t\t\t<p>Press <span style=\"color: red\"><strong>any key</strong></span> to continue to the next trial</p>\n\t\t\t\t\t</div>\n\t\t\t\t","response":"enter","trial_type":"html-keyboard-response","trial_index":49,"time_elapsed":242502,"internal_node_id":"0.0-3.0-3.10","prolific_id":"5e1b299528c70235eeed62ef","session_id":"643c2534193a7d486b20a32e","study_id":"64370a36d30bfa807bc7e43c"},{"rt":7178,"response":{"prediction":"8"},"trial_type":"survey-text","trial_index":50,"time_elapsed":249681,"internal_node_id":"0.0-3.0-0.11","prolific_id":"5e1b299528c70235eeed62ef","session_id":"643c2534193a7d486b20a32e","study_id":"64370a36d30bfa807bc7e43c"},{"rt":4730,"response":{"prior knowledge":0,"curiosity":0},"accuracy":[],"trial_type":"survey","trial_index":51,"time_elapsed":254420,"internal_node_id":"0.0-3.0-1.11","prolific_id":"5e1b299528c70235eeed62ef","session_id":"643c2534193a7d486b20a32e","study_id":"64370a36d30bfa807bc7e43c"},{"rt":null,"stimulus":"\n\t\t\t<div class=\"flip_card\">\n\t\t\t\t<div class=\"flip_card_inner\">\n\t\t\t\t\t<div class=\"flip_card_front\">\n\t\t\t\t\t\t<img src=img/19.png>\n\t\t\t\t\t</div>\n\t\t\t\t\t<div class=\"flip_card_back\">\n\t\t\t\t\t\t<h2>How many tones are in the Vietnamese language?</h2>\n\t\t\t\t\t\t<br>\n\t\t\t\t\t\t<p>Answer: <strong>6</strong></p>\n\t\t\t\t\t</div>\n\t\t\t\t</div>\n\t\t\t</div>\n\t\t\t","response":null,"trial_type":"html-keyboard-response","trial_index":52,"time_elapsed":259428,"internal_node_id":"0.0-3.0-2.11","prolific_id":"5e1b299528c70235eeed62ef","session_id":"643c2534193a7d486b20a32e","study_id":"64370a36d30bfa807bc7e43c"},{"rt":1142,"stimulus":"\n\t\t\t\t\t<div>\n\t\t\t\t\t<h2>Trial 12 is over</h2>\n\t\t\t\t\t<p>Press <span style=\"color: red\"><strong>any key</strong></span> to continue to the next trial</p>\n\t\t\t\t\t</div>\n\t\t\t\t","response":"enter","trial_type":"html-keyboard-response","trial_index":53,"time_elapsed":260570,"internal_node_id":"0.0-3.0-3.11","prolific_id":"5e1b299528c70235eeed62ef","session_id":"643c2534193a7d486b20a32e","study_id":"64370a36d30bfa807bc7e43c"},{"rt":5008,"response":{"prediction":"1900"},"trial_type":"survey-text","trial_index":54,"time_elapsed":265579,"internal_node_id":"0.0-3.0-0.12","prolific_id":"5e1b299528c70235eeed62ef","session_id":"643c2534193a7d486b20a32e","study_id":"64370a36d30bfa807bc7e43c"},{"rt":4583,"response":{"prior knowledge":0,"curiosity":0},"accuracy":[],"trial_type":"survey","trial_index":55,"time_elapsed":270170,"internal_node_id":"0.0-3.0-1.12","prolific_id":"5e1b299528c70235eeed62ef","session_id":"643c2534193a7d486b20a32e","study_id":"64370a36d30bfa807bc7e43c"},{"rt":null,"stimulus":"\n\t\t\t<div class=\"flip_card\">\n\t\t\t\t<div class=\"flip_card_inner\">\n\t\t\t\t\t<div class=\"flip_card_front\">\n\t\t\t\t\t\t<img src=img/18.png>\n\t\t\t\t\t</div>\n\t\t\t\t\t<div class=\"flip_card_back\">\n\t\t\t\t\t\t<h2>In what year did the first Modern Olympic Games take place?</h2>\n\t\t\t\t\t\t<br>\n\t\t\t\t\t\t<p>Answer: <strong>1896</strong></p>\n\t\t\t\t\t</div>\n\t\t\t\t</div>\n\t\t\t</div>\n\t\t\t","response":null,"trial_type":"html-keyboard-response","trial_index":56,"time_elapsed":275181,"internal_node_id":"0.0-3.0-2.12","prolific_id":"5e1b299528c70235eeed62ef","session_id":"643c2534193a7d486b20a32e","study_id":"64370a36d30bfa807bc7e43c"},{"rt":1118,"stimulus":"\n\t\t\t\t\t<div>\n\t\t\t\t\t<h2>Trial 13 is over</h2>\n\t\t\t\t\t<p>Press <span style=\"color: red\"><strong>any key</strong></span> to continue to the next trial</p>\n\t\t\t\t\t</div>\n\t\t\t\t","response":"enter","trial_type":"html-keyboard-response","trial_index":57,"time_elapsed":276299,"internal_node_id":"0.0-3.0-3.12","prolific_id":"5e1b299528c70235eeed62ef","session_id":"643c2534193a7d486b20a32e","study_id":"64370a36d30bfa807bc7e43c"},{"rt":4849,"response":{"prediction":"1992"},"trial_type":"survey-text","trial_index":58,"time_elapsed":281150,"internal_node_id":"0.0-3.0-0.13","prolific_id":"5e1b299528c70235eeed62ef","session_id":"643c2534193a7d486b20a32e","study_id":"64370a36d30bfa807bc7e43c"},{"rt":3402,"response":{"prior knowledge":2,"curiosity":5},"accuracy":[],"trial_type":"survey","trial_index":59,"time_elapsed":284560,"internal_node_id":"0.0-3.0-1.13","prolific_id":"5e1b299528c70235eeed62ef","session_id":"643c2534193a7d486b20a32e","study_id":"64370a36d30bfa807bc7e43c"},{"rt":null,"stimulus":"\n\t\t\t<div class=\"flip_card\">\n\t\t\t\t<div class=\"flip_card_inner\">\n\t\t\t\t\t<div class=\"flip_card_front\">\n\t\t\t\t\t\t<img src=img/28.png>\n\t\t\t\t\t</div>\n\t\t\t\t\t<div class=\"flip_card_back\">\n\t\t\t\t\t\t<h2>What year did the Berlin Wall fall?</h2>\n\t\t\t\t\t\t<br>\n\t\t\t\t\t\t<p>Answer: <strong>1989</strong></p>\n\t\t\t\t\t</div>\n\t\t\t\t</div>\n\t\t\t</div>\n\t\t\t","response":null,"trial_type":"html-keyboard-response","trial_index":60,"time_elapsed":289573,"internal_node_id":"0.0-3.0-2.13","prolific_id":"5e1b299528c70235eeed62ef","session_id":"643c2534193a7d486b20a32e","study_id":"64370a36d30bfa807bc7e43c"},{"rt":1982,"stimulus":"\n\t\t\t\t\t<div>\n\t\t\t\t\t<h2>Trial 14 is over</h2>\n\t\t\t\t\t<p>Press <span style=\"color: red\"><strong>any key</strong></span> to continue to the next trial</p>\n\t\t\t\t\t</div>\n\t\t\t\t","response":"enter","trial_type":"html-keyboard-response","trial_index":61,"time_elapsed":291555,"internal_node_id":"0.0-3.0-3.13","prolific_id":"5e1b299528c70235eeed62ef","session_id":"643c2534193a7d486b20a32e","study_id":"64370a36d30bfa807bc7e43c"},{"rt":5120,"response":{"prediction":"4"},"trial_type":"survey-text","trial_index":62,"time_elapsed":296676,"internal_node_id":"0.0-3.0-0.14","prolific_id":"5e1b299528c70235eeed62ef","session_id":"643c2534193a7d486b20a32e","study_id":"64370a36d30bfa807bc7e43c"},{"rt":3199,"response":{"prior knowledge":3,"curiosity":2},"accuracy":[],"trial_type":"survey","trial_index":63,"time_elapsed":299883,"internal_node_id":"0.0-3.0-1.14","prolific_id":"5e1b299528c70235eeed62ef","session_id":"643c2534193a7d486b20a32e","study_id":"64370a36d30bfa807bc7e43c"},{"rt":null,"stimulus":"\n\t\t\t<div class=\"flip_card\">\n\t\t\t\t<div class=\"flip_card_inner\">\n\t\t\t\t\t<div class=\"flip_card_front\">\n\t\t\t\t\t\t<img src=img/4.png>\n\t\t\t\t\t</div>\n\t\t\t\t\t<div class=\"flip_card_back\">\n\t\t\t\t\t\t<h2>How many times a day do Muslims pray?</h2>\n\t\t\t\t\t\t<br>\n\t\t\t\t\t\t<p>Answer: <strong>5</strong></p>\n\t\t\t\t\t</div>\n\t\t\t\t</div>\n\t\t\t</div>\n\t\t\t","response":null,"trial_type":"html-keyboard-response","trial_index":64,"time_elapsed":304890,"internal_node_id":"0.0-3.0-2.14","prolific_id":"5e1b299528c70235eeed62ef","session_id":"643c2534193a7d486b20a32e","study_id":"64370a36d30bfa807bc7e43c"},{"rt":1155,"stimulus":"\n\t\t\t\t\t<div>\n\t\t\t\t\t<h2>Trial 15 is over</h2>\n\t\t\t\t\t<p>Press <span style=\"color: red\"><strong>any key</strong></span> to continue to the next trial</p>\n\t\t\t\t\t</div>\n\t\t\t\t","response":"enter","trial_type":"html-keyboard-response","trial_index":65,"time_elapsed":306045,"internal_node_id":"0.0-3.0-3.14","prolific_id":"5e1b299528c70235eeed62ef","session_id":"643c2534193a7d486b20a32e","study_id":"64370a36d30bfa807bc7e43c"},{"rt":8641,"response":{"prediction":"17"},"trial_type":"survey-text","trial_index":66,"time_elapsed":314688,"internal_node_id":"0.0-3.0-0.15","prolific_id":"5e1b299528c70235eeed62ef","session_id":"643c2534193a7d486b20a32e","study_id":"64370a36d30bfa807bc7e43c"},{"rt":3537,"response":{"prior knowledge":0,"curiosity":0},"accuracy":[],"trial_type":"survey","trial_index":67,"time_elapsed":318233,"internal_node_id":"0.0-3.0-1.15","prolific_id":"5e1b299528c70235eeed62ef","session_id":"643c2534193a7d486b20a32e","study_id":"64370a36d30bfa807bc7e43c"},{"rt":null,"stimulus":"\n\t\t\t<div class=\"flip_card\">\n\t\t\t\t<div class=\"flip_card_inner\">\n\t\t\t\t\t<div class=\"flip_card_front\">\n\t\t\t\t\t\t<img src=img/29.png>\n\t\t\t\t\t</div>\n\t\t\t\t\t<div class=\"flip_card_back\">\n\t\t\t\t\t\t<h2>How many books are in the Catholic Bible?</h2>\n\t\t\t\t\t\t<br>\n\t\t\t\t\t\t<p>Answer: <strong>73</strong></p>\n\t\t\t\t\t</div>\n\t\t\t\t</div>\n\t\t\t</div>\n\t\t\t","response":null,"trial_type":"html-keyboard-response","trial_index":68,"time_elapsed":323245,"internal_node_id":"0.0-3.0-2.15","prolific_id":"5e1b299528c70235eeed62ef","session_id":"643c2534193a7d486b20a32e","study_id":"64370a36d30bfa807bc7e43c"},{"rt":1612,"stimulus":"\n\t\t\t\t\t<div>\n\t\t\t\t\t<h2>Trial 16 is over</h2>\n\t\t\t\t\t<p>Press <span style=\"color: red\"><strong>any key</strong></span> to continue to the next trial</p>\n\t\t\t\t\t</div>\n\t\t\t\t","response":" ","trial_type":"html-keyboard-response","trial_index":69,"time_elapsed":324856,"internal_node_id":"0.0-3.0-3.15","prolific_id":"5e1b299528c70235eeed62ef","session_id":"643c2534193a7d486b20a32e","study_id":"64370a36d30bfa807bc7e43c"},{"rt":5188,"response":{"prediction":"1912"},"trial_type":"survey-text","trial_index":70,"time_elapsed":330045,"internal_node_id":"0.0-3.0-0.16","prolific_id":"5e1b299528c70235eeed62ef","session_id":"643c2534193a7d486b20a32e","study_id":"64370a36d30bfa807bc7e43c"},{"rt":3806,"response":{"prior knowledge":5,"curiosity":5},"accuracy":[],"trial_type":"survey","trial_index":71,"time_elapsed":333860,"internal_node_id":"0.0-3.0-1.16","prolific_id":"5e1b299528c70235eeed62ef","session_id":"643c2534193a7d486b20a32e","study_id":"64370a36d30bfa807bc7e43c"},{"rt":null,"stimulus":"\n\t\t\t<div class=\"flip_card\">\n\t\t\t\t<div class=\"flip_card_inner\">\n\t\t\t\t\t<div class=\"flip_card_front\">\n\t\t\t\t\t\t<img src=img/24.png>\n\t\t\t\t\t</div>\n\t\t\t\t\t<div class=\"flip_card_back\">\n\t\t\t\t\t\t<h2>What year did the titanic sink?</h2>\n\t\t\t\t\t\t<br>\n\t\t\t\t\t\t<p>Answer: <strong>1912</strong></p>\n\t\t\t\t\t</div>\n\t\t\t\t</div>\n\t\t\t</div>\n\t\t\t","response":null,"trial_type":"html-keyboard-response","trial_index":72,"time_elapsed":338868,"internal_node_id":"0.0-3.0-2.16","prolific_id":"5e1b299528c70235eeed62ef","session_id":"643c2534193a7d486b20a32e","study_id":"64370a36d30bfa807bc7e43c"},{"rt":524,"stimulus":"\n\t\t\t\t\t<div>\n\t\t\t\t\t<h2>Trial 17 is over</h2>\n\t\t\t\t\t<p>Press <span style=\"color: red\"><strong>any key</strong></span> to continue to the next trial</p>\n\t\t\t\t\t</div>\n\t\t\t\t","response":" ","trial_type":"html-keyboard-response","trial_index":73,"time_elapsed":339392,"internal_node_id":"0.0-3.0-3.16","prolific_id":"5e1b299528c70235eeed62ef","session_id":"643c2534193a7d486b20a32e","study_id":"64370a36d30bfa807bc7e43c"},{"rt":5356,"response":{"prediction":"3"},"trial_type":"survey-text","trial_index":74,"time_elapsed":344749,"internal_node_id":"0.0-3.0-0.17","prolific_id":"5e1b299528c70235eeed62ef","session_id":"643c2534193a7d486b20a32e","study_id":"64370a36d30bfa807bc7e43c"},{"rt":4696,"response":{"prior knowledge":2,"curiosity":4},"accuracy":[],"trial_type":"survey","trial_index":75,"time_elapsed":349453,"internal_node_id":"0.0-3.0-1.17","prolific_id":"5e1b299528c70235eeed62ef","session_id":"643c2534193a7d486b20a32e","study_id":"64370a36d30bfa807bc7e43c"},{"rt":null,"stimulus":"\n\t\t\t<div class=\"flip_card\">\n\t\t\t\t<div class=\"flip_card_inner\">\n\t\t\t\t\t<div class=\"flip_card_front\">\n\t\t\t\t\t\t<img src=img/11.png>\n\t\t\t\t\t</div>\n\t\t\t\t\t<div class=\"flip_card_back\">\n\t\t\t\t\t\t<h2>How many main islands make up Japan?</h2>\n\t\t\t\t\t\t<br>\n\t\t\t\t\t\t<p>Answer: <strong>4</strong></p>\n\t\t\t\t\t</div>\n\t\t\t\t</div>\n\t\t\t</div>\n\t\t\t","response":null,"trial_type":"html-keyboard-response","trial_index":76,"time_elapsed":354456,"internal_node_id":"0.0-3.0-2.17","prolific_id":"5e1b299528c70235eeed62ef","session_id":"643c2534193a7d486b20a32e","study_id":"64370a36d30bfa807bc7e43c"},{"rt":867,"stimulus":"\n\t\t\t\t\t<div>\n\t\t\t\t\t<h2>Trial 18 is over</h2>\n\t\t\t\t\t<p>Press <span style=\"color: red\"><strong>any key</strong></span> to continue to the next trial</p>\n\t\t\t\t\t</div>\n\t\t\t\t","response":" ","trial_type":"html-keyboard-response","trial_index":77,"time_elapsed":355323,"internal_node_id":"0.0-3.0-3.17","prolific_id":"5e1b299528c70235eeed62ef","session_id":"643c2534193a7d486b20a32e","study_id":"64370a36d30bfa807bc7e43c"},{"rt":4366,"response":{"prediction":"13"},"trial_type":"survey-text","trial_index":78,"time_elapsed":359690,"internal_node_id":"0.0-3.0-0.18","prolific_id":"5e1b299528c70235eeed62ef","session_id":"643c2534193a7d486b20a32e","study_id":"64370a36d30bfa807bc7e43c"},{"rt":5438,"response":{"prior knowledge":4,"curiosity":4},"accuracy":[],"trial_type":"survey","trial_index":79,"time_elapsed":365136,"internal_node_id":"0.0-3.0-1.18","prolific_id":"5e1b299528c70235eeed62ef","session_id":"643c2534193a7d486b20a32e","study_id":"64370a36d30bfa807bc7e43c"},{"rt":null,"stimulus":"\n\t\t\t<div class=\"flip_card\">\n\t\t\t\t<div class=\"flip_card_inner\">\n\t\t\t\t\t<div class=\"flip_card_front\">\n\t\t\t\t\t\t<img src=img/17.png>\n\t\t\t\t\t</div>\n\t\t\t\t\t<div class=\"flip_card_back\">\n\t\t\t\t\t\t<h2>A bar mitzvah is traditionally celebrated when Jewish males turn what age?</h2>\n\t\t\t\t\t\t<br>\n\t\t\t\t\t\t<p>Answer: <strong>13</strong></p>\n\t\t\t\t\t</div>\n\t\t\t\t</div>\n\t\t\t</div>\n\t\t\t","response":null,"trial_type":"html-keyboard-response","trial_index":80,"time_elapsed":370142,"internal_node_id":"0.0-3.0-2.18","prolific_id":"5e1b299528c70235eeed62ef","session_id":"643c2534193a7d486b20a32e","study_id":"64370a36d30bfa807bc7e43c"},{"rt":752,"stimulus":"\n\t\t\t\t\t<div>\n\t\t\t\t\t<h2>Trial 19 is over</h2>\n\t\t\t\t\t<p>Press <span style=\"color: red\"><strong>any key</strong></span> to continue to the next trial</p>\n\t\t\t\t\t</div>\n\t\t\t\t","response":" ","trial_type":"html-keyboard-response","trial_index":81,"time_elapsed":370894,"internal_node_id":"0.0-3.0-3.18","prolific_id":"5e1b299528c70235eeed62ef","session_id":"643c2534193a7d486b20a32e","study_id":"64370a36d30bfa807bc7e43c"},{"rt":8889,"response":{"prediction":"35"},"trial_type":"survey-text","trial_index":82,"time_elapsed":379784,"internal_node_id":"0.0-3.0-0.19","prolific_id":"5e1b299528c70235eeed62ef","session_id":"643c2534193a7d486b20a32e","study_id":"64370a36d30bfa807bc7e43c"},{"rt":4392,"response":{"prior knowledge":0,"curiosity":0},"accuracy":[],"trial_type":"survey","trial_index":83,"time_elapsed":384184,"internal_node_id":"0.0-3.0-1.19","prolific_id":"5e1b299528c70235eeed62ef","session_id":"643c2534193a7d486b20a32e","study_id":"64370a36d30bfa807bc7e43c"},{"rt":null,"stimulus":"\n\t\t\t<div class=\"flip_card\">\n\t\t\t\t<div class=\"flip_card_inner\">\n\t\t\t\t\t<div class=\"flip_card_front\">\n\t\t\t\t\t\t<img src=img/13.png>\n\t\t\t\t\t</div>\n\t\t\t\t\t<div class=\"flip_card_back\">\n\t\t\t\t\t\t<h2>How many single hand gestures, or mudras, are used in Indian classical dance?</h2>\n\t\t\t\t\t\t<br>\n\t\t\t\t\t\t<p>Answer: <strong>28</strong></p>\n\t\t\t\t\t</div>\n\t\t\t\t</div>\n\t\t\t</div>\n\t\t\t","response":null,"trial_type":"html-keyboard-response","trial_index":84,"time_elapsed":389191,"internal_node_id":"0.0-3.0-2.19","prolific_id":"5e1b299528c70235eeed62ef","session_id":"643c2534193a7d486b20a32e","study_id":"64370a36d30bfa807bc7e43c"},{"rt":761,"stimulus":"\n\t\t\t\t\t<div>\n\t\t\t\t\t<h2>Trial 20 is over</h2>\n\t\t\t\t\t<p>Press <span style=\"color: red\"><strong>any key</strong></span> to continue to the next trial</p>\n\t\t\t\t\t</div>\n\t\t\t\t","response":" ","trial_type":"html-keyboard-response","trial_index":85,"time_elapsed":389952,"internal_node_id":"0.0-3.0-3.19","prolific_id":"5e1b299528c70235eeed62ef","session_id":"643c2534193a7d486b20a32e","study_id":"64370a36d30bfa807bc7e43c"},{"rt":9631,"response":{"prediction":"2"},"trial_type":"survey-text","trial_index":86,"time_elapsed":399584,"internal_node_id":"0.0-3.0-0.20","prolific_id":"5e1b299528c70235eeed62ef","session_id":"643c2534193a7d486b20a32e","study_id":"64370a36d30bfa807bc7e43c"},{"rt":3289,"response":{"prior knowledge":2,"curiosity":5},"accuracy":[],"trial_type":"survey","trial_index":87,"time_elapsed":402882,"internal_node_id":"0.0-3.0-1.20","prolific_id":"5e1b299528c70235eeed62ef","session_id":"643c2534193a7d486b20a32e","study_id":"64370a36d30bfa807bc7e43c"},{"rt":null,"stimulus":"\n\t\t\t<div class=\"flip_card\">\n\t\t\t\t<div class=\"flip_card_inner\">\n\t\t\t\t\t<div class=\"flip_card_front\">\n\t\t\t\t\t\t<img src=img/2.png>\n\t\t\t\t\t</div>\n\t\t\t\t\t<div class=\"flip_card_back\">\n\t\t\t\t\t\t<h2>How many moons does Neptune have?</h2>\n\t\t\t\t\t\t<br>\n\t\t\t\t\t\t<p>Answer: <strong>14</strong></p>\n\t\t\t\t\t</div>\n\t\t\t\t</div>\n\t\t\t</div>\n\t\t\t","response":null,"trial_type":"html-keyboard-response","trial_index":88,"time_elapsed":407892,"internal_node_id":"0.0-3.0-2.20","prolific_id":"5e1b299528c70235eeed62ef","session_id":"643c2534193a7d486b20a32e","study_id":"64370a36d30bfa807bc7e43c"},{"rt":691,"stimulus":"\n\t\t\t\t\t<div>\n\t\t\t\t\t<h2>Trial 21 is over</h2>\n\t\t\t\t\t<p>Press <span style=\"color: red\"><strong>any key</strong></span> to continue to the next trial</p>\n\t\t\t\t\t</div>\n\t\t\t\t","response":" ","trial_type":"html-keyboard-response","trial_index":89,"time_elapsed":408583,"internal_node_id":"0.0-3.0-3.20","prolific_id":"5e1b299528c70235eeed62ef","session_id":"643c2534193a7d486b20a32e","study_id":"64370a36d30bfa807bc7e43c"},{"rt":6684,"response":{"prediction":"9000"},"trial_type":"survey-text","trial_index":90,"time_elapsed":415268,"internal_node_id":"0.0-3.0-0.21","prolific_id":"5e1b299528c70235eeed62ef","session_id":"643c2534193a7d486b20a32e","study_id":"64370a36d30bfa807bc7e43c"},{"rt":4223,"response":{"prior knowledge":0,"curiosity":5},"accuracy":[],"trial_type":"survey","trial_index":91,"time_elapsed":419500,"internal_node_id":"0.0-3.0-1.21","prolific_id":"5e1b299528c70235eeed62ef","session_id":"643c2534193a7d486b20a32e","study_id":"64370a36d30bfa807bc7e43c"},{"rt":null,"stimulus":"\n\t\t\t<div class=\"flip_card\">\n\t\t\t\t<div class=\"flip_card_inner\">\n\t\t\t\t\t<div class=\"flip_card_front\">\n\t\t\t\t\t\t<img src=img/23.png>\n\t\t\t\t\t</div>\n\t\t\t\t\t<div class=\"flip_card_back\">\n\t\t\t\t\t\t<h2>What is the diameter of Earth in miles?</h2>\n\t\t\t\t\t\t<br>\n\t\t\t\t\t\t<p>Answer: <strong>7917.5</strong></p>\n\t\t\t\t\t</div>\n\t\t\t\t</div>\n\t\t\t</div>\n\t\t\t","response":null,"trial_type":"html-keyboard-response","trial_index":92,"time_elapsed":424502,"internal_node_id":"0.0-3.0-2.21","prolific_id":"5e1b299528c70235eeed62ef","session_id":"643c2534193a7d486b20a32e","study_id":"64370a36d30bfa807bc7e43c"},{"rt":1969,"stimulus":"\n\t\t\t\t\t<div>\n\t\t\t\t\t<h2>Trial 22 is over</h2>\n\t\t\t\t\t<p>Press <span style=\"color: red\"><strong>any key</strong></span> to continue to the next trial</p>\n\t\t\t\t\t</div>\n\t\t\t\t","response":" ","trial_type":"html-keyboard-response","trial_index":93,"time_elapsed":426472,"internal_node_id":"0.0-3.0-3.21","prolific_id":"5e1b299528c70235eeed62ef","session_id":"643c2534193a7d486b20a32e","study_id":"64370a36d30bfa807bc7e43c"},{"rt":4670,"response":{"prediction":"800"},"trial_type":"survey-text","trial_index":94,"time_elapsed":431143,"internal_node_id":"0.0-3.0-0.22","prolific_id":"5e1b299528c70235eeed62ef","session_id":"643c2534193a7d486b20a32e","study_id":"64370a36d30bfa807bc7e43c"},{"rt":3346,"response":{"prior knowledge":3,"curiosity":5},"accuracy":[],"trial_type":"survey","trial_index":95,"time_elapsed":434497,"internal_node_id":"0.0-3.0-1.22","prolific_id":"5e1b299528c70235eeed62ef","session_id":"643c2534193a7d486b20a32e","study_id":"64370a36d30bfa807bc7e43c"},{"rt":null,"stimulus":"\n\t\t\t<div class=\"flip_card\">\n\t\t\t\t<div class=\"flip_card_inner\">\n\t\t\t\t\t<div class=\"flip_card_front\">\n\t\t\t\t\t\t<img src=img/8.png>\n\t\t\t\t\t</div>\n\t\t\t\t\t<div class=\"flip_card_back\">\n\t\t\t\t\t\t<h2>How long is the Great Wall of China (in miles)?</h2>\n\t\t\t\t\t\t<br>\n\t\t\t\t\t\t<p>Answer: <strong>13171</strong></p>\n\t\t\t\t\t</div>\n\t\t\t\t</div>\n\t\t\t</div>\n\t\t\t","response":null,"trial_type":"html-keyboard-response","trial_index":96,"time_elapsed":439506,"internal_node_id":"0.0-3.0-2.22","prolific_id":"5e1b299528c70235eeed62ef","session_id":"643c2534193a7d486b20a32e","study_id":"64370a36d30bfa807bc7e43c"},{"rt":1164,"stimulus":"\n\t\t\t\t\t<div>\n\t\t\t\t\t<h2>Trial 23 is over</h2>\n\t\t\t\t\t<p>Press <span style=\"color: red\"><strong>any key</strong></span> to continue to the next trial</p>\n\t\t\t\t\t</div>\n\t\t\t\t","response":" ","trial_type":"html-keyboard-response","trial_index":97,"time_elapsed":440671,"internal_node_id":"0.0-3.0-3.22","prolific_id":"5e1b299528c70235eeed62ef","session_id":"643c2534193a7d486b20a32e","study_id":"64370a36d30bfa807bc7e43c"},{"rt":12646,"response":{"prediction":"1890"},"trial_type":"survey-text","trial_index":98,"time_elapsed":453318,"internal_node_id":"0.0-3.0-0.23","prolific_id":"5e1b299528c70235eeed62ef","session_id":"643c2534193a7d486b20a32e","study_id":"64370a36d30bfa807bc7e43c"},{"rt":5641,"response":{"prior knowledge":0,"curiosity":0},"accuracy":[],"trial_type":"survey","trial_index":99,"time_elapsed":458966,"internal_node_id":"0.0-3.0-1.23","prolific_id":"5e1b299528c70235eeed62ef","session_id":"643c2534193a7d486b20a32e","study_id":"64370a36d30bfa807bc7e43c"},{"rt":null,"stimulus":"\n\t\t\t<div class=\"flip_card\">\n\t\t\t\t<div class=\"flip_card_inner\">\n\t\t\t\t\t<div class=\"flip_card_front\">\n\t\t\t\t\t\t<img src=img/7.png>\n\t\t\t\t\t</div>\n\t\t\t\t\t<div class=\"flip_card_back\">\n\t\t\t\t\t\t<h2>In what year was the Mexican artist Frida Kahlo born?</h2>\n\t\t\t\t\t\t<br>\n\t\t\t\t\t\t<p>Answer: <strong>1907</strong></p>\n\t\t\t\t\t</div>\n\t\t\t\t</div>\n\t\t\t</div>\n\t\t\t","response":null,"trial_type":"html-keyboard-response","trial_index":100,"time_elapsed":463972,"internal_node_id":"0.0-3.0-2.23","prolific_id":"5e1b299528c70235eeed62ef","session_id":"643c2534193a7d486b20a32e","study_id":"64370a36d30bfa807bc7e43c"},{"rt":594,"stimulus":"\n\t\t\t\t\t<div>\n\t\t\t\t\t<h2>Trial 24 is over</h2>\n\t\t\t\t\t<p>Press <span style=\"color: red\"><strong>any key</strong></span> to continue to the next trial</p>\n\t\t\t\t\t</div>\n\t\t\t\t","response":" ","trial_type":"html-keyboard-response","trial_index":101,"time_elapsed":464566,"internal_node_id":"0.0-3.0-3.23","prolific_id":"5e1b299528c70235eeed62ef","session_id":"643c2534193a7d486b20a32e","study_id":"64370a36d30bfa807bc7e43c"},{"rt":8090,"response":{"prediction":"199"},"trial_type":"survey-text","trial_index":102,"time_elapsed":472657,"internal_node_id":"0.0-3.0-0.24","prolific_id":"5e1b299528c70235eeed62ef","session_id":"643c2534193a7d486b20a32e","study_id":"64370a36d30bfa807bc7e43c"},{"rt":3380,"response":{"prior knowledge":0,"curiosity":0},"accuracy":[],"trial_type":"survey","trial_index":103,"time_elapsed":476045,"internal_node_id":"0.0-3.0-1.24","prolific_id":"5e1b299528c70235eeed62ef","session_id":"643c2534193a7d486b20a32e","study_id":"64370a36d30bfa807bc7e43c"},{"rt":null,"stimulus":"\n\t\t\t<div class=\"flip_card\">\n\t\t\t\t<div class=\"flip_card_inner\">\n\t\t\t\t\t<div class=\"flip_card_front\">\n\t\t\t\t\t\t<img src=img/27.png>\n\t\t\t\t\t</div>\n\t\t\t\t\t<div class=\"flip_card_back\">\n\t\t\t\t\t\t<h2>How many double stitches does a baseball have?</h2>\n\t\t\t\t\t\t<br>\n\t\t\t\t\t\t<p>Answer: <strong>108</strong></p>\n\t\t\t\t\t</div>\n\t\t\t\t</div>\n\t\t\t</div>\n\t\t\t","response":null,"trial_type":"html-keyboard-response","trial_index":104,"time_elapsed":481052,"internal_node_id":"0.0-3.0-2.24","prolific_id":"5e1b299528c70235eeed62ef","session_id":"643c2534193a7d486b20a32e","study_id":"64370a36d30bfa807bc7e43c"},{"rt":661,"stimulus":"\n\t\t\t\t\t<div>\n\t\t\t\t\t<h2>Trial 25 is over</h2>\n\t\t\t\t\t<p>Press <span style=\"color: red\"><strong>any key</strong></span> to continue to the next trial</p>\n\t\t\t\t\t</div>\n\t\t\t\t","response":" ","trial_type":"html-keyboard-response","trial_index":105,"time_elapsed":481712,"internal_node_id":"0.0-3.0-3.24","prolific_id":"5e1b299528c70235eeed62ef","session_id":"643c2534193a7d486b20a32e","study_id":"64370a36d30bfa807bc7e43c"},{"rt":4759,"response":{"prediction":"5"},"trial_type":"survey-text","trial_index":106,"time_elapsed":486473,"internal_node_id":"0.0-3.0-0.25","prolific_id":"5e1b299528c70235eeed62ef","session_id":"643c2534193a7d486b20a32e","study_id":"64370a36d30bfa807bc7e43c"},{"rt":3955,"response":{"prior knowledge":0,"curiosity":0},"accuracy":[],"trial_type":"survey","trial_index":107,"time_elapsed":490435,"internal_node_id":"0.0-3.0-1.25","prolific_id":"5e1b299528c70235eeed62ef","session_id":"643c2534193a7d486b20a32e","study_id":"64370a36d30bfa807bc7e43c"},{"rt":null,"stimulus":"\n\t\t\t<div class=\"flip_card\">\n\t\t\t\t<div class=\"flip_card_inner\">\n\t\t\t\t\t<div class=\"flip_card_front\">\n\t\t\t\t\t\t<img src=img/10.png>\n\t\t\t\t\t</div>\n\t\t\t\t\t<div class=\"flip_card_back\">\n\t\t\t\t\t\t<h2>How many lines are in a sonnet?</h2>\n\t\t\t\t\t\t<br>\n\t\t\t\t\t\t<p>Answer: <strong>14</strong></p>\n\t\t\t\t\t</div>\n\t\t\t\t</div>\n\t\t\t</div>\n\t\t\t","response":null,"trial_type":"html-keyboard-response","trial_index":108,"time_elapsed":495439,"internal_node_id":"0.0-3.0-2.25","prolific_id":"5e1b299528c70235eeed62ef","session_id":"643c2534193a7d486b20a32e","study_id":"64370a36d30bfa807bc7e43c"},{"rt":764,"stimulus":"\n\t\t\t\t\t<div>\n\t\t\t\t\t<h2>Trial 26 is over</h2>\n\t\t\t\t\t<p>Press <span style=\"color: red\"><strong>any key</strong></span> to continue to the next trial</p>\n\t\t\t\t\t</div>\n\t\t\t\t","response":" ","trial_type":"html-keyboard-response","trial_index":109,"time_elapsed":496203,"internal_node_id":"0.0-3.0-3.25","prolific_id":"5e1b299528c70235eeed62ef","session_id":"643c2534193a7d486b20a32e","study_id":"64370a36d30bfa807bc7e43c"},{"rt":21197,"response":{"prediction":"250"},"trial_type":"survey-text","trial_index":110,"time_elapsed":517401,"internal_node_id":"0.0-3.0-0.26","prolific_id":"5e1b299528c70235eeed62ef","session_id":"643c2534193a7d486b20a32e","study_id":"64370a36d30bfa807bc7e43c"},{"rt":4145,"response":{"prior knowledge":0,"curiosity":5},"accuracy":[],"trial_type":"survey","trial_index":111,"time_elapsed":521554,"internal_node_id":"0.0-3.0-1.26","prolific_id":"5e1b299528c70235eeed62ef","session_id":"643c2534193a7d486b20a32e","study_id":"64370a36d30bfa807bc7e43c"},{"rt":null,"stimulus":"\n\t\t\t<div class=\"flip_card\">\n\t\t\t\t<div class=\"flip_card_inner\">\n\t\t\t\t\t<div class=\"flip_card_front\">\n\t\t\t\t\t\t<img src=img/22.png>\n\t\t\t\t\t</div>\n\t\t\t\t\t<div class=\"flip_card_back\">\n\t\t\t\t\t\t<h2>How many people are vegan globally (in millions)?</h2>\n\t\t\t\t\t\t<br>\n\t\t\t\t\t\t<p>Answer: <strong>79</strong></p>\n\t\t\t\t\t</div>\n\t\t\t\t</div>\n\t\t\t</div>\n\t\t\t","response":null,"trial_type":"html-keyboard-response","trial_index":112,"time_elapsed":526558,"internal_node_id":"0.0-3.0-2.26","prolific_id":"5e1b299528c70235eeed62ef","session_id":"643c2534193a7d486b20a32e","study_id":"64370a36d30bfa807bc7e43c"},{"rt":698,"stimulus":"\n\t\t\t\t\t<div>\n\t\t\t\t\t<h2>Trial 27 is over</h2>\n\t\t\t\t\t<p>Press <span style=\"color: red\"><strong>any key</strong></span> to continue to the next trial</p>\n\t\t\t\t\t</div>\n\t\t\t\t","response":" ","trial_type":"html-keyboard-response","trial_index":113,"time_elapsed":527256,"internal_node_id":"0.0-3.0-3.26","prolific_id":"5e1b299528c70235eeed62ef","session_id":"643c2534193a7d486b20a32e","study_id":"64370a36d30bfa807bc7e43c"},{"rt":4870,"response":{"prediction":"3"},"trial_type":"survey-text","trial_index":114,"time_elapsed":532128,"internal_node_id":"0.0-3.0-0.27","prolific_id":"5e1b299528c70235eeed62ef","session_id":"643c2534193a7d486b20a32e","study_id":"64370a36d30bfa807bc7e43c"},{"rt":3718,"response":{"prior knowledge":0,"curiosity":5},"accuracy":[],"trial_type":"survey","trial_index":115,"time_elapsed":535853,"internal_node_id":"0.0-3.0-1.27","prolific_id":"5e1b299528c70235eeed62ef","session_id":"643c2534193a7d486b20a32e","study_id":"64370a36d30bfa807bc7e43c"},{"rt":null,"stimulus":"\n\t\t\t<div class=\"flip_card\">\n\t\t\t\t<div class=\"flip_card_inner\">\n\t\t\t\t\t<div class=\"flip_card_front\">\n\t\t\t\t\t\t<img src=img/16.png>\n\t\t\t\t\t</div>\n\t\t\t\t\t<div class=\"flip_card_back\">\n\t\t\t\t\t\t<h2>How many native species of kangaroos are found in Australia?</h2>\n\t\t\t\t\t\t<br>\n\t\t\t\t\t\t<p>Answer: <strong>4</strong></p>\n\t\t\t\t\t</div>\n\t\t\t\t</div>\n\t\t\t</div>\n\t\t\t","response":null,"trial_type":"html-keyboard-response","trial_index":116,"time_elapsed":540855,"internal_node_id":"0.0-3.0-2.27","prolific_id":"5e1b299528c70235eeed62ef","session_id":"643c2534193a7d486b20a32e","study_id":"64370a36d30bfa807bc7e43c"},{"rt":6313,"stimulus":"\n\t\t\t\t\t<div>\n\t\t\t\t\t<h2>Trial 28 is over</h2>\n\t\t\t\t\t<p>Press <span style=\"color: red\"><strong>any key</strong></span> to continue to the next trial</p>\n\t\t\t\t\t</div>\n\t\t\t\t","response":" ","trial_type":"html-keyboard-response","trial_index":117,"time_elapsed":547168,"internal_node_id":"0.0-3.0-3.27","prolific_id":"5e1b299528c70235eeed62ef","session_id":"643c2534193a7d486b20a32e","study_id":"64370a36d30bfa807bc7e43c"},{"rt":5581,"response":{"prediction":"6"},"trial_type":"survey-text","trial_index":118,"time_elapsed":552750,"internal_node_id":"0.0-3.0-0.28","prolific_id":"5e1b299528c70235eeed62ef","session_id":"643c2534193a7d486b20a32e","study_id":"64370a36d30bfa807bc7e43c"},{"rt":3751,"response":{"prior knowledge":0,"curiosity":5},"accuracy":[],"trial_type":"survey","trial_index":119,"time_elapsed":556509,"internal_node_id":"0.0-3.0-1.28","prolific_id":"5e1b299528c70235eeed62ef","session_id":"643c2534193a7d486b20a32e","study_id":"64370a36d30bfa807bc7e43c"},{"rt":null,"stimulus":"\n\t\t\t<div class=\"flip_card\">\n\t\t\t\t<div class=\"flip_card_inner\">\n\t\t\t\t\t<div class=\"flip_card_front\">\n\t\t\t\t\t\t<img src=img/6.png>\n\t\t\t\t\t</div>\n\t\t\t\t\t<div class=\"flip_card_back\">\n\t\t\t\t\t\t<h2>How many countries in Africa have French as the official language?</h2>\n\t\t\t\t\t\t<br>\n\t\t\t\t\t\t<p>Answer: <strong>21</strong></p>\n\t\t\t\t\t</div>\n\t\t\t\t</div>\n\t\t\t</div>\n\t\t\t","response":null,"trial_type":"html-keyboard-response","trial_index":120,"time_elapsed":561520,"internal_node_id":"0.0-3.0-2.28","prolific_id":"5e1b299528c70235eeed62ef","session_id":"643c2534193a7d486b20a32e","study_id":"64370a36d30bfa807bc7e43c"},{"rt":636,"stimulus":"\n\t\t\t\t\t<div>\n\t\t\t\t\t<h2>Trial 29 is over</h2>\n\t\t\t\t\t<p>Press <span style=\"color: red\"><strong>any key</strong></span> to continue to the next trial</p>\n\t\t\t\t\t</div>\n\t\t\t\t","response":" ","trial_type":"html-keyboard-response","trial_index":121,"time_elapsed":562156,"internal_node_id":"0.0-3.0-3.28","prolific_id":"5e1b299528c70235eeed62ef","session_id":"643c2534193a7d486b20a32e","study_id":"64370a36d30bfa807bc7e43c"},{"rt":7064,"response":{"prediction":"13"},"trial_type":"survey-text","trial_index":122,"time_elapsed":569221,"internal_node_id":"0.0-3.0-0.29","prolific_id":"5e1b299528c70235eeed62ef","session_id":"643c2534193a7d486b20a32e","study_id":"64370a36d30bfa807bc7e43c"},{"rt":4325,"response":{"prior knowledge":0,"curiosity":0},"accuracy":[],"trial_type":"survey","trial_index":123,"time_elapsed":573554,"internal_node_id":"0.0-3.0-1.29","prolific_id":"5e1b299528c70235eeed62ef","session_id":"643c2534193a7d486b20a32e","study_id":"64370a36d30bfa807bc7e43c"},{"rt":null,"stimulus":"\n\t\t\t<div class=\"flip_card\">\n\t\t\t\t<div class=\"flip_card_inner\">\n\t\t\t\t\t<div class=\"flip_card_front\">\n\t\t\t\t\t\t<img src=img/5.png>\n\t\t\t\t\t</div>\n\t\t\t\t\t<div class=\"flip_card_back\">\n\t\t\t\t\t\t<h2>How many different animals (real or imaginary) are represented in the Chinese calendar?</h2>\n\t\t\t\t\t\t<br>\n\t\t\t\t\t\t<p>Answer: <strong>12</strong></p>\n\t\t\t\t\t</div>\n\t\t\t\t</div>\n\t\t\t</div>\n\t\t\t","response":null,"trial_type":"html-keyboard-response","trial_index":124,"time_elapsed":578561,"internal_node_id":"0.0-3.0-2.29","prolific_id":"5e1b299528c70235eeed62ef","session_id":"643c2534193a7d486b20a32e","study_id":"64370a36d30bfa807bc7e43c"},{"rt":693,"stimulus":"\n\t\t\t\t\t<div>\n\t\t\t\t\t<h2>Trial 30 is over</h2>\n\t\t\t\t\t<p>Press <span style=\"color: red\"><strong>any key</strong></span> to continue to the next trial</p>\n\t\t\t\t\t</div>\n\t\t\t\t","response":" ","trial_type":"html-keyboard-response","trial_index":125,"time_elapsed":579255,"internal_node_id":"0.0-3.0-3.29","prolific_id":"5e1b299528c70235eeed62ef","session_id":"643c2534193a7d486b20a32e","study_id":"64370a36d30bfa807bc7e43c"},{"rt":17823,"stimulus":"\n\t\t\t<h2>Good job! You've finished the 30 trials:p</h2>\n\t\t\t<p>In the next session, you will see two cards on the screen in each trial.</p>\n\t\t\t<p>On one card is a pattern that you have seen before in the experiment,\n\t\t\t\tand on the other card is one you have not seen.</p><br>\n\t\t\t<p>Your task is to choose the one you think you <em>have</em> seen before for every trial.</p>\n\t\t\t<p>Press '<span style=\"color: red;\"><strong>F</strong></span>' to choose the card on the left,\n\t\t\t\tand '<span style=\"color: red;\"><strong>J</strong></span>' to choose the card on the right.</p>\n\t\t\t<p>Have fun!</p>\n\t\t\t<br>\n\t\t\t<p>The trials will begin in 30 seconds</p>\n\t\t\t","response":" ","trial_type":"html-keyboard-response","trial_index":126,"time_elapsed":597078,"internal_node_id":"0.0-4.0","prolific_id":"5e1b299528c70235eeed62ef","session_id":"643c2534193a7d486b20a32e","study_id":"64370a36d30bfa807bc7e43c"},{"rt":3104,"stimulus":"\n\t\t\t\t\t\t<div class=\"two_card_container\">\n\t\t\t\t\t\t<div class=\"card_container\">\n\t\t\t\t\t\t<img src=img/35.png>\n\t\t\t\t\t\t</div>\n\n\t\t\t\t\t\t<div class=\"card_container\">\n\t\t\t\t\t\t<img src=img/1.png>\n\t\t\t\t\t\t</div>","response":"j","task":"response","correct_response":"j","trial_type":"html-keyboard-response","trial_index":127,"time_elapsed":600182,"internal_node_id":"0.0-5.0-0.0","prolific_id":"5e1b299528c70235eeed62ef","session_id":"643c2534193a7d486b20a32e","study_id":"64370a36d30bfa807bc7e43c","correct":true},{"rt":null,"stimulus":"\n\t\t\t\t\t<p>Correct!</p>\n\t\t\t\t\t","response":null,"trial_type":"html-keyboard-response","trial_index":128,"time_elapsed":601190,"internal_node_id":"0.0-5.0-1.0","prolific_id":"5e1b299528c70235eeed62ef","session_id":"643c2534193a7d486b20a32e","study_id":"64370a36d30bfa807bc7e43c"},{"rt":1331,"stimulus":"\n\t\t\t\t\t\t<div class=\"two_card_container\">\n\t\t\t\t\t\t<div class=\"card_container\">\n\t\t\t\t\t\t<img src=img/15.png>\n\t\t\t\t\t\t</div>\n\n\t\t\t\t\t\t<div class=\"card_container\">\n\t\t\t\t\t\t<img src=img/37.png>\n\t\t\t\t\t\t</div>","response":"f","task":"response","correct_response":"f","trial_type":"html-keyboard-response","trial_index":129,"time_elapsed":602521,"internal_node_id":"0.0-5.0-0.1","prolific_id":"5e1b299528c70235eeed62ef","session_id":"643c2534193a7d486b20a32e","study_id":"64370a36d30bfa807bc7e43c","correct":true},{"rt":null,"stimulus":"\n\t\t\t\t\t<p>Correct!</p>\n\t\t\t\t\t","response":null,"trial_type":"html-keyboard-response","trial_index":130,"time_elapsed":603531,"internal_node_id":"0.0-5.0-1.1","prolific_id":"5e1b299528c70235eeed62ef","session_id":"643c2534193a7d486b20a32e","study_id":"64370a36d30bfa807bc7e43c"},{"rt":1579,"stimulus":"\n\t\t\t\t\t\t<div class=\"two_card_container\">\n\t\t\t\t\t\t<div class=\"card_container\">\n\t\t\t\t\t\t<img src=img/19.png>\n\t\t\t\t\t\t</div>\n\n\t\t\t\t\t\t<div class=\"card_container\">\n\t\t\t\t\t\t<img src=img/31.png>\n\t\t\t\t\t\t</div>","response":"f","task":"response","correct_response":"f","trial_type":"html-keyboard-response","trial_index":131,"time_elapsed":605111,"internal_node_id":"0.0-5.0-0.2","prolific_id":"5e1b299528c70235eeed62ef","session_id":"643c2534193a7d486b20a32e","study_id":"64370a36d30bfa807bc7e43c","correct":true},{"rt":null,"stimulus":"\n\t\t\t\t\t<p>Correct!</p>\n\t\t\t\t\t","response":null,"trial_type":"html-keyboard-response","trial_index":132,"time_elapsed":606120,"internal_node_id":"0.0-5.0-1.2","prolific_id":"5e1b299528c70235eeed62ef","session_id":"643c2534193a7d486b20a32e","study_id":"64370a36d30bfa807bc7e43c"},{"rt":1846,"stimulus":"\n\t\t\t\t\t\t<div class=\"two_card_container\">\n\t\t\t\t\t\t<div class=\"card_container\">\n\t\t\t\t\t\t<img src=img/20.png>\n\t\t\t\t\t\t</div>\n\n\t\t\t\t\t\t<div class=\"card_container\">\n\t\t\t\t\t\t<img src=img/40.png>\n\t\t\t\t\t\t</div>","response":"f","task":"response","correct_response":"f","trial_type":"html-keyboard-response","trial_index":133,"time_elapsed":607967,"internal_node_id":"0.0-5.0-0.3","prolific_id":"5e1b299528c70235eeed62ef","session_id":"643c2534193a7d486b20a32e","study_id":"64370a36d30bfa807bc7e43c","correct":true},{"rt":null,"stimulus":"\n\t\t\t\t\t<p>Correct!</p>\n\t\t\t\t\t","response":null,"trial_type":"html-keyboard-response","trial_index":134,"time_elapsed":608975,"internal_node_id":"0.0-5.0-1.3","prolific_id":"5e1b299528c70235eeed62ef","session_id":"643c2534193a7d486b20a32e","study_id":"64370a36d30bfa807bc7e43c"},{"rt":1128,"stimulus":"\n\t\t\t\t\t\t<div class=\"two_card_container\">\n\t\t\t\t\t\t<div class=\"card_container\">\n\t\t\t\t\t\t<img src=img/32.png>\n\t\t\t\t\t\t</div>\n\n\t\t\t\t\t\t<div class=\"card_container\">\n\t\t\t\t\t\t<img src=img/13.png>\n\t\t\t\t\t\t</div>","response":"j","task":"response","correct_response":"j","trial_type":"html-keyboard-response","trial_index":135,"time_elapsed":610104,"internal_node_id":"0.0-5.0-0.4","prolific_id":"5e1b299528c70235eeed62ef","session_id":"643c2534193a7d486b20a32e","study_id":"64370a36d30bfa807bc7e43c","correct":true},{"rt":null,"stimulus":"\n\t\t\t\t\t<p>Correct!</p>\n\t\t\t\t\t","response":null,"trial_type":"html-keyboard-response","trial_index":136,"time_elapsed":611107,"internal_node_id":"0.0-5.0-1.4","prolific_id":"5e1b299528c70235eeed62ef","session_id":"643c2534193a7d486b20a32e","study_id":"64370a36d30bfa807bc7e43c"},{"rt":1766,"stimulus":"\n\t\t\t\t\t\t<div class=\"two_card_container\">\n\t\t\t\t\t\t<div class=\"card_container\">\n\t\t\t\t\t\t<img src=img/33.png>\n\t\t\t\t\t\t</div>\n\n\t\t\t\t\t\t<div class=\"card_container\">\n\t\t\t\t\t\t<img src=img/12.png>\n\t\t\t\t\t\t</div>","response":"j","task":"response","correct_response":"j","trial_type":"html-keyboard-response","trial_index":137,"time_elapsed":612874,"internal_node_id":"0.0-5.0-0.5","prolific_id":"5e1b299528c70235eeed62ef","session_id":"643c2534193a7d486b20a32e","study_id":"64370a36d30bfa807bc7e43c","correct":true},{"rt":null,"stimulus":"\n\t\t\t\t\t<p>Correct!</p>\n\t\t\t\t\t","response":null,"trial_type":"html-keyboard-response","trial_index":138,"time_elapsed":613879,"internal_node_id":"0.0-5.0-1.5","prolific_id":"5e1b299528c70235eeed62ef","session_id":"643c2534193a7d486b20a32e","study_id":"64370a36d30bfa807bc7e43c"},{"rt":1378,"stimulus":"\n\t\t\t\t\t\t<div class=\"two_card_container\">\n\t\t\t\t\t\t<div class=\"card_container\">\n\t\t\t\t\t\t<img src=img/28.png>\n\t\t\t\t\t\t</div>\n\n\t\t\t\t\t\t<div class=\"card_container\">\n\t\t\t\t\t\t<img src=img/34.png>\n\t\t\t\t\t\t</div>","response":"f","task":"response","correct_response":"f","trial_type":"html-keyboard-response","trial_index":139,"time_elapsed":615257,"internal_node_id":"0.0-5.0-0.6","prolific_id":"5e1b299528c70235eeed62ef","session_id":"643c2534193a7d486b20a32e","study_id":"64370a36d30bfa807bc7e43c","correct":true},{"rt":null,"stimulus":"\n\t\t\t\t\t<p>Correct!</p>\n\t\t\t\t\t","response":null,"trial_type":"html-keyboard-response","trial_index":140,"time_elapsed":616267,"internal_node_id":"0.0-5.0-1.6","prolific_id":"5e1b299528c70235eeed62ef","session_id":"643c2534193a7d486b20a32e","study_id":"64370a36d30bfa807bc7e43c"},{"rt":2343,"stimulus":"\n\t\t\t\t\t\t<div class=\"two_card_container\">\n\t\t\t\t\t\t<div class=\"card_container\">\n\t\t\t\t\t\t<img src=img/36.png>\n\t\t\t\t\t\t</div>\n\n\t\t\t\t\t\t<div class=\"card_container\">\n\t\t\t\t\t\t<img src=img/29.png>\n\t\t\t\t\t\t</div>","response":"j","task":"response","correct_response":"j","trial_type":"html-keyboard-response","trial_index":141,"time_elapsed":618610,"internal_node_id":"0.0-5.0-0.7","prolific_id":"5e1b299528c70235eeed62ef","session_id":"643c2534193a7d486b20a32e","study_id":"64370a36d30bfa807bc7e43c","correct":true},{"rt":null,"stimulus":"\n\t\t\t\t\t<p>Correct!</p>\n\t\t\t\t\t","response":null,"trial_type":"html-keyboard-response","trial_index":142,"time_elapsed":619614,"internal_node_id":"0.0-5.0-1.7","prolific_id":"5e1b299528c70235eeed62ef","session_id":"643c2534193a7d486b20a32e","study_id":"64370a36d30bfa807bc7e43c"},{"rt":1922,"stimulus":"\n\t\t\t\t\t\t<div class=\"two_card_container\">\n\t\t\t\t\t\t<div class=\"card_container\">\n\t\t\t\t\t\t<img src=img/38.png>\n\t\t\t\t\t\t</div>\n\n\t\t\t\t\t\t<div class=\"card_container\">\n\t\t\t\t\t\t<img src=img/23.png>\n\t\t\t\t\t\t</div>","response":"j","task":"response","correct_response":"j","trial_type":"html-keyboard-response","trial_index":143,"time_elapsed":621536,"internal_node_id":"0.0-5.0-0.8","prolific_id":"5e1b299528c70235eeed62ef","session_id":"643c2534193a7d486b20a32e","study_id":"64370a36d30bfa807bc7e43c","correct":true},{"rt":null,"stimulus":"\n\t\t\t\t\t<p>Correct!</p>\n\t\t\t\t\t","response":null,"trial_type":"html-keyboard-response","trial_index":144,"time_elapsed":622542,"internal_node_id":"0.0-5.0-1.8","prolific_id":"5e1b299528c70235eeed62ef","session_id":"643c2534193a7d486b20a32e","study_id":"64370a36d30bfa807bc7e43c"},{"rt":2097,"stimulus":"\n\t\t\t\t\t\t<div class=\"two_card_container\">\n\t\t\t\t\t\t<div class=\"card_container\">\n\t\t\t\t\t\t<img src=img/25.png>\n\t\t\t\t\t\t</div>\n\n\t\t\t\t\t\t<div class=\"card_container\">\n\t\t\t\t\t\t<img src=img/39.png>\n\t\t\t\t\t\t</div>","response":"f","task":"response","correct_response":"f","trial_type":"html-keyboard-response","trial_index":145,"time_elapsed":624640,"internal_node_id":"0.0-5.0-0.9","prolific_id":"5e1b299528c70235eeed62ef","session_id":"643c2534193a7d486b20a32e","study_id":"64370a36d30bfa807bc7e43c","correct":true},{"rt":null,"stimulus":"\n\t\t\t\t\t<p>Correct!</p>\n\t\t\t\t\t","response":null,"trial_type":"html-keyboard-response","trial_index":146,"time_elapsed":625649,"internal_node_id":"0.0-5.0-1.9","prolific_id":"5e1b299528c70235eeed62ef","session_id":"643c2534193a7d486b20a32e","study_id":"64370a36d30bfa807bc7e43c"},{"rt":11411,"stimulus":"\n\t\t\t<h2>Good job :p</h2>\n\t\t\t<p>In the next session, you will see a trivia question on the screen in each trial.</p>\n\t\t\t<p>Each of these trivia questions is chosen from the questions you have already seen in the first session of the experiment.</p><br>\n\t\t\t<p>Your task is to answer the trivia question based on what you remember as accurately as you can.</p>\n\t\t\t<p>Have fun!</p>\n\t\t\t<br>\n\t\t\t<p>The trials will begin in 30 seconds</p>\n\t\t\t","response":" ","trial_type":"html-keyboard-response","trial_index":147,"time_elapsed":637060,"internal_node_id":"0.0-6.0","prolific_id":"5e1b299528c70235eeed62ef","session_id":"643c2534193a7d486b20a32e","study_id":"64370a36d30bfa807bc7e43c"},{"rt":4692,"response":{"answer":"1989"},"task":"response","correct_response":"1989","trial_type":"survey-text","trial_index":148,"time_elapsed":641754,"internal_node_id":"0.0-7.0-0.0","prolific_id":"5e1b299528c70235eeed62ef","session_id":"643c2534193a7d486b20a32e","study_id":"64370a36d30bfa807bc7e43c","difference":0},{"rt":null,"stimulus":"<h2>The correct answer is 1989.</h2><p>Your answer was different from the answer by 0.</p><p>You got the right answer. Amazing work!</p>","response":null,"trial_type":"html-keyboard-response","trial_index":149,"time_elapsed":644262,"internal_node_id":"0.0-7.0-1.0","prolific_id":"5e1b299528c70235eeed62ef","session_id":"643c2534193a7d486b20a32e","study_id":"64370a36d30bfa807bc7e43c"},{"rt":4309,"response":{"answer":"1912"},"task":"response","correct_response":"1912","trial_type":"survey-text","trial_index":150,"time_elapsed":648572,"internal_node_id":"0.0-7.0-0.1","prolific_id":"5e1b299528c70235eeed62ef","session_id":"643c2534193a7d486b20a32e","study_id":"64370a36d30bfa807bc7e43c","difference":0},{"rt":null,"stimulus":"<h2>The correct answer is 1912.</h2><p>Your answer was different from the answer by 0.</p><p>You got the right answer. Amazing work!</p>","response":null,"trial_type":"html-keyboard-response","trial_index":151,"time_elapsed":651083,"internal_node_id":"0.0-7.0-1.1","prolific_id":"5e1b299528c70235eeed62ef","session_id":"643c2534193a7d486b20a32e","study_id":"64370a36d30bfa807bc7e43c"},{"rt":5960,"response":{"answer":"26"},"task":"response","correct_response":"21","trial_type":"survey-text","trial_index":152,"time_elapsed":657044,"internal_node_id":"0.0-7.0-0.2","prolific_id":"5e1b299528c70235eeed62ef","session_id":"643c2534193a7d486b20a32e","study_id":"64370a36d30bfa807bc7e43c","difference":24},{"rt":null,"stimulus":"<h2>The correct answer is 21.</h2><p>Your answer was different from the answer by 5.</p><p>A pretty good job indeed.</p>","response":null,"trial_type":"html-keyboard-response","trial_index":153,"time_elapsed":659550,"internal_node_id":"0.0-7.0-1.2","prolific_id":"5e1b299528c70235eeed62ef","session_id":"643c2534193a7d486b20a32e","study_id":"64370a36d30bfa807bc7e43c"},{"rt":3354,"response":{"answer":"4"},"task":"response","correct_response":"4","trial_type":"survey-text","trial_index":154,"time_elapsed":662905,"internal_node_id":"0.0-7.0-0.3","prolific_id":"5e1b299528c70235eeed62ef","session_id":"643c2534193a7d486b20a32e","study_id":"64370a36d30bfa807bc7e43c","difference":0},{"rt":null,"stimulus":"<h2>The correct answer is 4.</h2><p>Your answer was different from the answer by 0.</p><p>You got the right answer. Amazing work!</p>","response":null,"trial_type":"html-keyboard-response","trial_index":155,"time_elapsed":665416,"internal_node_id":"0.0-7.0-1.3","prolific_id":"5e1b299528c70235eeed62ef","session_id":"643c2534193a7d486b20a32e","study_id":"64370a36d30bfa807bc7e43c"},{"rt":3946,"response":{"answer":"86"},"task":"response","correct_response":"88","trial_type":"survey-text","trial_index":156,"time_elapsed":669363,"internal_node_id":"0.0-7.0-0.4","prolific_id":"5e1b299528c70235eeed62ef","session_id":"643c2534193a7d486b20a32e","study_id":"64370a36d30bfa807bc7e43c","difference":2},{"rt":null,"stimulus":"<h2>The correct answer is 88.</h2><p>Your answer was different from the answer by 2.</p><p>Excellent. Kudos to you!</p>","response":null,"trial_type":"html-keyboard-response","trial_index":157,"time_elapsed":671874,"internal_node_id":"0.0-7.0-1.4","prolific_id":"5e1b299528c70235eeed62ef","session_id":"643c2534193a7d486b20a32e","study_id":"64370a36d30bfa807bc7e43c"},{"rt":4430,"response":{"answer":"163"},"task":"response","correct_response":"163","trial_type":"survey-text","trial_index":158,"time_elapsed":676305,"internal_node_id":"0.0-7.0-0.5","prolific_id":"5e1b299528c70235eeed62ef","session_id":"643c2534193a7d486b20a32e","study_id":"64370a36d30bfa807bc7e43c","difference":0},{"rt":null,"stimulus":"<h2>The correct answer is 163.</h2><p>Your answer was different from the answer by 0.</p><p>You got the right answer. Amazing work!</p>","response":null,"trial_type":"html-keyboard-response","trial_index":159,"time_elapsed":678806,"internal_node_id":"0.0-7.0-1.5","prolific_id":"5e1b299528c70235eeed62ef","session_id":"643c2534193a7d486b20a32e","study_id":"64370a36d30bfa807bc7e43c"},{"rt":4563,"response":{"answer":"26"},"task":"response","correct_response":"28","trial_type":"survey-text","trial_index":160,"time_elapsed":683370,"internal_node_id":"0.0-7.0-0.6","prolific_id":"5e1b299528c70235eeed62ef","session_id":"643c2534193a7d486b20a32e","study_id":"64370a36d30bfa807bc7e43c","difference":7},{"rt":null,"stimulus":"<h2>The correct answer is 28.</h2><p>Your answer was different from the answer by 2.</p><p>Excellent. Kudos to you!</p>","response":null,"trial_type":"html-keyboard-response","trial_index":161,"time_elapsed":685878,"internal_node_id":"0.0-7.0-1.6","prolific_id":"5e1b299528c70235eeed62ef","session_id":"643c2534193a7d486b20a32e","study_id":"64370a36d30bfa807bc7e43c"},{"rt":3499,"response":{"answer":"5"},"task":"response","correct_response":"5","trial_type":"survey-text","trial_index":162,"time_elapsed":689378,"internal_node_id":"0.0-7.0-0.7","prolific_id":"5e1b299528c70235eeed62ef","session_id":"643c2534193a7d486b20a32e","study_id":"64370a36d30bfa807bc7e43c","difference":0},{"rt":null,"stimulus":"<h2>The correct answer is 5.</h2><p>Your answer was different from the answer by 0.</p><p>You got the right answer. Amazing work!</p>","response":null,"trial_type":"html-keyboard-response","trial_index":163,"time_elapsed":691889,"internal_node_id":"0.0-7.0-1.7","prolific_id":"5e1b299528c70235eeed62ef","session_id":"643c2534193a7d486b20a32e","study_id":"64370a36d30bfa807bc7e43c"},{"rt":4047,"response":{"answer":"2007"},"task":"response","correct_response":"2007","trial_type":"survey-text","trial_index":164,"time_elapsed":695937,"internal_node_id":"0.0-7.0-0.8","prolific_id":"5e1b299528c70235eeed62ef","session_id":"643c2534193a7d486b20a32e","study_id":"64370a36d30bfa807bc7e43c","difference":0},{"rt":null,"stimulus":"<h2>The correct answer is 2007.</h2><p>Your answer was different from the answer by 0.</p><p>You got the right answer. Amazing work!</p>","response":null,"trial_type":"html-keyboard-response","trial_index":165,"time_elapsed":698449,"internal_node_id":"0.0-7.0-1.8","prolific_id":"5e1b299528c70235eeed62ef","session_id":"643c2534193a7d486b20a32e","study_id":"64370a36d30bfa807bc7e43c"},{"rt":3157,"response":{"answer":"8"},"task":"response","correct_response":"14","trial_type":"survey-text","trial_index":166,"time_elapsed":701608,"internal_node_id":"0.0-7.0-0.9","prolific_id":"5e1b299528c70235eeed62ef","session_id":"643c2534193a7d486b20a32e","study_id":"64370a36d30bfa807bc7e43c","difference":43},{"rt":null,"stimulus":"<h2>The correct answer is 14.</h2><p>Your answer was different from the answer by 6.</p><p>Not the worst. Can you do better on the next?</p>","response":null,"trial_type":"html-keyboard-response","trial_index":167,"time_elapsed":704111,"internal_node_id":"0.0-7.0-1.9","prolific_id":"5e1b299528c70235eeed62ef","session_id":"643c2534193a7d486b20a32e","study_id":"64370a36d30bfa807bc7e43c"}]