[{"success":true,"timeout":false,"failed_images":[],"failed_audio":[],"failed_video":[],"trial_type":"preload","trial_index":0,"time_elapsed":7253,"internal_node_id":"0.0-0.0","prolific_id":"5e2fba940cded955c77b0bb5","session_id":"6439995005066cee9f8b7010","study_id":"64370a36d30bfa807bc7e43c"},{"rt":35873,"stimulus":"\n\t\t\t\t\t<p>Welcome and thank you for participating in this study!</p>\n\t\t\t\t\t<p>In each trial, you will be given a trivia question and then be asked to:</p><br>\n\t\t\t\t\t<div class=\"list\">\n\t\t\t\t\t<p>1) Predict the answer</p>\n\t\t\t\t\t<p>2) Rate how much you already know about the topic</p>\n\t\t\t\t\t<p>3) Rate how much you want to know the answer</p>\n\t\t\t\t\t</div>\n\t\t\t\t\t<br>\n\t\t\t\t\t<p>Then, you will see a card that flips over to reveal the answer.</p>\n\t\t\t\t\t<br>\n\t\t\t\t\t<p>Let's try a practice round. Press <span style=\"color: red\"><strong>any key</strong></span> to move to the next slide</p>\n\t\t\t\t\t","response":" ","trial_type":"html-keyboard-response","trial_index":1,"time_elapsed":43128,"internal_node_id":"0.0-1.0","prolific_id":"5e2fba940cded955c77b0bb5","session_id":"6439995005066cee9f8b7010","study_id":"64370a36d30bfa807bc7e43c"},{"rt":3572,"response":{"practice prediction":"6"},"task":"practice","trial_type":"survey-text","trial_index":2,"time_elapsed":46768,"internal_node_id":"0.0-2.0-0.0","prolific_id":"5e2fba940cded955c77b0bb5","session_id":"6439995005066cee9f8b7010","study_id":"64370a36d30bfa807bc7e43c"},{"rt":8205,"response":{"practice":5},"accuracy":[],"trial_type":"survey","trial_index":3,"time_elapsed":55146,"internal_node_id":"0.0-2.0-1.0","prolific_id":"5e2fba940cded955c77b0bb5","session_id":"6439995005066cee9f8b7010","study_id":"64370a36d30bfa807bc7e43c"},{"rt":null,"stimulus":"\n\t\t\t\t<div class=\"flip_card\">\n\t\t\t\t\t<div class=\"flip_card_inner\">\n\t\t\t\t\t\t<div class=\"flip_card_front\">\n\t\t\t\t\t\t\t<img src=img/practice.png>\n\t\t\t\t\t\t</div>\n\t\t\t\t\t\t<div class=\"flip_card_back\">\n\t\t\t\t\t\t\t<h2>\"How many legs does a lobster have?\"</h2>\n\t\t\t\t\t\t    <br>\n\t\t\t\t\t\t    <p>Answer: <strong>\"10\"</strong></p>\n\t\t\t\t\t    </div>\n\t\t\t\t    </div>\n\t\t\t    </div>\n\t\t\t\t","response":null,"trial_type":"html-keyboard-response","trial_index":4,"time_elapsed":60154,"internal_node_id":"0.0-2.0-2.0","prolific_id":"5e2fba940cded955c77b0bb5","session_id":"6439995005066cee9f8b7010","study_id":"64370a36d30bfa807bc7e43c"},{"rt":1286,"stimulus":"\n\t\t\t\t\t<div>\n\t\t\t\t\t<h2>The practice round is over</h2>\n\t\t\t\t\t<p>Press <span style=\"color: red\"><strong>any key</strong></span> to continue to the actual trials</p>\n\t\t\t\t\t<p>Good Luck!</p>\n\t\t\t\t\t</div>\n\t\t\t\t\t","response":" ","trial_type":"html-keyboard-response","trial_index":5,"time_elapsed":61441,"internal_node_id":"0.0-2.0-3.0","prolific_id":"5e2fba940cded955c77b0bb5","session_id":"6439995005066cee9f8b7010","study_id":"64370a36d30bfa807bc7e43c"},{"rt":6713,"response":{"prediction":"1928"},"trial_type":"survey-text","trial_index":6,"time_elapsed":68164,"internal_node_id":"0.0-3.0-0.0","prolific_id":"5e2fba940cded955c77b0bb5","session_id":"6439995005066cee9f8b7010","study_id":"64370a36d30bfa807bc7e43c"},{"rt":5324,"response":{"prior knowledge":1,"curiosity":4},"accuracy":[],"trial_type":"survey","trial_index":7,"time_elapsed":73522,"internal_node_id":"0.0-3.0-1.0","prolific_id":"5e2fba940cded955c77b0bb5","session_id":"6439995005066cee9f8b7010","study_id":"64370a36d30bfa807bc7e43c"},{"rt":null,"stimulus":"\n\t\t\t<div class=\"flip_card\">\n\t\t\t\t<div class=\"flip_card_inner\">\n\t\t\t\t\t<div class=\"flip_card_front\">\n\t\t\t\t\t\t<img src=img/22.png>\n\t\t\t\t\t</div>\n\t\t\t\t\t<div class=\"flip_card_back\">\n\t\t\t\t\t\t<h2>In what year did the first Modern Olympic Games take place?</h2>\n\t\t\t\t\t\t<br>\n\t\t\t\t\t\t<p>Answer: <strong>1896</strong></p>\n\t\t\t\t\t</div>\n\t\t\t\t</div>\n\t\t\t</div>\n\t\t\t","response":null,"trial_type":"html-keyboard-response","trial_index":8,"time_elapsed":78527,"internal_node_id":"0.0-3.0-2.0","prolific_id":"5e2fba940cded955c77b0bb5","session_id":"6439995005066cee9f8b7010","study_id":"64370a36d30bfa807bc7e43c"},{"rt":918,"stimulus":"\n\t\t\t\t\t<div>\n\t\t\t\t\t<h2>Trial 1 is over</h2>\n\t\t\t\t\t<p>Press <span style=\"color: red\"><strong>any key</strong></span> to continue to the next trial</p>\n\t\t\t\t\t</div>\n\t\t\t\t","response":" ","trial_type":"html-keyboard-response","trial_index":9,"time_elapsed":79447,"internal_node_id":"0.0-3.0-3.0","prolific_id":"5e2fba940cded955c77b0bb5","session_id":"6439995005066cee9f8b7010","study_id":"64370a36d30bfa807bc7e43c"},{"rt":10606,"response":{"prediction":"36000"},"trial_type":"survey-text","trial_index":10,"time_elapsed":90060,"internal_node_id":"0.0-3.0-0.1","prolific_id":"5e2fba940cded955c77b0bb5","session_id":"6439995005066cee9f8b7010","study_id":"64370a36d30bfa807bc7e43c"},{"rt":4007,"response":{"prior knowledge":2,"curiosity":5},"accuracy":[],"trial_type":"survey","trial_index":11,"time_elapsed":94090,"internal_node_id":"0.0-3.0-1.1","prolific_id":"5e2fba940cded955c77b0bb5","session_id":"6439995005066cee9f8b7010","study_id":"64370a36d30bfa807bc7e43c"},{"rt":null,"stimulus":"\n\t\t\t<div class=\"flip_card\">\n\t\t\t\t<div class=\"flip_card_inner\">\n\t\t\t\t\t<div class=\"flip_card_front\">\n\t\t\t\t\t\t<img src=img/19.png>\n\t\t\t\t\t</div>\n\t\t\t\t\t<div class=\"flip_card_back\">\n\t\t\t\t\t\t<h2>What is the diameter of Earth in miles?</h2>\n\t\t\t\t\t\t<br>\n\t\t\t\t\t\t<p>Answer: <strong>7917.5</strong></p>\n\t\t\t\t\t</div>\n\t\t\t\t</div>\n\t\t\t</div>\n\t\t\t","response":null,"trial_type":"html-keyboard-response","trial_index":12,"time_elapsed":99110,"internal_node_id":"0.0-3.0-2.1","prolific_id":"5e2fba940cded955c77b0bb5","session_id":"6439995005066cee9f8b7010","study_id":"64370a36d30bfa807bc7e43c"},{"rt":792,"stimulus":"\n\t\t\t\t\t<div>\n\t\t\t\t\t<h2>Trial 2 is over</h2>\n\t\t\t\t\t<p>Press <span style=\"color: red\"><strong>any key</strong></span> to continue to the next trial</p>\n\t\t\t\t\t</div>\n\t\t\t\t","response":" ","trial_type":"html-keyboard-response","trial_index":13,"time_elapsed":99904,"internal_node_id":"0.0-3.0-3.1","prolific_id":"5e2fba940cded955c77b0bb5","session_id":"6439995005066cee9f8b7010","study_id":"64370a36d30bfa807bc7e43c"},{"rt":4486,"response":{"prediction":"150"},"trial_type":"survey-text","trial_index":14,"time_elapsed":104398,"internal_node_id":"0.0-3.0-0.2","prolific_id":"5e2fba940cded955c77b0bb5","session_id":"6439995005066cee9f8b7010","study_id":"64370a36d30bfa807bc7e43c"},{"rt":5100,"response":{"prior knowledge":1,"curiosity":4},"accuracy":[],"trial_type":"survey","trial_index":15,"time_elapsed":109569,"internal_node_id":"0.0-3.0-1.2","prolific_id":"5e2fba940cded955c77b0bb5","session_id":"6439995005066cee9f8b7010","study_id":"64370a36d30bfa807bc7e43c"},{"rt":null,"stimulus":"\n\t\t\t<div class=\"flip_card\">\n\t\t\t\t<div class=\"flip_card_inner\">\n\t\t\t\t\t<div class=\"flip_card_front\">\n\t\t\t\t\t\t<img src=img/21.png>\n\t\t\t\t\t</div>\n\t\t\t\t\t<div class=\"flip_card_back\">\n\t\t\t\t\t\t<h2>How many floors are in the Burj Khalifa, the tallest building in the world?</h2>\n\t\t\t\t\t\t<br>\n\t\t\t\t\t\t<p>Answer: <strong>163</strong></p>\n\t\t\t\t\t</div>\n\t\t\t\t</div>\n\t\t\t</div>\n\t\t\t","response":null,"trial_type":"html-keyboard-response","trial_index":16,"time_elapsed":114584,"internal_node_id":"0.0-3.0-2.2","prolific_id":"5e2fba940cded955c77b0bb5","session_id":"6439995005066cee9f8b7010","study_id":"64370a36d30bfa807bc7e43c"},{"rt":857,"stimulus":"\n\t\t\t\t\t<div>\n\t\t\t\t\t<h2>Trial 3 is over</h2>\n\t\t\t\t\t<p>Press <span style=\"color: red\"><strong>any key</strong></span> to continue to the next trial</p>\n\t\t\t\t\t</div>\n\t\t\t\t","response":" ","trial_type":"html-keyboard-response","trial_index":17,"time_elapsed":115443,"internal_node_id":"0.0-3.0-3.2","prolific_id":"5e2fba940cded955c77b0bb5","session_id":"6439995005066cee9f8b7010","study_id":"64370a36d30bfa807bc7e43c"},{"rt":2984,"response":{"prediction":"12"},"trial_type":"survey-text","trial_index":18,"time_elapsed":118438,"internal_node_id":"0.0-3.0-0.3","prolific_id":"5e2fba940cded955c77b0bb5","session_id":"6439995005066cee9f8b7010","study_id":"64370a36d30bfa807bc7e43c"},{"rt":4194,"response":{"prior knowledge":1,"curiosity":4},"accuracy":[],"trial_type":"survey","trial_index":19,"time_elapsed":122653,"internal_node_id":"0.0-3.0-1.3","prolific_id":"5e2fba940cded955c77b0bb5","session_id":"6439995005066cee9f8b7010","study_id":"64370a36d30bfa807bc7e43c"},{"rt":null,"stimulus":"\n\t\t\t<div class=\"flip_card\">\n\t\t\t\t<div class=\"flip_card_inner\">\n\t\t\t\t\t<div class=\"flip_card_front\">\n\t\t\t\t\t\t<img src=img/1.png>\n\t\t\t\t\t</div>\n\t\t\t\t\t<div class=\"flip_card_back\">\n\t\t\t\t\t\t<h2>How many moons does Neptune have?</h2>\n\t\t\t\t\t\t<br>\n\t\t\t\t\t\t<p>Answer: <strong>14</strong></p>\n\t\t\t\t\t</div>\n\t\t\t\t</div>\n\t\t\t</div>\n\t\t\t","response":null,"trial_type":"html-keyboard-response","trial_index":20,"time_elapsed":127657,"internal_node_id":"0.0-3.0-2.3","prolific_id":"5e2fba940cded955c77b0bb5","session_id":"6439995005066cee9f8b7010","study_id":"64370a36d30bfa807bc7e43c"},{"rt":767,"stimulus":"\n\t\t\t\t\t<div>\n\t\t\t\t\t<h2>Trial 4 is over</h2>\n\t\t\t\t\t<p>Press <span style=\"color: red\"><strong>any key</strong></span> to continue to the next trial</p>\n\t\t\t\t\t</div>\n\t\t\t\t","response":" ","trial_type":"html-keyboard-response","trial_index":21,"time_elapsed":128425,"internal_node_id":"0.0-3.0-3.3","prolific_id":"5e2fba940cded955c77b0bb5","session_id":"6439995005066cee9f8b7010","study_id":"64370a36d30bfa807bc7e43c"},{"rt":4617,"response":{"prediction":"12"},"trial_type":"survey-text","trial_index":22,"time_elapsed":133048,"internal_node_id":"0.0-3.0-0.4","prolific_id":"5e2fba940cded955c77b0bb5","session_id":"6439995005066cee9f8b7010","study_id":"64370a36d30bfa807bc7e43c"},{"rt":4431,"response":{"prior knowledge":2,"curiosity":4},"accuracy":[],"trial_type":"survey","trial_index":23,"time_elapsed":137496,"internal_node_id":"0.0-3.0-1.4","prolific_id":"5e2fba940cded955c77b0bb5","session_id":"6439995005066cee9f8b7010","study_id":"64370a36d30bfa807bc7e43c"},{"rt":null,"stimulus":"\n\t\t\t<div class=\"flip_card\">\n\t\t\t\t<div class=\"flip_card_inner\">\n\t\t\t\t\t<div class=\"flip_card_front\">\n\t\t\t\t\t\t<img src=img/8.png>\n\t\t\t\t\t</div>\n\t\t\t\t\t<div class=\"flip_card_back\">\n\t\t\t\t\t\t<h2>How many different animals (real or imaginary) are represented in the Chinese calendar?</h2>\n\t\t\t\t\t\t<br>\n\t\t\t\t\t\t<p>Answer: <strong>12</strong></p>\n\t\t\t\t\t</div>\n\t\t\t\t</div>\n\t\t\t</div>\n\t\t\t","response":null,"trial_type":"html-keyboard-response","trial_index":24,"time_elapsed":142509,"internal_node_id":"0.0-3.0-2.4","prolific_id":"5e2fba940cded955c77b0bb5","session_id":"6439995005066cee9f8b7010","study_id":"64370a36d30bfa807bc7e43c"},{"rt":517,"stimulus":"\n\t\t\t\t\t<div>\n\t\t\t\t\t<h2>Trial 5 is over</h2>\n\t\t\t\t\t<p>Press <span style=\"color: red\"><strong>any key</strong></span> to continue to the next trial</p>\n\t\t\t\t\t</div>\n\t\t\t\t","response":" ","trial_type":"html-keyboard-response","trial_index":25,"time_elapsed":143028,"internal_node_id":"0.0-3.0-3.4","prolific_id":"5e2fba940cded955c77b0bb5","session_id":"6439995005066cee9f8b7010","study_id":"64370a36d30bfa807bc7e43c"},{"rt":3490,"response":{"prediction":"45"},"trial_type":"survey-text","trial_index":26,"time_elapsed":146523,"internal_node_id":"0.0-3.0-0.5","prolific_id":"5e2fba940cded955c77b0bb5","session_id":"6439995005066cee9f8b7010","study_id":"64370a36d30bfa807bc7e43c"},{"rt":3776,"response":{"prior knowledge":1,"curiosity":4},"accuracy":[],"trial_type":"survey","trial_index":27,"time_elapsed":150318,"internal_node_id":"0.0-3.0-1.5","prolific_id":"5e2fba940cded955c77b0bb5","session_id":"6439995005066cee9f8b7010","study_id":"64370a36d30bfa807bc7e43c"},{"rt":null,"stimulus":"\n\t\t\t<div class=\"flip_card\">\n\t\t\t\t<div class=\"flip_card_inner\">\n\t\t\t\t\t<div class=\"flip_card_front\">\n\t\t\t\t\t\t<img src=img/26.png>\n\t\t\t\t\t</div>\n\t\t\t\t\t<div class=\"flip_card_back\">\n\t\t\t\t\t\t<h2>How many books has Stephen King published?</h2>\n\t\t\t\t\t\t<br>\n\t\t\t\t\t\t<p>Answer: <strong>65</strong></p>\n\t\t\t\t\t</div>\n\t\t\t\t</div>\n\t\t\t</div>\n\t\t\t","response":null,"trial_type":"html-keyboard-response","trial_index":28,"time_elapsed":155330,"internal_node_id":"0.0-3.0-2.5","prolific_id":"5e2fba940cded955c77b0bb5","session_id":"6439995005066cee9f8b7010","study_id":"64370a36d30bfa807bc7e43c"},{"rt":701,"stimulus":"\n\t\t\t\t\t<div>\n\t\t\t\t\t<h2>Trial 6 is over</h2>\n\t\t\t\t\t<p>Press <span style=\"color: red\"><strong>any key</strong></span> to continue to the next trial</p>\n\t\t\t\t\t</div>\n\t\t\t\t","response":" ","trial_type":"html-keyboard-response","trial_index":29,"time_elapsed":156033,"internal_node_id":"0.0-3.0-3.5","prolific_id":"5e2fba940cded955c77b0bb5","session_id":"6439995005066cee9f8b7010","study_id":"64370a36d30bfa807bc7e43c"},{"rt":6172,"response":{"prediction":"16"},"trial_type":"survey-text","trial_index":30,"time_elapsed":162210,"internal_node_id":"0.0-3.0-0.6","prolific_id":"5e2fba940cded955c77b0bb5","session_id":"6439995005066cee9f8b7010","study_id":"64370a36d30bfa807bc7e43c"},{"rt":4906,"response":{"prior knowledge":0,"curiosity":4},"accuracy":[],"trial_type":"survey","trial_index":31,"time_elapsed":167170,"internal_node_id":"0.0-3.0-1.6","prolific_id":"5e2fba940cded955c77b0bb5","session_id":"6439995005066cee9f8b7010","study_id":"64370a36d30bfa807bc7e43c"},{"rt":null,"stimulus":"\n\t\t\t<div class=\"flip_card\">\n\t\t\t\t<div class=\"flip_card_inner\">\n\t\t\t\t\t<div class=\"flip_card_front\">\n\t\t\t\t\t\t<img src=img/12.png>\n\t\t\t\t\t</div>\n\t\t\t\t\t<div class=\"flip_card_back\">\n\t\t\t\t\t\t<h2>How many single hand gestures, or mudras, are used in Indian classical dance?</h2>\n\t\t\t\t\t\t<br>\n\t\t\t\t\t\t<p>Answer: <strong>28</strong></p>\n\t\t\t\t\t</div>\n\t\t\t\t</div>\n\t\t\t</div>\n\t\t\t","response":null,"trial_type":"html-keyboard-response","trial_index":32,"time_elapsed":172174,"internal_node_id":"0.0-3.0-2.6","prolific_id":"5e2fba940cded955c77b0bb5","session_id":"6439995005066cee9f8b7010","study_id":"64370a36d30bfa807bc7e43c"},{"rt":1115,"stimulus":"\n\t\t\t\t\t<div>\n\t\t\t\t\t<h2>Trial 7 is over</h2>\n\t\t\t\t\t<p>Press <span style=\"color: red\"><strong>any key</strong></span> to continue to the next trial</p>\n\t\t\t\t\t</div>\n\t\t\t\t","response":" ","trial_type":"html-keyboard-response","trial_index":33,"time_elapsed":173290,"internal_node_id":"0.0-3.0-3.6","prolific_id":"5e2fba940cded955c77b0bb5","session_id":"6439995005066cee9f8b7010","study_id":"64370a36d30bfa807bc7e43c"},{"rt":4584,"response":{"prediction":"6"},"trial_type":"survey-text","trial_index":34,"time_elapsed":177880,"internal_node_id":"0.0-3.0-0.7","prolific_id":"5e2fba940cded955c77b0bb5","session_id":"6439995005066cee9f8b7010","study_id":"64370a36d30bfa807bc7e43c"},{"rt":4052,"response":{"prior knowledge":1,"curiosity":4},"accuracy":[],"trial_type":"survey","trial_index":35,"time_elapsed":181987,"internal_node_id":"0.0-3.0-1.7","prolific_id":"5e2fba940cded955c77b0bb5","session_id":"6439995005066cee9f8b7010","study_id":"64370a36d30bfa807bc7e43c"},{"rt":null,"stimulus":"\n\t\t\t<div class=\"flip_card\">\n\t\t\t\t<div class=\"flip_card_inner\">\n\t\t\t\t\t<div class=\"flip_card_front\">\n\t\t\t\t\t\t<img src=img/28.png>\n\t\t\t\t\t</div>\n\t\t\t\t\t<div class=\"flip_card_back\">\n\t\t\t\t\t\t<h2>How many main islands make up Japan?</h2>\n\t\t\t\t\t\t<br>\n\t\t\t\t\t\t<p>Answer: <strong>4</strong></p>\n\t\t\t\t\t</div>\n\t\t\t\t</div>\n\t\t\t</div>\n\t\t\t","response":null,"trial_type":"html-keyboard-response","trial_index":36,"time_elapsed":186995,"internal_node_id":"0.0-3.0-2.7","prolific_id":"5e2fba940cded955c77b0bb5","session_id":"6439995005066cee9f8b7010","study_id":"64370a36d30bfa807bc7e43c"},{"rt":834,"stimulus":"\n\t\t\t\t\t<div>\n\t\t\t\t\t<h2>Trial 8 is over</h2>\n\t\t\t\t\t<p>Press <span style=\"color: red\"><strong>any key</strong></span> to continue to the next trial</p>\n\t\t\t\t\t</div>\n\t\t\t\t","response":" ","trial_type":"html-keyboard-response","trial_index":37,"time_elapsed":187831,"internal_node_id":"0.0-3.0-3.7","prolific_id":"5e2fba940cded955c77b0bb5","session_id":"6439995005066cee9f8b7010","study_id":"64370a36d30bfa807bc7e43c"},{"rt":3699,"response":{"prediction":"3"},"trial_type":"survey-text","trial_index":38,"time_elapsed":191535,"internal_node_id":"0.0-3.0-0.8","prolific_id":"5e2fba940cded955c77b0bb5","session_id":"6439995005066cee9f8b7010","study_id":"64370a36d30bfa807bc7e43c"},{"rt":4737,"response":{"prior knowledge":0,"curiosity":3},"accuracy":[],"trial_type":"survey","trial_index":39,"time_elapsed":196334,"internal_node_id":"0.0-3.0-1.8","prolific_id":"5e2fba940cded955c77b0bb5","session_id":"6439995005066cee9f8b7010","study_id":"64370a36d30bfa807bc7e43c"},{"rt":null,"stimulus":"\n\t\t\t<div class=\"flip_card\">\n\t\t\t\t<div class=\"flip_card_inner\">\n\t\t\t\t\t<div class=\"flip_card_front\">\n\t\t\t\t\t\t<img src=img/13.png>\n\t\t\t\t\t</div>\n\t\t\t\t\t<div class=\"flip_card_back\">\n\t\t\t\t\t\t<h2>How many native species of kangaroos are found in Australia?</h2>\n\t\t\t\t\t\t<br>\n\t\t\t\t\t\t<p>Answer: <strong>4</strong></p>\n\t\t\t\t\t</div>\n\t\t\t\t</div>\n\t\t\t</div>\n\t\t\t","response":null,"trial_type":"html-keyboard-response","trial_index":40,"time_elapsed":201342,"internal_node_id":"0.0-3.0-2.8","prolific_id":"5e2fba940cded955c77b0bb5","session_id":"6439995005066cee9f8b7010","study_id":"64370a36d30bfa807bc7e43c"},{"rt":680,"stimulus":"\n\t\t\t\t\t<div>\n\t\t\t\t\t<h2>Trial 9 is over</h2>\n\t\t\t\t\t<p>Press <span style=\"color: red\"><strong>any key</strong></span> to continue to the next trial</p>\n\t\t\t\t\t</div>\n\t\t\t\t","response":" ","trial_type":"html-keyboard-response","trial_index":41,"time_elapsed":202024,"internal_node_id":"0.0-3.0-3.8","prolific_id":"5e2fba940cded955c77b0bb5","session_id":"6439995005066cee9f8b7010","study_id":"64370a36d30bfa807bc7e43c"},{"rt":4812,"response":{"prediction":"1942"},"trial_type":"survey-text","trial_index":42,"time_elapsed":206841,"internal_node_id":"0.0-3.0-0.9","prolific_id":"5e2fba940cded955c77b0bb5","session_id":"6439995005066cee9f8b7010","study_id":"64370a36d30bfa807bc7e43c"},{"rt":3249,"response":{"prior knowledge":1,"curiosity":5},"accuracy":[],"trial_type":"survey","trial_index":43,"time_elapsed":210139,"internal_node_id":"0.0-3.0-1.9","prolific_id":"5e2fba940cded955c77b0bb5","session_id":"6439995005066cee9f8b7010","study_id":"64370a36d30bfa807bc7e43c"},{"rt":null,"stimulus":"\n\t\t\t<div class=\"flip_card\">\n\t\t\t\t<div class=\"flip_card_inner\">\n\t\t\t\t\t<div class=\"flip_card_front\">\n\t\t\t\t\t\t<img src=img/16.png>\n\t\t\t\t\t</div>\n\t\t\t\t\t<div class=\"flip_card_back\">\n\t\t\t\t\t\t<h2>What year did the Berlin Wall fall?</h2>\n\t\t\t\t\t\t<br>\n\t\t\t\t\t\t<p>Answer: <strong>1989</strong></p>\n\t\t\t\t\t</div>\n\t\t\t\t</div>\n\t\t\t</div>\n\t\t\t","response":null,"trial_type":"html-keyboard-response","trial_index":44,"time_elapsed":215142,"internal_node_id":"0.0-3.0-2.9","prolific_id":"5e2fba940cded955c77b0bb5","session_id":"6439995005066cee9f8b7010","study_id":"64370a36d30bfa807bc7e43c"},{"rt":873,"stimulus":"\n\t\t\t\t\t<div>\n\t\t\t\t\t<h2>Trial 10 is over</h2>\n\t\t\t\t\t<p>Press <span style=\"color: red\"><strong>any key</strong></span> to continue to the next trial</p>\n\t\t\t\t\t</div>\n\t\t\t\t","response":" ","trial_type":"html-keyboard-response","trial_index":45,"time_elapsed":216017,"internal_node_id":"0.0-3.0-3.9","prolific_id":"5e2fba940cded955c77b0bb5","session_id":"6439995005066cee9f8b7010","study_id":"64370a36d30bfa807bc7e43c"},{"rt":7780,"response":{"prediction":"1918"},"trial_type":"survey-text","trial_index":46,"time_elapsed":223803,"internal_node_id":"0.0-3.0-0.10","prolific_id":"5e2fba940cded955c77b0bb5","session_id":"6439995005066cee9f8b7010","study_id":"64370a36d30bfa807bc7e43c"},{"rt":3939,"response":{"prior knowledge":0,"curiosity":5},"accuracy":[],"trial_type":"survey","trial_index":47,"time_elapsed":227793,"internal_node_id":"0.0-3.0-1.10","prolific_id":"5e2fba940cded955c77b0bb5","session_id":"6439995005066cee9f8b7010","study_id":"64370a36d30bfa807bc7e43c"},{"rt":null,"stimulus":"\n\t\t\t<div class=\"flip_card\">\n\t\t\t\t<div class=\"flip_card_inner\">\n\t\t\t\t\t<div class=\"flip_card_front\">\n\t\t\t\t\t\t<img src=img/10.png>\n\t\t\t\t\t</div>\n\t\t\t\t\t<div class=\"flip_card_back\">\n\t\t\t\t\t\t<h2>In what year was the Mexican artist Frida Kahlo born?</h2>\n\t\t\t\t\t\t<br>\n\t\t\t\t\t\t<p>Answer: <strong>1907</strong></p>\n\t\t\t\t\t</div>\n\t\t\t\t</div>\n\t\t\t</div>\n\t\t\t","response":null,"trial_type":"html-keyboard-response","trial_index":48,"time_elapsed":232800,"internal_node_id":"0.0-3.0-2.10","prolific_id":"5e2fba940cded955c77b0bb5","session_id":"6439995005066cee9f8b7010","study_id":"64370a36d30bfa807bc7e43c"},{"rt":740,"stimulus":"\n\t\t\t\t\t<div>\n\t\t\t\t\t<h2>Trial 11 is over</h2>\n\t\t\t\t\t<p>Press <span style=\"color: red\"><strong>any key</strong></span> to continue to the next trial</p>\n\t\t\t\t\t</div>\n\t\t\t\t","response":" ","trial_type":"html-keyboard-response","trial_index":49,"time_elapsed":233541,"internal_node_id":"0.0-3.0-3.10","prolific_id":"5e2fba940cded955c77b0bb5","session_id":"6439995005066cee9f8b7010","study_id":"64370a36d30bfa807bc7e43c"},{"rt":6044,"response":{"prediction":"12"},"trial_type":"survey-text","trial_index":50,"time_elapsed":239594,"internal_node_id":"0.0-3.0-0.11","prolific_id":"5e2fba940cded955c77b0bb5","session_id":"6439995005066cee9f8b7010","study_id":"64370a36d30bfa807bc7e43c"},{"rt":4078,"response":{"prior knowledge":1,"curiosity":4},"accuracy":[],"trial_type":"survey","trial_index":51,"time_elapsed":243690,"internal_node_id":"0.0-3.0-1.11","prolific_id":"5e2fba940cded955c77b0bb5","session_id":"6439995005066cee9f8b7010","study_id":"64370a36d30bfa807bc7e43c"},{"rt":null,"stimulus":"\n\t\t\t<div class=\"flip_card\">\n\t\t\t\t<div class=\"flip_card_inner\">\n\t\t\t\t\t<div class=\"flip_card_front\">\n\t\t\t\t\t\t<img src=img/11.png>\n\t\t\t\t\t</div>\n\t\t\t\t\t<div class=\"flip_card_back\">\n\t\t\t\t\t\t<h2>How many soccer players should each team have on the field at the start of each match?</h2>\n\t\t\t\t\t\t<br>\n\t\t\t\t\t\t<p>Answer: <strong>11</strong></p>\n\t\t\t\t\t</div>\n\t\t\t\t</div>\n\t\t\t</div>\n\t\t\t","response":null,"trial_type":"html-keyboard-response","trial_index":52,"time_elapsed":248708,"internal_node_id":"0.0-3.0-2.11","prolific_id":"5e2fba940cded955c77b0bb5","session_id":"6439995005066cee9f8b7010","study_id":"64370a36d30bfa807bc7e43c"},{"rt":586,"stimulus":"\n\t\t\t\t\t<div>\n\t\t\t\t\t<h2>Trial 12 is over</h2>\n\t\t\t\t\t<p>Press <span style=\"color: red\"><strong>any key</strong></span> to continue to the next trial</p>\n\t\t\t\t\t</div>\n\t\t\t\t","response":" ","trial_type":"html-keyboard-response","trial_index":53,"time_elapsed":249296,"internal_node_id":"0.0-3.0-3.11","prolific_id":"5e2fba940cded955c77b0bb5","session_id":"6439995005066cee9f8b7010","study_id":"64370a36d30bfa807bc7e43c"},{"rt":4089,"response":{"prediction":"30"},"trial_type":"survey-text","trial_index":54,"time_elapsed":253391,"internal_node_id":"0.0-3.0-0.12","prolific_id":"5e2fba940cded955c77b0bb5","session_id":"6439995005066cee9f8b7010","study_id":"64370a36d30bfa807bc7e43c"},{"rt":4931,"response":{"prior knowledge":0,"curiosity":0},"accuracy":[],"trial_type":"survey","trial_index":55,"time_elapsed":258340,"internal_node_id":"0.0-3.0-1.12","prolific_id":"5e2fba940cded955c77b0bb5","session_id":"6439995005066cee9f8b7010","study_id":"64370a36d30bfa807bc7e43c"},{"rt":null,"stimulus":"\n\t\t\t<div class=\"flip_card\">\n\t\t\t\t<div class=\"flip_card_inner\">\n\t\t\t\t\t<div class=\"flip_card_front\">\n\t\t\t\t\t\t<img src=img/4.png>\n\t\t\t\t\t</div>\n\t\t\t\t\t<div class=\"flip_card_back\">\n\t\t\t\t\t\t<h2>How many books are in the Catholic Bible?</h2>\n\t\t\t\t\t\t<br>\n\t\t\t\t\t\t<p>Answer: <strong>73</strong></p>\n\t\t\t\t\t</div>\n\t\t\t\t</div>\n\t\t\t</div>\n\t\t\t","response":null,"trial_type":"html-keyboard-response","trial_index":56,"time_elapsed":263348,"internal_node_id":"0.0-3.0-2.12","prolific_id":"5e2fba940cded955c77b0bb5","session_id":"6439995005066cee9f8b7010","study_id":"64370a36d30bfa807bc7e43c"},{"rt":708,"stimulus":"\n\t\t\t\t\t<div>\n\t\t\t\t\t<h2>Trial 13 is over</h2>\n\t\t\t\t\t<p>Press <span style=\"color: red\"><strong>any key</strong></span> to continue to the next trial</p>\n\t\t\t\t\t</div>\n\t\t\t\t","response":" ","trial_type":"html-keyboard-response","trial_index":57,"time_elapsed":264057,"internal_node_id":"0.0-3.0-3.12","prolific_id":"5e2fba940cded955c77b0bb5","session_id":"6439995005066cee9f8b7010","study_id":"64370a36d30bfa807bc7e43c"},{"rt":3606,"response":{"prediction":"13"},"trial_type":"survey-text","trial_index":58,"time_elapsed":267668,"internal_node_id":"0.0-3.0-0.13","prolific_id":"5e2fba940cded955c77b0bb5","session_id":"6439995005066cee9f8b7010","study_id":"64370a36d30bfa807bc7e43c"},{"rt":4431,"response":{"prior knowledge":3,"curiosity":4},"accuracy":[],"trial_type":"survey","trial_index":59,"time_elapsed":272116,"internal_node_id":"0.0-3.0-1.13","prolific_id":"5e2fba940cded955c77b0bb5","session_id":"6439995005066cee9f8b7010","study_id":"64370a36d30bfa807bc7e43c"},{"rt":null,"stimulus":"\n\t\t\t<div class=\"flip_card\">\n\t\t\t\t<div class=\"flip_card_inner\">\n\t\t\t\t\t<div class=\"flip_card_front\">\n\t\t\t\t\t\t<img src=img/18.png>\n\t\t\t\t\t</div>\n\t\t\t\t\t<div class=\"flip_card_back\">\n\t\t\t\t\t\t<h2>A bar mitzvah is traditionally celebrated when Jewish males turn what age?</h2>\n\t\t\t\t\t\t<br>\n\t\t\t\t\t\t<p>Answer: <strong>13</strong></p>\n\t\t\t\t\t</div>\n\t\t\t\t</div>\n\t\t\t</div>\n\t\t\t","response":null,"trial_type":"html-keyboard-response","trial_index":60,"time_elapsed":277127,"internal_node_id":"0.0-3.0-2.13","prolific_id":"5e2fba940cded955c77b0bb5","session_id":"6439995005066cee9f8b7010","study_id":"64370a36d30bfa807bc7e43c"},{"rt":682,"stimulus":"\n\t\t\t\t\t<div>\n\t\t\t\t\t<h2>Trial 14 is over</h2>\n\t\t\t\t\t<p>Press <span style=\"color: red\"><strong>any key</strong></span> to continue to the next trial</p>\n\t\t\t\t\t</div>\n\t\t\t\t","response":" ","trial_type":"html-keyboard-response","trial_index":61,"time_elapsed":277811,"internal_node_id":"0.0-3.0-3.13","prolific_id":"5e2fba940cded955c77b0bb5","session_id":"6439995005066cee9f8b7010","study_id":"64370a36d30bfa807bc7e43c"},{"rt":3471,"response":{"prediction":"1912"},"trial_type":"survey-text","trial_index":62,"time_elapsed":281286,"internal_node_id":"0.0-3.0-0.14","prolific_id":"5e2fba940cded955c77b0bb5","session_id":"6439995005066cee9f8b7010","study_id":"64370a36d30bfa807bc7e43c"},{"rt":4191,"response":{"prior knowledge":3,"curiosity":4},"accuracy":[],"trial_type":"survey","trial_index":63,"time_elapsed":285494,"internal_node_id":"0.0-3.0-1.14","prolific_id":"5e2fba940cded955c77b0bb5","session_id":"6439995005066cee9f8b7010","study_id":"64370a36d30bfa807bc7e43c"},{"rt":null,"stimulus":"\n\t\t\t<div class=\"flip_card\">\n\t\t\t\t<div class=\"flip_card_inner\">\n\t\t\t\t\t<div class=\"flip_card_front\">\n\t\t\t\t\t\t<img src=img/25.png>\n\t\t\t\t\t</div>\n\t\t\t\t\t<div class=\"flip_card_back\">\n\t\t\t\t\t\t<h2>What year did the titanic sink?</h2>\n\t\t\t\t\t\t<br>\n\t\t\t\t\t\t<p>Answer: <strong>1912</strong></p>\n\t\t\t\t\t</div>\n\t\t\t\t</div>\n\t\t\t</div>\n\t\t\t","response":null,"trial_type":"html-keyboard-response","trial_index":64,"time_elapsed":290509,"internal_node_id":"0.0-3.0-2.14","prolific_id":"5e2fba940cded955c77b0bb5","session_id":"6439995005066cee9f8b7010","study_id":"64370a36d30bfa807bc7e43c"},{"rt":778,"stimulus":"\n\t\t\t\t\t<div>\n\t\t\t\t\t<h2>Trial 15 is over</h2>\n\t\t\t\t\t<p>Press <span style=\"color: red\"><strong>any key</strong></span> to continue to the next trial</p>\n\t\t\t\t\t</div>\n\t\t\t\t","response":" ","trial_type":"html-keyboard-response","trial_index":65,"time_elapsed":291288,"internal_node_id":"0.0-3.0-3.14","prolific_id":"5e2fba940cded955c77b0bb5","session_id":"6439995005066cee9f8b7010","study_id":"64370a36d30bfa807bc7e43c"},{"rt":2534,"response":{"prediction":"13"},"trial_type":"survey-text","trial_index":66,"time_elapsed":293827,"internal_node_id":"0.0-3.0-0.15","prolific_id":"5e2fba940cded955c77b0bb5","session_id":"6439995005066cee9f8b7010","study_id":"64370a36d30bfa807bc7e43c"},{"rt":4604,"response":{"prior knowledge":2,"curiosity":4},"accuracy":[],"trial_type":"survey","trial_index":67,"time_elapsed":298448,"internal_node_id":"0.0-3.0-1.15","prolific_id":"5e2fba940cded955c77b0bb5","session_id":"6439995005066cee9f8b7010","study_id":"64370a36d30bfa807bc7e43c"},{"rt":null,"stimulus":"\n\t\t\t<div class=\"flip_card\">\n\t\t\t\t<div class=\"flip_card_inner\">\n\t\t\t\t\t<div class=\"flip_card_front\">\n\t\t\t\t\t\t<img src=img/9.png>\n\t\t\t\t\t</div>\n\t\t\t\t\t<div class=\"flip_card_back\">\n\t\t\t\t\t\t<h2>How much is in a Baker's Dozen?</h2>\n\t\t\t\t\t\t<br>\n\t\t\t\t\t\t<p>Answer: <strong>13</strong></p>\n\t\t\t\t\t</div>\n\t\t\t\t</div>\n\t\t\t</div>\n\t\t\t","response":null,"trial_type":"html-keyboard-response","trial_index":68,"time_elapsed":303457,"internal_node_id":"0.0-3.0-2.15","prolific_id":"5e2fba940cded955c77b0bb5","session_id":"6439995005066cee9f8b7010","study_id":"64370a36d30bfa807bc7e43c"},{"rt":638,"stimulus":"\n\t\t\t\t\t<div>\n\t\t\t\t\t<h2>Trial 16 is over</h2>\n\t\t\t\t\t<p>Press <span style=\"color: red\"><strong>any key</strong></span> to continue to the next trial</p>\n\t\t\t\t\t</div>\n\t\t\t\t","response":" ","trial_type":"html-keyboard-response","trial_index":69,"time_elapsed":304096,"internal_node_id":"0.0-3.0-3.15","prolific_id":"5e2fba940cded955c77b0bb5","session_id":"6439995005066cee9f8b7010","study_id":"64370a36d30bfa807bc7e43c"},{"rt":5408,"response":{"prediction":"600"},"trial_type":"survey-text","trial_index":70,"time_elapsed":309508,"internal_node_id":"0.0-3.0-0.16","prolific_id":"5e2fba940cded955c77b0bb5","session_id":"6439995005066cee9f8b7010","study_id":"64370a36d30bfa807bc7e43c"},{"rt":6795,"response":{"prior knowledge":2,"curiosity":4},"accuracy":[],"trial_type":"survey","trial_index":71,"time_elapsed":316322,"internal_node_id":"0.0-3.0-1.16","prolific_id":"5e2fba940cded955c77b0bb5","session_id":"6439995005066cee9f8b7010","study_id":"64370a36d30bfa807bc7e43c"},{"rt":null,"stimulus":"\n\t\t\t<div class=\"flip_card\">\n\t\t\t\t<div class=\"flip_card_inner\">\n\t\t\t\t\t<div class=\"flip_card_front\">\n\t\t\t\t\t\t<img src=img/20.png>\n\t\t\t\t\t</div>\n\t\t\t\t\t<div class=\"flip_card_back\">\n\t\t\t\t\t\t<h2>How many people are vegan globally (in millions)?</h2>\n\t\t\t\t\t\t<br>\n\t\t\t\t\t\t<p>Answer: <strong>79</strong></p>\n\t\t\t\t\t</div>\n\t\t\t\t</div>\n\t\t\t</div>\n\t\t\t","response":null,"trial_type":"html-keyboard-response","trial_index":72,"time_elapsed":321326,"internal_node_id":"0.0-3.0-2.16","prolific_id":"5e2fba940cded955c77b0bb5","session_id":"6439995005066cee9f8b7010","study_id":"64370a36d30bfa807bc7e43c"},{"rt":1058,"stimulus":"\n\t\t\t\t\t<div>\n\t\t\t\t\t<h2>Trial 17 is over</h2>\n\t\t\t\t\t<p>Press <span style=\"color: red\"><strong>any key</strong></span> to continue to the next trial</p>\n\t\t\t\t\t</div>\n\t\t\t\t","response":" ","trial_type":"html-keyboard-response","trial_index":73,"time_elapsed":322385,"internal_node_id":"0.0-3.0-3.16","prolific_id":"5e2fba940cded955c77b0bb5","session_id":"6439995005066cee9f8b7010","study_id":"64370a36d30bfa807bc7e43c"},{"rt":5546,"response":{"prediction":"8"},"trial_type":"survey-text","trial_index":74,"time_elapsed":327936,"internal_node_id":"0.0-3.0-0.17","prolific_id":"5e2fba940cded955c77b0bb5","session_id":"6439995005066cee9f8b7010","study_id":"64370a36d30bfa807bc7e43c"},{"rt":3965,"response":{"prior knowledge":1,"curiosity":4},"accuracy":[],"trial_type":"survey","trial_index":75,"time_elapsed":331919,"internal_node_id":"0.0-3.0-1.17","prolific_id":"5e2fba940cded955c77b0bb5","session_id":"6439995005066cee9f8b7010","study_id":"64370a36d30bfa807bc7e43c"},{"rt":null,"stimulus":"\n\t\t\t<div class=\"flip_card\">\n\t\t\t\t<div class=\"flip_card_inner\">\n\t\t\t\t\t<div class=\"flip_card_front\">\n\t\t\t\t\t\t<img src=img/29.png>\n\t\t\t\t\t</div>\n\t\t\t\t\t<div class=\"flip_card_back\">\n\t\t\t\t\t\t<h2>How many tones are in the Vietnamese language?</h2>\n\t\t\t\t\t\t<br>\n\t\t\t\t\t\t<p>Answer: <strong>6</strong></p>\n\t\t\t\t\t</div>\n\t\t\t\t</div>\n\t\t\t</div>\n\t\t\t","response":null,"trial_type":"html-keyboard-response","trial_index":76,"time_elapsed":336934,"internal_node_id":"0.0-3.0-2.17","prolific_id":"5e2fba940cded955c77b0bb5","session_id":"6439995005066cee9f8b7010","study_id":"64370a36d30bfa807bc7e43c"},{"rt":972,"stimulus":"\n\t\t\t\t\t<div>\n\t\t\t\t\t<h2>Trial 18 is over</h2>\n\t\t\t\t\t<p>Press <span style=\"color: red\"><strong>any key</strong></span> to continue to the next trial</p>\n\t\t\t\t\t</div>\n\t\t\t\t","response":" ","trial_type":"html-keyboard-response","trial_index":77,"time_elapsed":337907,"internal_node_id":"0.0-3.0-3.17","prolific_id":"5e2fba940cded955c77b0bb5","session_id":"6439995005066cee9f8b7010","study_id":"64370a36d30bfa807bc7e43c"},{"rt":6950,"response":{"prediction":"30"},"trial_type":"survey-text","trial_index":78,"time_elapsed":344862,"internal_node_id":"0.0-3.0-0.18","prolific_id":"5e2fba940cded955c77b0bb5","session_id":"6439995005066cee9f8b7010","study_id":"64370a36d30bfa807bc7e43c"},{"rt":3603,"response":{"prior knowledge":0,"curiosity":1},"accuracy":[],"trial_type":"survey","trial_index":79,"time_elapsed":348481,"internal_node_id":"0.0-3.0-1.18","prolific_id":"5e2fba940cded955c77b0bb5","session_id":"6439995005066cee9f8b7010","study_id":"64370a36d30bfa807bc7e43c"},{"rt":null,"stimulus":"\n\t\t\t<div class=\"flip_card\">\n\t\t\t\t<div class=\"flip_card_inner\">\n\t\t\t\t\t<div class=\"flip_card_front\">\n\t\t\t\t\t\t<img src=img/15.png>\n\t\t\t\t\t</div>\n\t\t\t\t\t<div class=\"flip_card_back\">\n\t\t\t\t\t\t<h2>How many double stitches does a baseball have?</h2>\n\t\t\t\t\t\t<br>\n\t\t\t\t\t\t<p>Answer: <strong>108</strong></p>\n\t\t\t\t\t</div>\n\t\t\t\t</div>\n\t\t\t</div>\n\t\t\t","response":null,"trial_type":"html-keyboard-response","trial_index":80,"time_elapsed":353488,"internal_node_id":"0.0-3.0-2.18","prolific_id":"5e2fba940cded955c77b0bb5","session_id":"6439995005066cee9f8b7010","study_id":"64370a36d30bfa807bc7e43c"},{"rt":734,"stimulus":"\n\t\t\t\t\t<div>\n\t\t\t\t\t<h2>Trial 19 is over</h2>\n\t\t\t\t\t<p>Press <span style=\"color: red\"><strong>any key</strong></span> to continue to the next trial</p>\n\t\t\t\t\t</div>\n\t\t\t\t","response":" ","trial_type":"html-keyboard-response","trial_index":81,"time_elapsed":354223,"internal_node_id":"0.0-3.0-3.18","prolific_id":"5e2fba940cded955c77b0bb5","session_id":"6439995005066cee9f8b7010","study_id":"64370a36d30bfa807bc7e43c"},{"rt":6988,"response":{"prediction":"3"},"trial_type":"survey-text","trial_index":82,"time_elapsed":361221,"internal_node_id":"0.0-3.0-0.19","prolific_id":"5e2fba940cded955c77b0bb5","session_id":"6439995005066cee9f8b7010","study_id":"64370a36d30bfa807bc7e43c"},{"rt":4282,"response":{"prior knowledge":1,"curiosity":3},"accuracy":[],"trial_type":"survey","trial_index":83,"time_elapsed":365547,"internal_node_id":"0.0-3.0-1.19","prolific_id":"5e2fba940cded955c77b0bb5","session_id":"6439995005066cee9f8b7010","study_id":"64370a36d30bfa807bc7e43c"},{"rt":null,"stimulus":"\n\t\t\t<div class=\"flip_card\">\n\t\t\t\t<div class=\"flip_card_inner\">\n\t\t\t\t\t<div class=\"flip_card_front\">\n\t\t\t\t\t\t<img src=img/7.png>\n\t\t\t\t\t</div>\n\t\t\t\t\t<div class=\"flip_card_back\">\n\t\t\t\t\t\t<h2>How many times a day do Muslims pray?</h2>\n\t\t\t\t\t\t<br>\n\t\t\t\t\t\t<p>Answer: <strong>5</strong></p>\n\t\t\t\t\t</div>\n\t\t\t\t</div>\n\t\t\t</div>\n\t\t\t","response":null,"trial_type":"html-keyboard-response","trial_index":84,"time_elapsed":370562,"internal_node_id":"0.0-3.0-2.19","prolific_id":"5e2fba940cded955c77b0bb5","session_id":"6439995005066cee9f8b7010","study_id":"64370a36d30bfa807bc7e43c"},{"rt":1181,"stimulus":"\n\t\t\t\t\t<div>\n\t\t\t\t\t<h2>Trial 20 is over</h2>\n\t\t\t\t\t<p>Press <span style=\"color: red\"><strong>any key</strong></span> to continue to the next trial</p>\n\t\t\t\t\t</div>\n\t\t\t\t","response":" ","trial_type":"html-keyboard-response","trial_index":85,"time_elapsed":371744,"internal_node_id":"0.0-3.0-3.19","prolific_id":"5e2fba940cded955c77b0bb5","session_id":"6439995005066cee9f8b7010","study_id":"64370a36d30bfa807bc7e43c"},{"rt":8153,"response":{"prediction":"6"},"trial_type":"survey-text","trial_index":86,"time_elapsed":379902,"internal_node_id":"0.0-3.0-0.20","prolific_id":"5e2fba940cded955c77b0bb5","session_id":"6439995005066cee9f8b7010","study_id":"64370a36d30bfa807bc7e43c"},{"rt":4343,"response":{"prior knowledge":0,"curiosity":3},"accuracy":[],"trial_type":"survey","trial_index":87,"time_elapsed":384298,"internal_node_id":"0.0-3.0-1.20","prolific_id":"5e2fba940cded955c77b0bb5","session_id":"6439995005066cee9f8b7010","study_id":"64370a36d30bfa807bc7e43c"},{"rt":null,"stimulus":"\n\t\t\t<div class=\"flip_card\">\n\t\t\t\t<div class=\"flip_card_inner\">\n\t\t\t\t\t<div class=\"flip_card_front\">\n\t\t\t\t\t\t<img src=img/23.png>\n\t\t\t\t\t</div>\n\t\t\t\t\t<div class=\"flip_card_back\">\n\t\t\t\t\t\t<h2>How many countries have territory in the Arctic Circle?</h2>\n\t\t\t\t\t\t<br>\n\t\t\t\t\t\t<p>Answer: <strong>8</strong></p>\n\t\t\t\t\t</div>\n\t\t\t\t</div>\n\t\t\t</div>\n\t\t\t","response":null,"trial_type":"html-keyboard-response","trial_index":88,"time_elapsed":389309,"internal_node_id":"0.0-3.0-2.20","prolific_id":"5e2fba940cded955c77b0bb5","session_id":"6439995005066cee9f8b7010","study_id":"64370a36d30bfa807bc7e43c"},{"rt":838,"stimulus":"\n\t\t\t\t\t<div>\n\t\t\t\t\t<h2>Trial 21 is over</h2>\n\t\t\t\t\t<p>Press <span style=\"color: red\"><strong>any key</strong></span> to continue to the next trial</p>\n\t\t\t\t\t</div>\n\t\t\t\t","response":" ","trial_type":"html-keyboard-response","trial_index":89,"time_elapsed":390149,"internal_node_id":"0.0-3.0-3.20","prolific_id":"5e2fba940cded955c77b0bb5","session_id":"6439995005066cee9f8b7010","study_id":"64370a36d30bfa807bc7e43c"},{"rt":6315,"response":{"prediction":"1906"},"trial_type":"survey-text","trial_index":90,"time_elapsed":396468,"internal_node_id":"0.0-3.0-0.21","prolific_id":"5e2fba940cded955c77b0bb5","session_id":"6439995005066cee9f8b7010","study_id":"64370a36d30bfa807bc7e43c"},{"rt":3450,"response":{"prior knowledge":0,"curiosity":4},"accuracy":[],"trial_type":"survey","trial_index":91,"time_elapsed":399965,"internal_node_id":"0.0-3.0-1.21","prolific_id":"5e2fba940cded955c77b0bb5","session_id":"6439995005066cee9f8b7010","study_id":"64370a36d30bfa807bc7e43c"},{"rt":null,"stimulus":"\n\t\t\t<div class=\"flip_card\">\n\t\t\t\t<div class=\"flip_card_inner\">\n\t\t\t\t\t<div class=\"flip_card_front\">\n\t\t\t\t\t\t<img src=img/14.png>\n\t\t\t\t\t</div>\n\t\t\t\t\t<div class=\"flip_card_back\">\n\t\t\t\t\t\t<h2>In what year was the first Nobel Prize awarded?</h2>\n\t\t\t\t\t\t<br>\n\t\t\t\t\t\t<p>Answer: <strong>1901</strong></p>\n\t\t\t\t\t</div>\n\t\t\t\t</div>\n\t\t\t</div>\n\t\t\t","response":null,"trial_type":"html-keyboard-response","trial_index":92,"time_elapsed":404970,"internal_node_id":"0.0-3.0-2.21","prolific_id":"5e2fba940cded955c77b0bb5","session_id":"6439995005066cee9f8b7010","study_id":"64370a36d30bfa807bc7e43c"},{"rt":9243,"stimulus":"\n\t\t\t\t\t<div>\n\t\t\t\t\t<h2>Trial 22 is over</h2>\n\t\t\t\t\t<p>Press <span style=\"color: red\"><strong>any key</strong></span> to continue to the next trial</p>\n\t\t\t\t\t</div>\n\t\t\t\t","response":" ","trial_type":"html-keyboard-response","trial_index":93,"time_elapsed":414215,"internal_node_id":"0.0-3.0-3.21","prolific_id":"5e2fba940cded955c77b0bb5","session_id":"6439995005066cee9f8b7010","study_id":"64370a36d30bfa807bc7e43c"},{"rt":6381,"response":{"prediction":"200"},"trial_type":"survey-text","trial_index":94,"time_elapsed":420606,"internal_node_id":"0.0-3.0-0.22","prolific_id":"5e2fba940cded955c77b0bb5","session_id":"6439995005066cee9f8b7010","study_id":"64370a36d30bfa807bc7e43c"},{"rt":8096,"response":{"prior knowledge":1,"curiosity":4},"accuracy":[],"trial_type":"survey","trial_index":95,"time_elapsed":428719,"internal_node_id":"0.0-3.0-1.22","prolific_id":"5e2fba940cded955c77b0bb5","session_id":"6439995005066cee9f8b7010","study_id":"64370a36d30bfa807bc7e43c"},{"rt":null,"stimulus":"\n\t\t\t<div class=\"flip_card\">\n\t\t\t\t<div class=\"flip_card_inner\">\n\t\t\t\t\t<div class=\"flip_card_front\">\n\t\t\t\t\t\t<img src=img/2.png>\n\t\t\t\t\t</div>\n\t\t\t\t\t<div class=\"flip_card_back\">\n\t\t\t\t\t\t<h2>How many bones is a human baby born with?</h2>\n\t\t\t\t\t\t<br>\n\t\t\t\t\t\t<p>Answer: <strong>300</strong></p>\n\t\t\t\t\t</div>\n\t\t\t\t</div>\n\t\t\t</div>\n\t\t\t","response":null,"trial_type":"html-keyboard-response","trial_index":96,"time_elapsed":433723,"internal_node_id":"0.0-3.0-2.22","prolific_id":"5e2fba940cded955c77b0bb5","session_id":"6439995005066cee9f8b7010","study_id":"64370a36d30bfa807bc7e43c"},{"rt":1090,"stimulus":"\n\t\t\t\t\t<div>\n\t\t\t\t\t<h2>Trial 23 is over</h2>\n\t\t\t\t\t<p>Press <span style=\"color: red\"><strong>any key</strong></span> to continue to the next trial</p>\n\t\t\t\t\t</div>\n\t\t\t\t","response":" ","trial_type":"html-keyboard-response","trial_index":97,"time_elapsed":434814,"internal_node_id":"0.0-3.0-3.22","prolific_id":"5e2fba940cded955c77b0bb5","session_id":"6439995005066cee9f8b7010","study_id":"64370a36d30bfa807bc7e43c"},{"rt":5442,"response":{"prediction":"36"},"trial_type":"survey-text","trial_index":98,"time_elapsed":440262,"internal_node_id":"0.0-3.0-0.23","prolific_id":"5e2fba940cded955c77b0bb5","session_id":"6439995005066cee9f8b7010","study_id":"64370a36d30bfa807bc7e43c"},{"rt":4889,"response":{"prior knowledge":0,"curiosity":4},"accuracy":[],"trial_type":"survey","trial_index":99,"time_elapsed":445170,"internal_node_id":"0.0-3.0-1.23","prolific_id":"5e2fba940cded955c77b0bb5","session_id":"6439995005066cee9f8b7010","study_id":"64370a36d30bfa807bc7e43c"},{"rt":null,"stimulus":"\n\t\t\t<div class=\"flip_card\">\n\t\t\t\t<div class=\"flip_card_inner\">\n\t\t\t\t\t<div class=\"flip_card_front\">\n\t\t\t\t\t\t<img src=img/6.png>\n\t\t\t\t\t</div>\n\t\t\t\t\t<div class=\"flip_card_back\">\n\t\t\t\t\t\t<h2>How old was King Tut when he died?</h2>\n\t\t\t\t\t\t<br>\n\t\t\t\t\t\t<p>Answer: <strong>19</strong></p>\n\t\t\t\t\t</div>\n\t\t\t\t</div>\n\t\t\t</div>\n\t\t\t","response":null,"trial_type":"html-keyboard-response","trial_index":100,"time_elapsed":450181,"internal_node_id":"0.0-3.0-2.23","prolific_id":"5e2fba940cded955c77b0bb5","session_id":"6439995005066cee9f8b7010","study_id":"64370a36d30bfa807bc7e43c"},{"rt":4702,"stimulus":"\n\t\t\t\t\t<div>\n\t\t\t\t\t<h2>Trial 24 is over</h2>\n\t\t\t\t\t<p>Press <span style=\"color: red\"><strong>any key</strong></span> to continue to the next trial</p>\n\t\t\t\t\t</div>\n\t\t\t\t","response":" ","trial_type":"html-keyboard-response","trial_index":101,"time_elapsed":454884,"internal_node_id":"0.0-3.0-3.23","prolific_id":"5e2fba940cded955c77b0bb5","session_id":"6439995005066cee9f8b7010","study_id":"64370a36d30bfa807bc7e43c"},{"rt":4107,"response":{"prediction":"13"},"trial_type":"survey-text","trial_index":102,"time_elapsed":458997,"internal_node_id":"0.0-3.0-0.24","prolific_id":"5e2fba940cded955c77b0bb5","session_id":"6439995005066cee9f8b7010","study_id":"64370a36d30bfa807bc7e43c"},{"rt":3714,"response":{"prior knowledge":1,"curiosity":4},"accuracy":[],"trial_type":"survey","trial_index":103,"time_elapsed":462751,"internal_node_id":"0.0-3.0-1.24","prolific_id":"5e2fba940cded955c77b0bb5","session_id":"6439995005066cee9f8b7010","study_id":"64370a36d30bfa807bc7e43c"},{"rt":null,"stimulus":"\n\t\t\t<div class=\"flip_card\">\n\t\t\t\t<div class=\"flip_card_inner\">\n\t\t\t\t\t<div class=\"flip_card_front\">\n\t\t\t\t\t\t<img src=img/3.png>\n\t\t\t\t\t</div>\n\t\t\t\t\t<div class=\"flip_card_back\">\n\t\t\t\t\t\t<h2>How many countries in Africa have French as the official language?</h2>\n\t\t\t\t\t\t<br>\n\t\t\t\t\t\t<p>Answer: <strong>21</strong></p>\n\t\t\t\t\t</div>\n\t\t\t\t</div>\n\t\t\t</div>\n\t\t\t","response":null,"trial_type":"html-keyboard-response","trial_index":104,"time_elapsed":467754,"internal_node_id":"0.0-3.0-2.24","prolific_id":"5e2fba940cded955c77b0bb5","session_id":"6439995005066cee9f8b7010","study_id":"64370a36d30bfa807bc7e43c"},{"rt":1097,"stimulus":"\n\t\t\t\t\t<div>\n\t\t\t\t\t<h2>Trial 25 is over</h2>\n\t\t\t\t\t<p>Press <span style=\"color: red\"><strong>any key</strong></span> to continue to the next trial</p>\n\t\t\t\t\t</div>\n\t\t\t\t","response":" ","trial_type":"html-keyboard-response","trial_index":105,"time_elapsed":468852,"internal_node_id":"0.0-3.0-3.24","prolific_id":"5e2fba940cded955c77b0bb5","session_id":"6439995005066cee9f8b7010","study_id":"64370a36d30bfa807bc7e43c"},{"rt":5730,"response":{"prediction":"16"},"trial_type":"survey-text","trial_index":106,"time_elapsed":474586,"internal_node_id":"0.0-3.0-0.25","prolific_id":"5e2fba940cded955c77b0bb5","session_id":"6439995005066cee9f8b7010","study_id":"64370a36d30bfa807bc7e43c"},{"rt":3924,"response":{"prior knowledge":1,"curiosity":4},"accuracy":[],"trial_type":"survey","trial_index":107,"time_elapsed":478526,"internal_node_id":"0.0-3.0-1.25","prolific_id":"5e2fba940cded955c77b0bb5","session_id":"6439995005066cee9f8b7010","study_id":"64370a36d30bfa807bc7e43c"},{"rt":null,"stimulus":"\n\t\t\t<div class=\"flip_card\">\n\t\t\t\t<div class=\"flip_card_inner\">\n\t\t\t\t\t<div class=\"flip_card_front\">\n\t\t\t\t\t\t<img src=img/27.png>\n\t\t\t\t\t</div>\n\t\t\t\t\t<div class=\"flip_card_back\">\n\t\t\t\t\t\t<h2>How many constellations are there?</h2>\n\t\t\t\t\t\t<br>\n\t\t\t\t\t\t<p>Answer: <strong>88</strong></p>\n\t\t\t\t\t</div>\n\t\t\t\t</div>\n\t\t\t</div>\n\t\t\t","response":null,"trial_type":"html-keyboard-response","trial_index":108,"time_elapsed":483536,"internal_node_id":"0.0-3.0-2.25","prolific_id":"5e2fba940cded955c77b0bb5","session_id":"6439995005066cee9f8b7010","study_id":"64370a36d30bfa807bc7e43c"},{"rt":999,"stimulus":"\n\t\t\t\t\t<div>\n\t\t\t\t\t<h2>Trial 26 is over</h2>\n\t\t\t\t\t<p>Press <span style=\"color: red\"><strong>any key</strong></span> to continue to the next trial</p>\n\t\t\t\t\t</div>\n\t\t\t\t","response":" ","trial_type":"html-keyboard-response","trial_index":109,"time_elapsed":484536,"internal_node_id":"0.0-3.0-3.25","prolific_id":"5e2fba940cded955c77b0bb5","session_id":"6439995005066cee9f8b7010","study_id":"64370a36d30bfa807bc7e43c"},{"rt":3259,"response":{"prediction":"23"},"trial_type":"survey-text","trial_index":110,"time_elapsed":487800,"internal_node_id":"0.0-3.0-0.26","prolific_id":"5e2fba940cded955c77b0bb5","session_id":"6439995005066cee9f8b7010","study_id":"64370a36d30bfa807bc7e43c"},{"rt":3732,"response":{"prior knowledge":0,"curiosity":4},"accuracy":[],"trial_type":"survey","trial_index":111,"time_elapsed":491549,"internal_node_id":"0.0-3.0-1.26","prolific_id":"5e2fba940cded955c77b0bb5","session_id":"6439995005066cee9f8b7010","study_id":"64370a36d30bfa807bc7e43c"},{"rt":null,"stimulus":"\n\t\t\t<div class=\"flip_card\">\n\t\t\t\t<div class=\"flip_card_inner\">\n\t\t\t\t\t<div class=\"flip_card_front\">\n\t\t\t\t\t\t<img src=img/30.png>\n\t\t\t\t\t</div>\n\t\t\t\t\t<div class=\"flip_card_back\">\n\t\t\t\t\t\t<h2>How many countries are in Africa?</h2>\n\t\t\t\t\t\t<br>\n\t\t\t\t\t\t<p>Answer: <strong>54</strong></p>\n\t\t\t\t\t</div>\n\t\t\t\t</div>\n\t\t\t</div>\n\t\t\t","response":null,"trial_type":"html-keyboard-response","trial_index":112,"time_elapsed":496559,"internal_node_id":"0.0-3.0-2.26","prolific_id":"5e2fba940cded955c77b0bb5","session_id":"6439995005066cee9f8b7010","study_id":"64370a36d30bfa807bc7e43c"},{"rt":201,"stimulus":"\n\t\t\t\t\t<div>\n\t\t\t\t\t<h2>Trial 27 is over</h2>\n\t\t\t\t\t<p>Press <span style=\"color: red\"><strong>any key</strong></span> to continue to the next trial</p>\n\t\t\t\t\t</div>\n\t\t\t\t","response":" ","trial_type":"html-keyboard-response","trial_index":113,"time_elapsed":496761,"internal_node_id":"0.0-3.0-3.26","prolific_id":"5e2fba940cded955c77b0bb5","session_id":"6439995005066cee9f8b7010","study_id":"64370a36d30bfa807bc7e43c"},{"rt":5245,"response":{"prediction":"3000"},"trial_type":"survey-text","trial_index":114,"time_elapsed":502010,"internal_node_id":"0.0-3.0-0.27","prolific_id":"5e2fba940cded955c77b0bb5","session_id":"6439995005066cee9f8b7010","study_id":"64370a36d30bfa807bc7e43c"},{"rt":3331,"response":{"prior knowledge":1,"curiosity":4},"accuracy":[],"trial_type":"survey","trial_index":115,"time_elapsed":505362,"internal_node_id":"0.0-3.0-1.27","prolific_id":"5e2fba940cded955c77b0bb5","session_id":"6439995005066cee9f8b7010","study_id":"64370a36d30bfa807bc7e43c"},{"rt":null,"stimulus":"\n\t\t\t<div class=\"flip_card\">\n\t\t\t\t<div class=\"flip_card_inner\">\n\t\t\t\t\t<div class=\"flip_card_front\">\n\t\t\t\t\t\t<img src=img/17.png>\n\t\t\t\t\t</div>\n\t\t\t\t\t<div class=\"flip_card_back\">\n\t\t\t\t\t\t<h2>How long is the Great Wall of China (in miles)?</h2>\n\t\t\t\t\t\t<br>\n\t\t\t\t\t\t<p>Answer: <strong>13171</strong></p>\n\t\t\t\t\t</div>\n\t\t\t\t</div>\n\t\t\t</div>\n\t\t\t","response":null,"trial_type":"html-keyboard-response","trial_index":116,"time_elapsed":510376,"internal_node_id":"0.0-3.0-2.27","prolific_id":"5e2fba940cded955c77b0bb5","session_id":"6439995005066cee9f8b7010","study_id":"64370a36d30bfa807bc7e43c"},{"rt":866,"stimulus":"\n\t\t\t\t\t<div>\n\t\t\t\t\t<h2>Trial 28 is over</h2>\n\t\t\t\t\t<p>Press <span style=\"color: red\"><strong>any key</strong></span> to continue to the next trial</p>\n\t\t\t\t\t</div>\n\t\t\t\t","response":" ","trial_type":"html-keyboard-response","trial_index":117,"time_elapsed":511243,"internal_node_id":"0.0-3.0-3.27","prolific_id":"5e2fba940cded955c77b0bb5","session_id":"6439995005066cee9f8b7010","study_id":"64370a36d30bfa807bc7e43c"},{"rt":3384,"response":{"prediction":"7"},"trial_type":"survey-text","trial_index":118,"time_elapsed":514632,"internal_node_id":"0.0-3.0-0.28","prolific_id":"5e2fba940cded955c77b0bb5","session_id":"6439995005066cee9f8b7010","study_id":"64370a36d30bfa807bc7e43c"},{"rt":5423,"response":{"prior knowledge":0,"curiosity":4},"accuracy":[],"trial_type":"survey","trial_index":119,"time_elapsed":520070,"internal_node_id":"0.0-3.0-1.28","prolific_id":"5e2fba940cded955c77b0bb5","session_id":"6439995005066cee9f8b7010","study_id":"64370a36d30bfa807bc7e43c"},{"rt":null,"stimulus":"\n\t\t\t<div class=\"flip_card\">\n\t\t\t\t<div class=\"flip_card_inner\">\n\t\t\t\t\t<div class=\"flip_card_front\">\n\t\t\t\t\t\t<img src=img/24.png>\n\t\t\t\t\t</div>\n\t\t\t\t\t<div class=\"flip_card_back\">\n\t\t\t\t\t\t<h2>How many lines are in a sonnet?</h2>\n\t\t\t\t\t\t<br>\n\t\t\t\t\t\t<p>Answer: <strong>14</strong></p>\n\t\t\t\t\t</div>\n\t\t\t\t</div>\n\t\t\t</div>\n\t\t\t","response":null,"trial_type":"html-keyboard-response","trial_index":120,"time_elapsed":525078,"internal_node_id":"0.0-3.0-2.28","prolific_id":"5e2fba940cded955c77b0bb5","session_id":"6439995005066cee9f8b7010","study_id":"64370a36d30bfa807bc7e43c"},{"rt":727,"stimulus":"\n\t\t\t\t\t<div>\n\t\t\t\t\t<h2>Trial 29 is over</h2>\n\t\t\t\t\t<p>Press <span style=\"color: red\"><strong>any key</strong></span> to continue to the next trial</p>\n\t\t\t\t\t</div>\n\t\t\t\t","response":" ","trial_type":"html-keyboard-response","trial_index":121,"time_elapsed":525806,"internal_node_id":"0.0-3.0-3.28","prolific_id":"5e2fba940cded955c77b0bb5","session_id":"6439995005066cee9f8b7010","study_id":"64370a36d30bfa807bc7e43c"},{"rt":4159,"response":{"prediction":"2010"},"trial_type":"survey-text","trial_index":122,"time_elapsed":529969,"internal_node_id":"0.0-3.0-0.29","prolific_id":"5e2fba940cded955c77b0bb5","session_id":"6439995005066cee9f8b7010","study_id":"64370a36d30bfa807bc7e43c"},{"rt":4179,"response":{"prior knowledge":1,"curiosity":4},"accuracy":[],"trial_type":"survey","trial_index":123,"time_elapsed":534167,"internal_node_id":"0.0-3.0-1.29","prolific_id":"5e2fba940cded955c77b0bb5","session_id":"6439995005066cee9f8b7010","study_id":"64370a36d30bfa807bc7e43c"},{"rt":null,"stimulus":"\n\t\t\t<div class=\"flip_card\">\n\t\t\t\t<div class=\"flip_card_inner\">\n\t\t\t\t\t<div class=\"flip_card_front\">\n\t\t\t\t\t\t<img src=img/5.png>\n\t\t\t\t\t</div>\n\t\t\t\t\t<div class=\"flip_card_back\">\n\t\t\t\t\t\t<h2>What year was the very first model of the iPhone released?</h2>\n\t\t\t\t\t\t<br>\n\t\t\t\t\t\t<p>Answer: <strong>2007</strong></p>\n\t\t\t\t\t</div>\n\t\t\t\t</div>\n\t\t\t</div>\n\t\t\t","response":null,"trial_type":"html-keyboard-response","trial_index":124,"time_elapsed":539176,"internal_node_id":"0.0-3.0-2.29","prolific_id":"5e2fba940cded955c77b0bb5","session_id":"6439995005066cee9f8b7010","study_id":"64370a36d30bfa807bc7e43c"},{"rt":625,"stimulus":"\n\t\t\t\t\t<div>\n\t\t\t\t\t<h2>Trial 30 is over</h2>\n\t\t\t\t\t<p>Press <span style=\"color: red\"><strong>any key</strong></span> to continue to the next trial</p>\n\t\t\t\t\t</div>\n\t\t\t\t","response":" ","trial_type":"html-keyboard-response","trial_index":125,"time_elapsed":539802,"internal_node_id":"0.0-3.0-3.29","prolific_id":"5e2fba940cded955c77b0bb5","session_id":"6439995005066cee9f8b7010","study_id":"64370a36d30bfa807bc7e43c"},{"rt":null,"stimulus":"\n\t\t\t<h2>Good job! You've finished the 30 trials:p</h2>\n\t\t\t<p>In the next session, you will see two cards on the screen in each trial.</p>\n\t\t\t<p>On one card is a pattern that you have seen before in the experiment,\n\t\t\t\tand on the other card is one you have not seen.</p><br>\n\t\t\t<p>Your task is to choose the one you think you <em>have</em> seen before for every trial.</p>\n\t\t\t<p>Press '<span style=\"color: red;\"><strong>F</strong></span>' to choose the card on the left,\n\t\t\t\tand '<span style=\"color: red;\"><strong>J</strong></span>' to choose the card on the right.</p>\n\t\t\t<p>Have fun!</p>\n\t\t\t<br>\n\t\t\t<p>The trials will begin in 30 seconds</p>\n\t\t\t","response":null,"trial_type":"html-keyboard-response","trial_index":126,"time_elapsed":569821,"internal_node_id":"0.0-4.0","prolific_id":"5e2fba940cded955c77b0bb5","session_id":"6439995005066cee9f8b7010","study_id":"64370a36d30bfa807bc7e43c"},{"rt":2654,"stimulus":"\n\t\t\t\t\t\t<div class=\"two_card_container\">\n\t\t\t\t\t\t<div class=\"card_container\">\n\t\t\t\t\t\t<img src=img/32.png>\n\t\t\t\t\t\t</div>\n\n\t\t\t\t\t\t<div class=\"card_container\">\n\t\t\t\t\t\t<img src=img/6.png>\n\t\t\t\t\t\t</div>","response":"f","task":"response","correct_response":"j","trial_type":"html-keyboard-response","trial_index":127,"time_elapsed":572480,"internal_node_id":"0.0-5.0-0.0","prolific_id":"5e2fba940cded955c77b0bb5","session_id":"6439995005066cee9f8b7010","study_id":"64370a36d30bfa807bc7e43c","correct":false},{"rt":null,"stimulus":"\n\t\t\t\t\t<p>Wrong answer</p>\n\t\t\t\t\t","response":null,"trial_type":"html-keyboard-response","trial_index":128,"time_elapsed":573491,"internal_node_id":"0.0-5.0-1.0","prolific_id":"5e2fba940cded955c77b0bb5","session_id":"6439995005066cee9f8b7010","study_id":"64370a36d30bfa807bc7e43c"},{"rt":1388,"stimulus":"\n\t\t\t\t\t\t<div class=\"two_card_container\">\n\t\t\t\t\t\t<div class=\"card_container\">\n\t\t\t\t\t\t<img src=img/4.png>\n\t\t\t\t\t\t</div>\n\n\t\t\t\t\t\t<div class=\"card_container\">\n\t\t\t\t\t\t<img src=img/31.png>\n\t\t\t\t\t\t</div>","response":"f","task":"response","correct_response":"f","trial_type":"html-keyboard-response","trial_index":129,"time_elapsed":574881,"internal_node_id":"0.0-5.0-0.1","prolific_id":"5e2fba940cded955c77b0bb5","session_id":"6439995005066cee9f8b7010","study_id":"64370a36d30bfa807bc7e43c","correct":true},{"rt":null,"stimulus":"\n\t\t\t\t\t<p>Correct!</p>\n\t\t\t\t\t","response":null,"trial_type":"html-keyboard-response","trial_index":130,"time_elapsed":575888,"internal_node_id":"0.0-5.0-1.1","prolific_id":"5e2fba940cded955c77b0bb5","session_id":"6439995005066cee9f8b7010","study_id":"64370a36d30bfa807bc7e43c"},{"rt":1131,"stimulus":"\n\t\t\t\t\t\t<div class=\"two_card_container\">\n\t\t\t\t\t\t<div class=\"card_container\">\n\t\t\t\t\t\t<img src=img/33.png>\n\t\t\t\t\t\t</div>\n\n\t\t\t\t\t\t<div class=\"card_container\">\n\t\t\t\t\t\t<img src=img/18.png>\n\t\t\t\t\t\t</div>","response":"j","task":"response","correct_response":"j","trial_type":"html-keyboard-response","trial_index":131,"time_elapsed":577022,"internal_node_id":"0.0-5.0-0.2","prolific_id":"5e2fba940cded955c77b0bb5","session_id":"6439995005066cee9f8b7010","study_id":"64370a36d30bfa807bc7e43c","correct":true},{"rt":null,"stimulus":"\n\t\t\t\t\t<p>Correct!</p>\n\t\t\t\t\t","response":null,"trial_type":"html-keyboard-response","trial_index":132,"time_elapsed":578027,"internal_node_id":"0.0-5.0-1.2","prolific_id":"5e2fba940cded955c77b0bb5","session_id":"6439995005066cee9f8b7010","study_id":"64370a36d30bfa807bc7e43c"},{"rt":1104,"stimulus":"\n\t\t\t\t\t\t<div class=\"two_card_container\">\n\t\t\t\t\t\t<div class=\"card_container\">\n\t\t\t\t\t\t<img src=img/23.png>\n\t\t\t\t\t\t</div>\n\n\t\t\t\t\t\t<div class=\"card_container\">\n\t\t\t\t\t\t<img src=img/40.png>\n\t\t\t\t\t\t</div>","response":"f","task":"response","correct_response":"f","trial_type":"html-keyboard-response","trial_index":133,"time_elapsed":579134,"internal_node_id":"0.0-5.0-0.3","prolific_id":"5e2fba940cded955c77b0bb5","session_id":"6439995005066cee9f8b7010","study_id":"64370a36d30bfa807bc7e43c","correct":true},{"rt":null,"stimulus":"\n\t\t\t\t\t<p>Correct!</p>\n\t\t\t\t\t","response":null,"trial_type":"html-keyboard-response","trial_index":134,"time_elapsed":580140,"internal_node_id":"0.0-5.0-1.3","prolific_id":"5e2fba940cded955c77b0bb5","session_id":"6439995005066cee9f8b7010","study_id":"64370a36d30bfa807bc7e43c"},{"rt":1187,"stimulus":"\n\t\t\t\t\t\t<div class=\"two_card_container\">\n\t\t\t\t\t\t<div class=\"card_container\">\n\t\t\t\t\t\t<img src=img/37.png>\n\t\t\t\t\t\t</div>\n\n\t\t\t\t\t\t<div class=\"card_container\">\n\t\t\t\t\t\t<img src=img/3.png>\n\t\t\t\t\t\t</div>","response":"j","task":"response","correct_response":"j","trial_type":"html-keyboard-response","trial_index":135,"time_elapsed":581329,"internal_node_id":"0.0-5.0-0.4","prolific_id":"5e2fba940cded955c77b0bb5","session_id":"6439995005066cee9f8b7010","study_id":"64370a36d30bfa807bc7e43c","correct":true},{"rt":null,"stimulus":"\n\t\t\t\t\t<p>Correct!</p>\n\t\t\t\t\t","response":null,"trial_type":"html-keyboard-response","trial_index":136,"time_elapsed":582332,"internal_node_id":"0.0-5.0-1.4","prolific_id":"5e2fba940cded955c77b0bb5","session_id":"6439995005066cee9f8b7010","study_id":"64370a36d30bfa807bc7e43c"},{"rt":1279,"stimulus":"\n\t\t\t\t\t\t<div class=\"two_card_container\">\n\t\t\t\t\t\t<div class=\"card_container\">\n\t\t\t\t\t\t<img src=img/35.png>\n\t\t\t\t\t\t</div>\n\n\t\t\t\t\t\t<div class=\"card_container\">\n\t\t\t\t\t\t<img src=img/8.png>\n\t\t\t\t\t\t</div>","response":"j","task":"response","correct_response":"j","trial_type":"html-keyboard-response","trial_index":137,"time_elapsed":583614,"internal_node_id":"0.0-5.0-0.5","prolific_id":"5e2fba940cded955c77b0bb5","session_id":"6439995005066cee9f8b7010","study_id":"64370a36d30bfa807bc7e43c","correct":true},{"rt":null,"stimulus":"\n\t\t\t\t\t<p>Correct!</p>\n\t\t\t\t\t","response":null,"trial_type":"html-keyboard-response","trial_index":138,"time_elapsed":584618,"internal_node_id":"0.0-5.0-1.5","prolific_id":"5e2fba940cded955c77b0bb5","session_id":"6439995005066cee9f8b7010","study_id":"64370a36d30bfa807bc7e43c"},{"rt":1677,"stimulus":"\n\t\t\t\t\t\t<div class=\"two_card_container\">\n\t\t\t\t\t\t<div class=\"card_container\">\n\t\t\t\t\t\t<img src=img/25.png>\n\t\t\t\t\t\t</div>\n\n\t\t\t\t\t\t<div class=\"card_container\">\n\t\t\t\t\t\t<img src=img/38.png>\n\t\t\t\t\t\t</div>","response":"f","task":"response","correct_response":"f","trial_type":"html-keyboard-response","trial_index":139,"time_elapsed":586297,"internal_node_id":"0.0-5.0-0.6","prolific_id":"5e2fba940cded955c77b0bb5","session_id":"6439995005066cee9f8b7010","study_id":"64370a36d30bfa807bc7e43c","correct":true},{"rt":null,"stimulus":"\n\t\t\t\t\t<p>Correct!</p>\n\t\t\t\t\t","response":null,"trial_type":"html-keyboard-response","trial_index":140,"time_elapsed":587313,"internal_node_id":"0.0-5.0-1.6","prolific_id":"5e2fba940cded955c77b0bb5","session_id":"6439995005066cee9f8b7010","study_id":"64370a36d30bfa807bc7e43c"},{"rt":1177,"stimulus":"\n\t\t\t\t\t\t<div class=\"two_card_container\">\n\t\t\t\t\t\t<div class=\"card_container\">\n\t\t\t\t\t\t<img src=img/36.png>\n\t\t\t\t\t\t</div>\n\n\t\t\t\t\t\t<div class=\"card_container\">\n\t\t\t\t\t\t<img src=img/30.png>\n\t\t\t\t\t\t</div>","response":"j","task":"response","correct_response":"j","trial_type":"html-keyboard-response","trial_index":141,"time_elapsed":588493,"internal_node_id":"0.0-5.0-0.7","prolific_id":"5e2fba940cded955c77b0bb5","session_id":"6439995005066cee9f8b7010","study_id":"64370a36d30bfa807bc7e43c","correct":true},{"rt":null,"stimulus":"\n\t\t\t\t\t<p>Correct!</p>\n\t\t\t\t\t","response":null,"trial_type":"html-keyboard-response","trial_index":142,"time_elapsed":589509,"internal_node_id":"0.0-5.0-1.7","prolific_id":"5e2fba940cded955c77b0bb5","session_id":"6439995005066cee9f8b7010","study_id":"64370a36d30bfa807bc7e43c"},{"rt":3253,"stimulus":"\n\t\t\t\t\t\t<div class=\"two_card_container\">\n\t\t\t\t\t\t<div class=\"card_container\">\n\t\t\t\t\t\t<img src=img/16.png>\n\t\t\t\t\t\t</div>\n\n\t\t\t\t\t\t<div class=\"card_container\">\n\t\t\t\t\t\t<img src=img/39.png>\n\t\t\t\t\t\t</div>","response":"f","task":"response","correct_response":"f","trial_type":"html-keyboard-response","trial_index":143,"time_elapsed":592765,"internal_node_id":"0.0-5.0-0.8","prolific_id":"5e2fba940cded955c77b0bb5","session_id":"6439995005066cee9f8b7010","study_id":"64370a36d30bfa807bc7e43c","correct":true},{"rt":null,"stimulus":"\n\t\t\t\t\t<p>Correct!</p>\n\t\t\t\t\t","response":null,"trial_type":"html-keyboard-response","trial_index":144,"time_elapsed":593776,"internal_node_id":"0.0-5.0-1.8","prolific_id":"5e2fba940cded955c77b0bb5","session_id":"6439995005066cee9f8b7010","study_id":"64370a36d30bfa807bc7e43c"},{"rt":1484,"stimulus":"\n\t\t\t\t\t\t<div class=\"two_card_container\">\n\t\t\t\t\t\t<div class=\"card_container\">\n\t\t\t\t\t\t<img src=img/29.png>\n\t\t\t\t\t\t</div>\n\n\t\t\t\t\t\t<div class=\"card_container\">\n\t\t\t\t\t\t<img src=img/34.png>\n\t\t\t\t\t\t</div>","response":"f","task":"response","correct_response":"f","trial_type":"html-keyboard-response","trial_index":145,"time_elapsed":595262,"internal_node_id":"0.0-5.0-0.9","prolific_id":"5e2fba940cded955c77b0bb5","session_id":"6439995005066cee9f8b7010","study_id":"64370a36d30bfa807bc7e43c","correct":true},{"rt":null,"stimulus":"\n\t\t\t\t\t<p>Correct!</p>\n\t\t\t\t\t","response":null,"trial_type":"html-keyboard-response","trial_index":146,"time_elapsed":596273,"internal_node_id":"0.0-5.0-1.9","prolific_id":"5e2fba940cded955c77b0bb5","session_id":"6439995005066cee9f8b7010","study_id":"64370a36d30bfa807bc7e43c"},{"rt":null,"stimulus":"\n\t\t\t<h2>Good job :p</h2>\n\t\t\t<p>In the next session, you will see a trivia question on the screen in each trial.</p>\n\t\t\t<p>Each of these trivia questions is chosen from the questions you have already seen in the first session of the experiment.</p><br>\n\t\t\t<p>Your task is to answer the trivia question based on what you remember as accurately as you can.</p>\n\t\t\t<p>Have fun!</p>\n\t\t\t<br>\n\t\t\t<p>The trials will begin in 30 seconds</p>\n\t\t\t","response":null,"trial_type":"html-keyboard-response","trial_index":147,"time_elapsed":626285,"internal_node_id":"0.0-6.0","prolific_id":"5e2fba940cded955c77b0bb5","session_id":"6439995005066cee9f8b7010","study_id":"64370a36d30bfa807bc7e43c"},{"rt":3955,"response":{"answer":"1989"},"task":"response","correct_response":"1989","trial_type":"survey-text","trial_index":148,"time_elapsed":630246,"internal_node_id":"0.0-7.0-0.0","prolific_id":"5e2fba940cded955c77b0bb5","session_id":"6439995005066cee9f8b7010","study_id":"64370a36d30bfa807bc7e43c","difference":0},{"rt":null,"stimulus":"<h2>The correct answer is 1989.</h2><p>Your answer was different from the answer by 0.</p><p>You got the right answer. Amazing work!</p>","response":null,"trial_type":"html-keyboard-response","trial_index":149,"time_elapsed":632757,"internal_node_id":"0.0-7.0-1.0","prolific_id":"5e2fba940cded955c77b0bb5","session_id":"6439995005066cee9f8b7010","study_id":"64370a36d30bfa807bc7e43c"},{"rt":2711,"response":{"answer":"14"},"task":"response","correct_response":"14","trial_type":"survey-text","trial_index":150,"time_elapsed":635474,"internal_node_id":"0.0-7.0-0.1","prolific_id":"5e2fba940cded955c77b0bb5","session_id":"6439995005066cee9f8b7010","study_id":"64370a36d30bfa807bc7e43c","difference":0},{"rt":null,"stimulus":"<h2>The correct answer is 14.</h2><p>Your answer was different from the answer by 0.</p><p>You got the right answer. Amazing work!</p>","response":null,"trial_type":"html-keyboard-response","trial_index":151,"time_elapsed":637980,"internal_node_id":"0.0-7.0-1.1","prolific_id":"5e2fba940cded955c77b0bb5","session_id":"6439995005066cee9f8b7010","study_id":"64370a36d30bfa807bc7e43c"},{"rt":7400,"response":{"answer":"1901"},"task":"response","correct_response":"1907","trial_type":"survey-text","trial_index":152,"time_elapsed":645384,"internal_node_id":"0.0-7.0-0.2","prolific_id":"5e2fba940cded955c77b0bb5","session_id":"6439995005066cee9f8b7010","study_id":"64370a36d30bfa807bc7e43c","difference":0},{"rt":null,"stimulus":"<h2>The correct answer is 1907.</h2><p>Your answer was different from the answer by 6.</p><p>Excellent. Kudos to you!</p>","response":null,"trial_type":"html-keyboard-response","trial_index":153,"time_elapsed":647894,"internal_node_id":"0.0-7.0-1.2","prolific_id":"5e2fba940cded955c77b0bb5","session_id":"6439995005066cee9f8b7010","study_id":"64370a36d30bfa807bc7e43c"},{"rt":2453,"response":{"answer":"83"},"task":"response","correct_response":"73","trial_type":"survey-text","trial_index":154,"time_elapsed":650352,"internal_node_id":"0.0-7.0-0.3","prolific_id":"5e2fba940cded955c77b0bb5","session_id":"6439995005066cee9f8b7010","study_id":"64370a36d30bfa807bc7e43c","difference":14},{"rt":null,"stimulus":"<h2>The correct answer is 73.</h2><p>Your answer was different from the answer by 10.</p><p>A pretty good job indeed.</p>","response":null,"trial_type":"html-keyboard-response","trial_index":155,"time_elapsed":652855,"internal_node_id":"0.0-7.0-1.3","prolific_id":"5e2fba940cded955c77b0bb5","session_id":"6439995005066cee9f8b7010","study_id":"64370a36d30bfa807bc7e43c"},{"rt":3246,"response":{"answer":"13700"},"task":"response","correct_response":"13171","trial_type":"survey-text","trial_index":156,"time_elapsed":656106,"internal_node_id":"0.0-7.0-0.4","prolific_id":"5e2fba940cded955c77b0bb5","session_id":"6439995005066cee9f8b7010","study_id":"64370a36d30bfa807bc7e43c","difference":4},{"rt":null,"stimulus":"<h2>The correct answer is 13171.</h2><p>Your answer was different from the answer by 529.</p><p>Excellent. Kudos to you!</p>","response":null,"trial_type":"html-keyboard-response","trial_index":157,"time_elapsed":658623,"internal_node_id":"0.0-7.0-1.4","prolific_id":"5e2fba940cded955c77b0bb5","session_id":"6439995005066cee9f8b7010","study_id":"64370a36d30bfa807bc7e43c"},{"rt":3133,"response":{"answer":"1912"},"task":"response","correct_response":"1912","trial_type":"survey-text","trial_index":158,"time_elapsed":661760,"internal_node_id":"0.0-7.0-0.5","prolific_id":"5e2fba940cded955c77b0bb5","session_id":"6439995005066cee9f8b7010","study_id":"64370a36d30bfa807bc7e43c","difference":0},{"rt":null,"stimulus":"<h2>The correct answer is 1912.</h2><p>Your answer was different from the answer by 0.</p><p>You got the right answer. Amazing work!</p>","response":null,"trial_type":"html-keyboard-response","trial_index":159,"time_elapsed":664271,"internal_node_id":"0.0-7.0-1.5","prolific_id":"5e2fba940cded955c77b0bb5","session_id":"6439995005066cee9f8b7010","study_id":"64370a36d30bfa807bc7e43c"},{"rt":2727,"response":{"answer":"14"},"task":"response","correct_response":"14","trial_type":"survey-text","trial_index":160,"time_elapsed":667002,"internal_node_id":"0.0-7.0-0.6","prolific_id":"5e2fba940cded955c77b0bb5","session_id":"6439995005066cee9f8b7010","study_id":"64370a36d30bfa807bc7e43c","difference":0},{"rt":null,"stimulus":"<h2>The correct answer is 14.</h2><p>Your answer was different from the answer by 0.</p><p>You got the right answer. Amazing work!</p>","response":null,"trial_type":"html-keyboard-response","trial_index":161,"time_elapsed":669504,"internal_node_id":"0.0-7.0-1.6","prolific_id":"5e2fba940cded955c77b0bb5","session_id":"6439995005066cee9f8b7010","study_id":"64370a36d30bfa807bc7e43c"},{"rt":4280,"response":{"answer":"23"},"task":"response","correct_response":"6","trial_type":"survey-text","trial_index":162,"time_elapsed":673789,"internal_node_id":"0.0-7.0-0.7","prolific_id":"5e2fba940cded955c77b0bb5","session_id":"6439995005066cee9f8b7010","study_id":"64370a36d30bfa807bc7e43c","difference":100},{"rt":null,"stimulus":"<h2>The correct answer is 6.</h2><p>Your answer was different from the answer by 17.</p><p>Not even close... do better next time!</p>","response":null,"trial_type":"html-keyboard-response","trial_index":163,"time_elapsed":676296,"internal_node_id":"0.0-7.0-1.7","prolific_id":"5e2fba940cded955c77b0bb5","session_id":"6439995005066cee9f8b7010","study_id":"64370a36d30bfa807bc7e43c"},{"rt":2397,"response":{"answer":"4"},"task":"response","correct_response":"4","trial_type":"survey-text","trial_index":164,"time_elapsed":678698,"internal_node_id":"0.0-7.0-0.8","prolific_id":"5e2fba940cded955c77b0bb5","session_id":"6439995005066cee9f8b7010","study_id":"64370a36d30bfa807bc7e43c","difference":0},{"rt":null,"stimulus":"<h2>The correct answer is 4.</h2><p>Your answer was different from the answer by 0.</p><p>You got the right answer. Amazing work!</p>","response":null,"trial_type":"html-keyboard-response","trial_index":165,"time_elapsed":681212,"internal_node_id":"0.0-7.0-1.8","prolific_id":"5e2fba940cded955c77b0bb5","session_id":"6439995005066cee9f8b7010","study_id":"64370a36d30bfa807bc7e43c"},{"rt":3054,"response":{"answer":"1806"},"task":"response","correct_response":"1896","trial_type":"survey-text","trial_index":166,"time_elapsed":684272,"internal_node_id":"0.0-7.0-0.9","prolific_id":"5e2fba940cded955c77b0bb5","session_id":"6439995005066cee9f8b7010","study_id":"64370a36d30bfa807bc7e43c","difference":5},{"rt":null,"stimulus":"<h2>The correct answer is 1896.</h2><p>Your answer was different from the answer by 90.</p><p>Excellent. Kudos to you!</p>","response":null,"trial_type":"html-keyboard-response","trial_index":167,"time_elapsed":686781,"internal_node_id":"0.0-7.0-1.9","prolific_id":"5e2fba940cded955c77b0bb5","session_id":"6439995005066cee9f8b7010","study_id":"64370a36d30bfa807bc7e43c"}]