[{"success":true,"timeout":false,"failed_images":[],"failed_audio":[],"failed_video":[],"trial_type":"preload","trial_index":0,"time_elapsed":13450,"internal_node_id":"0.0-0.0","prolific_id":"5e65531ade78962d424730a3","session_id":"643c24b70ec87e381ebc25bb","study_id":"64370a36d30bfa807bc7e43c"},{"rt":16200,"stimulus":"\n\t\t\t\t\t<p>Welcome and thank you for participating in this study!</p>\n\t\t\t\t\t<p>In each trial, you will be given a trivia question and then be asked to:</p><br>\n\t\t\t\t\t<div class=\"list\">\n\t\t\t\t\t<p>1) Predict the answer</p>\n\t\t\t\t\t<p>2) Rate how much you already know about the topic</p>\n\t\t\t\t\t<p>3) Rate how much you want to know the answer</p>\n\t\t\t\t\t</div>\n\t\t\t\t\t<br>\n\t\t\t\t\t<p>Then, you will see a card that flips over to reveal the answer.</p>\n\t\t\t\t\t<br>\n\t\t\t\t\t<p>Let's try a practice round. Press <span style=\"color: red\"><strong>any key</strong></span> to move to the next slide</p>\n\t\t\t\t\t","response":"arrowright","trial_type":"html-keyboard-response","trial_index":1,"time_elapsed":29652,"internal_node_id":"0.0-1.0","prolific_id":"5e65531ade78962d424730a3","session_id":"643c24b70ec87e381ebc25bb","study_id":"64370a36d30bfa807bc7e43c"},{"rt":11578,"response":{"practice prediction":"6"},"task":"practice","trial_type":"survey-text","trial_index":2,"time_elapsed":41271,"internal_node_id":"0.0-2.0-0.0","prolific_id":"5e65531ade78962d424730a3","session_id":"643c24b70ec87e381ebc25bb","study_id":"64370a36d30bfa807bc7e43c"},{"rt":9112,"response":{"practice":5},"accuracy":[],"trial_type":"survey","trial_index":3,"time_elapsed":50438,"internal_node_id":"0.0-2.0-1.0","prolific_id":"5e65531ade78962d424730a3","session_id":"643c24b70ec87e381ebc25bb","study_id":"64370a36d30bfa807bc7e43c"},{"rt":null,"stimulus":"\n\t\t\t\t<div class=\"flip_card\">\n\t\t\t\t\t<div class=\"flip_card_inner\">\n\t\t\t\t\t\t<div class=\"flip_card_front\">\n\t\t\t\t\t\t\t<img src=img/practice.png>\n\t\t\t\t\t\t</div>\n\t\t\t\t\t\t<div class=\"flip_card_back\">\n\t\t\t\t\t\t\t<h2>\"How many legs does a lobster have?\"</h2>\n\t\t\t\t\t\t    <br>\n\t\t\t\t\t\t    <p>Answer: <strong>\"10\"</strong></p>\n\t\t\t\t\t    </div>\n\t\t\t\t    </div>\n\t\t\t    </div>\n\t\t\t\t","response":null,"trial_type":"html-keyboard-response","trial_index":4,"time_elapsed":55440,"internal_node_id":"0.0-2.0-2.0","prolific_id":"5e65531ade78962d424730a3","session_id":"643c24b70ec87e381ebc25bb","study_id":"64370a36d30bfa807bc7e43c"},{"rt":2451,"stimulus":"\n\t\t\t\t\t<div>\n\t\t\t\t\t<h2>The practice round is over</h2>\n\t\t\t\t\t<p>Press <span style=\"color: red\"><strong>any key</strong></span> to continue to the actual trials</p>\n\t\t\t\t\t<p>Good Luck!</p>\n\t\t\t\t\t</div>\n\t\t\t\t\t","response":" ","trial_type":"html-keyboard-response","trial_index":5,"time_elapsed":57892,"internal_node_id":"0.0-2.0-3.0","prolific_id":"5e65531ade78962d424730a3","session_id":"643c24b70ec87e381ebc25bb","study_id":"64370a36d30bfa807bc7e43c"},{"rt":8854,"response":{"prediction":"13"},"trial_type":"survey-text","trial_index":6,"time_elapsed":66750,"internal_node_id":"0.0-3.0-0.0","prolific_id":"5e65531ade78962d424730a3","session_id":"643c24b70ec87e381ebc25bb","study_id":"64370a36d30bfa807bc7e43c"},{"rt":5775,"response":{"prior knowledge":2,"curiosity":3},"accuracy":[],"trial_type":"survey","trial_index":7,"time_elapsed":72550,"internal_node_id":"0.0-3.0-1.0","prolific_id":"5e65531ade78962d424730a3","session_id":"643c24b70ec87e381ebc25bb","study_id":"64370a36d30bfa807bc7e43c"},{"rt":null,"stimulus":"\n\t\t\t<div class=\"flip_card\">\n\t\t\t\t<div class=\"flip_card_inner\">\n\t\t\t\t\t<div class=\"flip_card_front\">\n\t\t\t\t\t\t<img src=img/4.png>\n\t\t\t\t\t</div>\n\t\t\t\t\t<div class=\"flip_card_back\">\n\t\t\t\t\t\t<h2>A bar mitzvah is traditionally celebrated when Jewish males turn what age?</h2>\n\t\t\t\t\t\t<br>\n\t\t\t\t\t\t<p>Answer: <strong>13</strong></p>\n\t\t\t\t\t</div>\n\t\t\t\t</div>\n\t\t\t</div>\n\t\t\t","response":null,"trial_type":"html-keyboard-response","trial_index":8,"time_elapsed":77568,"internal_node_id":"0.0-3.0-2.0","prolific_id":"5e65531ade78962d424730a3","session_id":"643c24b70ec87e381ebc25bb","study_id":"64370a36d30bfa807bc7e43c"},{"rt":2819,"stimulus":"\n\t\t\t\t\t<div>\n\t\t\t\t\t<h2>Trial 1 is over</h2>\n\t\t\t\t\t<p>Press <span style=\"color: red\"><strong>any key</strong></span> to continue to the next trial</p>\n\t\t\t\t\t</div>\n\t\t\t\t","response":" ","trial_type":"html-keyboard-response","trial_index":9,"time_elapsed":80388,"internal_node_id":"0.0-3.0-3.0","prolific_id":"5e65531ade78962d424730a3","session_id":"643c24b70ec87e381ebc25bb","study_id":"64370a36d30bfa807bc7e43c"},{"rt":11294,"response":{"prediction":"20"},"trial_type":"survey-text","trial_index":10,"time_elapsed":91686,"internal_node_id":"0.0-3.0-0.1","prolific_id":"5e65531ade78962d424730a3","session_id":"643c24b70ec87e381ebc25bb","study_id":"64370a36d30bfa807bc7e43c"},{"rt":5376,"response":{"prior knowledge":1,"curiosity":4},"accuracy":[],"trial_type":"survey","trial_index":11,"time_elapsed":97082,"internal_node_id":"0.0-3.0-1.1","prolific_id":"5e65531ade78962d424730a3","session_id":"643c24b70ec87e381ebc25bb","study_id":"64370a36d30bfa807bc7e43c"},{"rt":null,"stimulus":"\n\t\t\t<div class=\"flip_card\">\n\t\t\t\t<div class=\"flip_card_inner\">\n\t\t\t\t\t<div class=\"flip_card_front\">\n\t\t\t\t\t\t<img src=img/12.png>\n\t\t\t\t\t</div>\n\t\t\t\t\t<div class=\"flip_card_back\">\n\t\t\t\t\t\t<h2>How many countries in Africa have French as the official language?</h2>\n\t\t\t\t\t\t<br>\n\t\t\t\t\t\t<p>Answer: <strong>21</strong></p>\n\t\t\t\t\t</div>\n\t\t\t\t</div>\n\t\t\t</div>\n\t\t\t","response":null,"trial_type":"html-keyboard-response","trial_index":12,"time_elapsed":102098,"internal_node_id":"0.0-3.0-2.1","prolific_id":"5e65531ade78962d424730a3","session_id":"643c24b70ec87e381ebc25bb","study_id":"64370a36d30bfa807bc7e43c"},{"rt":2753,"stimulus":"\n\t\t\t\t\t<div>\n\t\t\t\t\t<h2>Trial 2 is over</h2>\n\t\t\t\t\t<p>Press <span style=\"color: red\"><strong>any key</strong></span> to continue to the next trial</p>\n\t\t\t\t\t</div>\n\t\t\t\t","response":" ","trial_type":"html-keyboard-response","trial_index":13,"time_elapsed":104852,"internal_node_id":"0.0-3.0-3.1","prolific_id":"5e65531ade78962d424730a3","session_id":"643c24b70ec87e381ebc25bb","study_id":"64370a36d30bfa807bc7e43c"},{"rt":8120,"response":{"prediction":"3"},"trial_type":"survey-text","trial_index":14,"time_elapsed":112974,"internal_node_id":"0.0-3.0-0.2","prolific_id":"5e65531ade78962d424730a3","session_id":"643c24b70ec87e381ebc25bb","study_id":"64370a36d30bfa807bc7e43c"},{"rt":4639,"response":{"prior knowledge":0,"curiosity":4},"accuracy":[],"trial_type":"survey","trial_index":15,"time_elapsed":117633,"internal_node_id":"0.0-3.0-1.2","prolific_id":"5e65531ade78962d424730a3","session_id":"643c24b70ec87e381ebc25bb","study_id":"64370a36d30bfa807bc7e43c"},{"rt":null,"stimulus":"\n\t\t\t<div class=\"flip_card\">\n\t\t\t\t<div class=\"flip_card_inner\">\n\t\t\t\t\t<div class=\"flip_card_front\">\n\t\t\t\t\t\t<img src=img/16.png>\n\t\t\t\t\t</div>\n\t\t\t\t\t<div class=\"flip_card_back\">\n\t\t\t\t\t\t<h2>How many native species of kangaroos are found in Australia?</h2>\n\t\t\t\t\t\t<br>\n\t\t\t\t\t\t<p>Answer: <strong>4</strong></p>\n\t\t\t\t\t</div>\n\t\t\t\t</div>\n\t\t\t</div>\n\t\t\t","response":null,"trial_type":"html-keyboard-response","trial_index":16,"time_elapsed":122634,"internal_node_id":"0.0-3.0-2.2","prolific_id":"5e65531ade78962d424730a3","session_id":"643c24b70ec87e381ebc25bb","study_id":"64370a36d30bfa807bc7e43c"},{"rt":2000,"stimulus":"\n\t\t\t\t\t<div>\n\t\t\t\t\t<h2>Trial 3 is over</h2>\n\t\t\t\t\t<p>Press <span style=\"color: red\"><strong>any key</strong></span> to continue to the next trial</p>\n\t\t\t\t\t</div>\n\t\t\t\t","response":" ","trial_type":"html-keyboard-response","trial_index":17,"time_elapsed":124635,"internal_node_id":"0.0-3.0-3.2","prolific_id":"5e65531ade78962d424730a3","session_id":"643c24b70ec87e381ebc25bb","study_id":"64370a36d30bfa807bc7e43c"},{"rt":8128,"response":{"prediction":"10"},"trial_type":"survey-text","trial_index":18,"time_elapsed":132766,"internal_node_id":"0.0-3.0-0.3","prolific_id":"5e65531ade78962d424730a3","session_id":"643c24b70ec87e381ebc25bb","study_id":"64370a36d30bfa807bc7e43c"},{"rt":5146,"response":{"prior knowledge":0,"curiosity":3},"accuracy":[],"trial_type":"survey","trial_index":19,"time_elapsed":137928,"internal_node_id":"0.0-3.0-1.3","prolific_id":"5e65531ade78962d424730a3","session_id":"643c24b70ec87e381ebc25bb","study_id":"64370a36d30bfa807bc7e43c"},{"rt":null,"stimulus":"\n\t\t\t<div class=\"flip_card\">\n\t\t\t\t<div class=\"flip_card_inner\">\n\t\t\t\t\t<div class=\"flip_card_front\">\n\t\t\t\t\t\t<img src=img/27.png>\n\t\t\t\t\t</div>\n\t\t\t\t\t<div class=\"flip_card_back\">\n\t\t\t\t\t\t<h2>How many tones are in the Vietnamese language?</h2>\n\t\t\t\t\t\t<br>\n\t\t\t\t\t\t<p>Answer: <strong>6</strong></p>\n\t\t\t\t\t</div>\n\t\t\t\t</div>\n\t\t\t</div>\n\t\t\t","response":null,"trial_type":"html-keyboard-response","trial_index":20,"time_elapsed":142931,"internal_node_id":"0.0-3.0-2.3","prolific_id":"5e65531ade78962d424730a3","session_id":"643c24b70ec87e381ebc25bb","study_id":"64370a36d30bfa807bc7e43c"},{"rt":2048,"stimulus":"\n\t\t\t\t\t<div>\n\t\t\t\t\t<h2>Trial 4 is over</h2>\n\t\t\t\t\t<p>Press <span style=\"color: red\"><strong>any key</strong></span> to continue to the next trial</p>\n\t\t\t\t\t</div>\n\t\t\t\t","response":" ","trial_type":"html-keyboard-response","trial_index":21,"time_elapsed":144979,"internal_node_id":"0.0-3.0-3.3","prolific_id":"5e65531ade78962d424730a3","session_id":"643c24b70ec87e381ebc25bb","study_id":"64370a36d30bfa807bc7e43c"},{"rt":6975,"response":{"prediction":"1908"},"trial_type":"survey-text","trial_index":22,"time_elapsed":151958,"internal_node_id":"0.0-3.0-0.4","prolific_id":"5e65531ade78962d424730a3","session_id":"643c24b70ec87e381ebc25bb","study_id":"64370a36d30bfa807bc7e43c"},{"rt":4376,"response":{"prior knowledge":0,"curiosity":3},"accuracy":[],"trial_type":"survey","trial_index":23,"time_elapsed":156353,"internal_node_id":"0.0-3.0-1.4","prolific_id":"5e65531ade78962d424730a3","session_id":"643c24b70ec87e381ebc25bb","study_id":"64370a36d30bfa807bc7e43c"},{"rt":null,"stimulus":"\n\t\t\t<div class=\"flip_card\">\n\t\t\t\t<div class=\"flip_card_inner\">\n\t\t\t\t\t<div class=\"flip_card_front\">\n\t\t\t\t\t\t<img src=img/24.png>\n\t\t\t\t\t</div>\n\t\t\t\t\t<div class=\"flip_card_back\">\n\t\t\t\t\t\t<h2>In what year was the first Nobel Prize awarded?</h2>\n\t\t\t\t\t\t<br>\n\t\t\t\t\t\t<p>Answer: <strong>1901</strong></p>\n\t\t\t\t\t</div>\n\t\t\t\t</div>\n\t\t\t</div>\n\t\t\t","response":null,"trial_type":"html-keyboard-response","trial_index":24,"time_elapsed":161355,"internal_node_id":"0.0-3.0-2.4","prolific_id":"5e65531ade78962d424730a3","session_id":"643c24b70ec87e381ebc25bb","study_id":"64370a36d30bfa807bc7e43c"},{"rt":1832,"stimulus":"\n\t\t\t\t\t<div>\n\t\t\t\t\t<h2>Trial 5 is over</h2>\n\t\t\t\t\t<p>Press <span style=\"color: red\"><strong>any key</strong></span> to continue to the next trial</p>\n\t\t\t\t\t</div>\n\t\t\t\t","response":" ","trial_type":"html-keyboard-response","trial_index":25,"time_elapsed":163188,"internal_node_id":"0.0-3.0-3.4","prolific_id":"5e65531ade78962d424730a3","session_id":"643c24b70ec87e381ebc25bb","study_id":"64370a36d30bfa807bc7e43c"},{"rt":7495,"response":{"prediction":"1920"},"trial_type":"survey-text","trial_index":26,"time_elapsed":170686,"internal_node_id":"0.0-3.0-0.5","prolific_id":"5e65531ade78962d424730a3","session_id":"643c24b70ec87e381ebc25bb","study_id":"64370a36d30bfa807bc7e43c"},{"rt":4314,"response":{"prior knowledge":1,"curiosity":4},"accuracy":[],"trial_type":"survey","trial_index":27,"time_elapsed":175017,"internal_node_id":"0.0-3.0-1.5","prolific_id":"5e65531ade78962d424730a3","session_id":"643c24b70ec87e381ebc25bb","study_id":"64370a36d30bfa807bc7e43c"},{"rt":null,"stimulus":"\n\t\t\t<div class=\"flip_card\">\n\t\t\t\t<div class=\"flip_card_inner\">\n\t\t\t\t\t<div class=\"flip_card_front\">\n\t\t\t\t\t\t<img src=img/3.png>\n\t\t\t\t\t</div>\n\t\t\t\t\t<div class=\"flip_card_back\">\n\t\t\t\t\t\t<h2>In what year did the first Modern Olympic Games take place?</h2>\n\t\t\t\t\t\t<br>\n\t\t\t\t\t\t<p>Answer: <strong>1896</strong></p>\n\t\t\t\t\t</div>\n\t\t\t\t</div>\n\t\t\t</div>\n\t\t\t","response":null,"trial_type":"html-keyboard-response","trial_index":28,"time_elapsed":180024,"internal_node_id":"0.0-3.0-2.5","prolific_id":"5e65531ade78962d424730a3","session_id":"643c24b70ec87e381ebc25bb","study_id":"64370a36d30bfa807bc7e43c"},{"rt":1642,"stimulus":"\n\t\t\t\t\t<div>\n\t\t\t\t\t<h2>Trial 6 is over</h2>\n\t\t\t\t\t<p>Press <span style=\"color: red\"><strong>any key</strong></span> to continue to the next trial</p>\n\t\t\t\t\t</div>\n\t\t\t\t","response":" ","trial_type":"html-keyboard-response","trial_index":29,"time_elapsed":181667,"internal_node_id":"0.0-3.0-3.5","prolific_id":"5e65531ade78962d424730a3","session_id":"643c24b70ec87e381ebc25bb","study_id":"64370a36d30bfa807bc7e43c"},{"rt":6624,"response":{"prediction":"4"},"trial_type":"survey-text","trial_index":30,"time_elapsed":188294,"internal_node_id":"0.0-3.0-0.6","prolific_id":"5e65531ade78962d424730a3","session_id":"643c24b70ec87e381ebc25bb","study_id":"64370a36d30bfa807bc7e43c"},{"rt":3323,"response":{"prior knowledge":1,"curiosity":3},"accuracy":[],"trial_type":"survey","trial_index":31,"time_elapsed":191633,"internal_node_id":"0.0-3.0-1.6","prolific_id":"5e65531ade78962d424730a3","session_id":"643c24b70ec87e381ebc25bb","study_id":"64370a36d30bfa807bc7e43c"},{"rt":null,"stimulus":"\n\t\t\t<div class=\"flip_card\">\n\t\t\t\t<div class=\"flip_card_inner\">\n\t\t\t\t\t<div class=\"flip_card_front\">\n\t\t\t\t\t\t<img src=img/17.png>\n\t\t\t\t\t</div>\n\t\t\t\t\t<div class=\"flip_card_back\">\n\t\t\t\t\t\t<h2>How many lines are in a sonnet?</h2>\n\t\t\t\t\t\t<br>\n\t\t\t\t\t\t<p>Answer: <strong>14</strong></p>\n\t\t\t\t\t</div>\n\t\t\t\t</div>\n\t\t\t</div>\n\t\t\t","response":null,"trial_type":"html-keyboard-response","trial_index":32,"time_elapsed":196636,"internal_node_id":"0.0-3.0-2.6","prolific_id":"5e65531ade78962d424730a3","session_id":"643c24b70ec87e381ebc25bb","study_id":"64370a36d30bfa807bc7e43c"},{"rt":1831,"stimulus":"\n\t\t\t\t\t<div>\n\t\t\t\t\t<h2>Trial 7 is over</h2>\n\t\t\t\t\t<p>Press <span style=\"color: red\"><strong>any key</strong></span> to continue to the next trial</p>\n\t\t\t\t\t</div>\n\t\t\t\t","response":" ","trial_type":"html-keyboard-response","trial_index":33,"time_elapsed":198467,"internal_node_id":"0.0-3.0-3.6","prolific_id":"5e65531ade78962d424730a3","session_id":"643c24b70ec87e381ebc25bb","study_id":"64370a36d30bfa807bc7e43c"},{"rt":8552,"response":{"prediction":"2008"},"trial_type":"survey-text","trial_index":34,"time_elapsed":207022,"internal_node_id":"0.0-3.0-0.7","prolific_id":"5e65531ade78962d424730a3","session_id":"643c24b70ec87e381ebc25bb","study_id":"64370a36d30bfa807bc7e43c"},{"rt":5114,"response":{"prior knowledge":2,"curiosity":4},"accuracy":[],"trial_type":"survey","trial_index":35,"time_elapsed":212153,"internal_node_id":"0.0-3.0-1.7","prolific_id":"5e65531ade78962d424730a3","session_id":"643c24b70ec87e381ebc25bb","study_id":"64370a36d30bfa807bc7e43c"},{"rt":null,"stimulus":"\n\t\t\t<div class=\"flip_card\">\n\t\t\t\t<div class=\"flip_card_inner\">\n\t\t\t\t\t<div class=\"flip_card_front\">\n\t\t\t\t\t\t<img src=img/8.png>\n\t\t\t\t\t</div>\n\t\t\t\t\t<div class=\"flip_card_back\">\n\t\t\t\t\t\t<h2>What year was the very first model of the iPhone released?</h2>\n\t\t\t\t\t\t<br>\n\t\t\t\t\t\t<p>Answer: <strong>2007</strong></p>\n\t\t\t\t\t</div>\n\t\t\t\t</div>\n\t\t\t</div>\n\t\t\t","response":null,"trial_type":"html-keyboard-response","trial_index":36,"time_elapsed":217155,"internal_node_id":"0.0-3.0-2.7","prolific_id":"5e65531ade78962d424730a3","session_id":"643c24b70ec87e381ebc25bb","study_id":"64370a36d30bfa807bc7e43c"},{"rt":1504,"stimulus":"\n\t\t\t\t\t<div>\n\t\t\t\t\t<h2>Trial 8 is over</h2>\n\t\t\t\t\t<p>Press <span style=\"color: red\"><strong>any key</strong></span> to continue to the next trial</p>\n\t\t\t\t\t</div>\n\t\t\t\t","response":" ","trial_type":"html-keyboard-response","trial_index":37,"time_elapsed":218659,"internal_node_id":"0.0-3.0-3.7","prolific_id":"5e65531ade78962d424730a3","session_id":"643c24b70ec87e381ebc25bb","study_id":"64370a36d30bfa807bc7e43c"},{"rt":5592,"response":{"prediction":"4"},"trial_type":"survey-text","trial_index":38,"time_elapsed":224253,"internal_node_id":"0.0-3.0-0.8","prolific_id":"5e65531ade78962d424730a3","session_id":"643c24b70ec87e381ebc25bb","study_id":"64370a36d30bfa807bc7e43c"},{"rt":3113,"response":{"prior knowledge":1,"curiosity":4},"accuracy":[],"trial_type":"survey","trial_index":39,"time_elapsed":227384,"internal_node_id":"0.0-3.0-1.8","prolific_id":"5e65531ade78962d424730a3","session_id":"643c24b70ec87e381ebc25bb","study_id":"64370a36d30bfa807bc7e43c"},{"rt":null,"stimulus":"\n\t\t\t<div class=\"flip_card\">\n\t\t\t\t<div class=\"flip_card_inner\">\n\t\t\t\t\t<div class=\"flip_card_front\">\n\t\t\t\t\t\t<img src=img/29.png>\n\t\t\t\t\t</div>\n\t\t\t\t\t<div class=\"flip_card_back\">\n\t\t\t\t\t\t<h2>How many main islands make up Japan?</h2>\n\t\t\t\t\t\t<br>\n\t\t\t\t\t\t<p>Answer: <strong>4</strong></p>\n\t\t\t\t\t</div>\n\t\t\t\t</div>\n\t\t\t</div>\n\t\t\t","response":null,"trial_type":"html-keyboard-response","trial_index":40,"time_elapsed":232386,"internal_node_id":"0.0-3.0-2.8","prolific_id":"5e65531ade78962d424730a3","session_id":"643c24b70ec87e381ebc25bb","study_id":"64370a36d30bfa807bc7e43c"},{"rt":1936,"stimulus":"\n\t\t\t\t\t<div>\n\t\t\t\t\t<h2>Trial 9 is over</h2>\n\t\t\t\t\t<p>Press <span style=\"color: red\"><strong>any key</strong></span> to continue to the next trial</p>\n\t\t\t\t\t</div>\n\t\t\t\t","response":" ","trial_type":"html-keyboard-response","trial_index":41,"time_elapsed":234323,"internal_node_id":"0.0-3.0-3.8","prolific_id":"5e65531ade78962d424730a3","session_id":"643c24b70ec87e381ebc25bb","study_id":"64370a36d30bfa807bc7e43c"},{"rt":7784,"response":{"prediction":"11"},"trial_type":"survey-text","trial_index":42,"time_elapsed":242109,"internal_node_id":"0.0-3.0-0.9","prolific_id":"5e65531ade78962d424730a3","session_id":"643c24b70ec87e381ebc25bb","study_id":"64370a36d30bfa807bc7e43c"},{"rt":4563,"response":{"prior knowledge":5,"curiosity":3},"accuracy":[],"trial_type":"survey","trial_index":43,"time_elapsed":246688,"internal_node_id":"0.0-3.0-1.9","prolific_id":"5e65531ade78962d424730a3","session_id":"643c24b70ec87e381ebc25bb","study_id":"64370a36d30bfa807bc7e43c"},{"rt":null,"stimulus":"\n\t\t\t<div class=\"flip_card\">\n\t\t\t\t<div class=\"flip_card_inner\">\n\t\t\t\t\t<div class=\"flip_card_front\">\n\t\t\t\t\t\t<img src=img/19.png>\n\t\t\t\t\t</div>\n\t\t\t\t\t<div class=\"flip_card_back\">\n\t\t\t\t\t\t<h2>How many soccer players should each team have on the field at the start of each match?</h2>\n\t\t\t\t\t\t<br>\n\t\t\t\t\t\t<p>Answer: <strong>11</strong></p>\n\t\t\t\t\t</div>\n\t\t\t\t</div>\n\t\t\t</div>\n\t\t\t","response":null,"trial_type":"html-keyboard-response","trial_index":44,"time_elapsed":251690,"internal_node_id":"0.0-3.0-2.9","prolific_id":"5e65531ade78962d424730a3","session_id":"643c24b70ec87e381ebc25bb","study_id":"64370a36d30bfa807bc7e43c"},{"rt":1288,"stimulus":"\n\t\t\t\t\t<div>\n\t\t\t\t\t<h2>Trial 10 is over</h2>\n\t\t\t\t\t<p>Press <span style=\"color: red\"><strong>any key</strong></span> to continue to the next trial</p>\n\t\t\t\t\t</div>\n\t\t\t\t","response":" ","trial_type":"html-keyboard-response","trial_index":45,"time_elapsed":252978,"internal_node_id":"0.0-3.0-3.9","prolific_id":"5e65531ade78962d424730a3","session_id":"643c24b70ec87e381ebc25bb","study_id":"64370a36d30bfa807bc7e43c"},{"rt":8648,"response":{"prediction":"230"},"trial_type":"survey-text","trial_index":46,"time_elapsed":261629,"internal_node_id":"0.0-3.0-0.10","prolific_id":"5e65531ade78962d424730a3","session_id":"643c24b70ec87e381ebc25bb","study_id":"64370a36d30bfa807bc7e43c"},{"rt":3804,"response":{"prior knowledge":3,"curiosity":4},"accuracy":[],"trial_type":"survey","trial_index":47,"time_elapsed":265448,"internal_node_id":"0.0-3.0-1.10","prolific_id":"5e65531ade78962d424730a3","session_id":"643c24b70ec87e381ebc25bb","study_id":"64370a36d30bfa807bc7e43c"},{"rt":null,"stimulus":"\n\t\t\t<div class=\"flip_card\">\n\t\t\t\t<div class=\"flip_card_inner\">\n\t\t\t\t\t<div class=\"flip_card_front\">\n\t\t\t\t\t\t<img src=img/22.png>\n\t\t\t\t\t</div>\n\t\t\t\t\t<div class=\"flip_card_back\">\n\t\t\t\t\t\t<h2>How many bones is a human baby born with?</h2>\n\t\t\t\t\t\t<br>\n\t\t\t\t\t\t<p>Answer: <strong>300</strong></p>\n\t\t\t\t\t</div>\n\t\t\t\t</div>\n\t\t\t</div>\n\t\t\t","response":null,"trial_type":"html-keyboard-response","trial_index":48,"time_elapsed":270459,"internal_node_id":"0.0-3.0-2.10","prolific_id":"5e65531ade78962d424730a3","session_id":"643c24b70ec87e381ebc25bb","study_id":"64370a36d30bfa807bc7e43c"},{"rt":1639,"stimulus":"\n\t\t\t\t\t<div>\n\t\t\t\t\t<h2>Trial 11 is over</h2>\n\t\t\t\t\t<p>Press <span style=\"color: red\"><strong>any key</strong></span> to continue to the next trial</p>\n\t\t\t\t\t</div>\n\t\t\t\t","response":" ","trial_type":"html-keyboard-response","trial_index":49,"time_elapsed":272098,"internal_node_id":"0.0-3.0-3.10","prolific_id":"5e65531ade78962d424730a3","session_id":"643c24b70ec87e381ebc25bb","study_id":"64370a36d30bfa807bc7e43c"},{"rt":6792,"response":{"prediction":"1986"},"trial_type":"survey-text","trial_index":50,"time_elapsed":278893,"internal_node_id":"0.0-3.0-0.11","prolific_id":"5e65531ade78962d424730a3","session_id":"643c24b70ec87e381ebc25bb","study_id":"64370a36d30bfa807bc7e43c"},{"rt":4155,"response":{"prior knowledge":2,"curiosity":4},"accuracy":[],"trial_type":"survey","trial_index":51,"time_elapsed":283063,"internal_node_id":"0.0-3.0-1.11","prolific_id":"5e65531ade78962d424730a3","session_id":"643c24b70ec87e381ebc25bb","study_id":"64370a36d30bfa807bc7e43c"},{"rt":null,"stimulus":"\n\t\t\t<div class=\"flip_card\">\n\t\t\t\t<div class=\"flip_card_inner\">\n\t\t\t\t\t<div class=\"flip_card_front\">\n\t\t\t\t\t\t<img src=img/5.png>\n\t\t\t\t\t</div>\n\t\t\t\t\t<div class=\"flip_card_back\">\n\t\t\t\t\t\t<h2>What year did the Berlin Wall fall?</h2>\n\t\t\t\t\t\t<br>\n\t\t\t\t\t\t<p>Answer: <strong>1989</strong></p>\n\t\t\t\t\t</div>\n\t\t\t\t</div>\n\t\t\t</div>\n\t\t\t","response":null,"trial_type":"html-keyboard-response","trial_index":52,"time_elapsed":288069,"internal_node_id":"0.0-3.0-2.11","prolific_id":"5e65531ade78962d424730a3","session_id":"643c24b70ec87e381ebc25bb","study_id":"64370a36d30bfa807bc7e43c"},{"rt":1717,"stimulus":"\n\t\t\t\t\t<div>\n\t\t\t\t\t<h2>Trial 12 is over</h2>\n\t\t\t\t\t<p>Press <span style=\"color: red\"><strong>any key</strong></span> to continue to the next trial</p>\n\t\t\t\t\t</div>\n\t\t\t\t","response":" ","trial_type":"html-keyboard-response","trial_index":53,"time_elapsed":289786,"internal_node_id":"0.0-3.0-3.11","prolific_id":"5e65531ade78962d424730a3","session_id":"643c24b70ec87e381ebc25bb","study_id":"64370a36d30bfa807bc7e43c"},{"rt":6919,"response":{"prediction":"12"},"trial_type":"survey-text","trial_index":54,"time_elapsed":296709,"internal_node_id":"0.0-3.0-0.12","prolific_id":"5e65531ade78962d424730a3","session_id":"643c24b70ec87e381ebc25bb","study_id":"64370a36d30bfa807bc7e43c"},{"rt":4124,"response":{"prior knowledge":0,"curiosity":4},"accuracy":[],"trial_type":"survey","trial_index":55,"time_elapsed":300847,"internal_node_id":"0.0-3.0-1.12","prolific_id":"5e65531ade78962d424730a3","session_id":"643c24b70ec87e381ebc25bb","study_id":"64370a36d30bfa807bc7e43c"},{"rt":null,"stimulus":"\n\t\t\t<div class=\"flip_card\">\n\t\t\t\t<div class=\"flip_card_inner\">\n\t\t\t\t\t<div class=\"flip_card_front\">\n\t\t\t\t\t\t<img src=img/1.png>\n\t\t\t\t\t</div>\n\t\t\t\t\t<div class=\"flip_card_back\">\n\t\t\t\t\t\t<h2>How many different animals (real or imaginary) are represented in the Chinese calendar?</h2>\n\t\t\t\t\t\t<br>\n\t\t\t\t\t\t<p>Answer: <strong>12</strong></p>\n\t\t\t\t\t</div>\n\t\t\t\t</div>\n\t\t\t</div>\n\t\t\t","response":null,"trial_type":"html-keyboard-response","trial_index":56,"time_elapsed":305848,"internal_node_id":"0.0-3.0-2.12","prolific_id":"5e65531ade78962d424730a3","session_id":"643c24b70ec87e381ebc25bb","study_id":"64370a36d30bfa807bc7e43c"},{"rt":1713,"stimulus":"\n\t\t\t\t\t<div>\n\t\t\t\t\t<h2>Trial 13 is over</h2>\n\t\t\t\t\t<p>Press <span style=\"color: red\"><strong>any key</strong></span> to continue to the next trial</p>\n\t\t\t\t\t</div>\n\t\t\t\t","response":" ","trial_type":"html-keyboard-response","trial_index":57,"time_elapsed":307562,"internal_node_id":"0.0-3.0-3.12","prolific_id":"5e65531ade78962d424730a3","session_id":"643c24b70ec87e381ebc25bb","study_id":"64370a36d30bfa807bc7e43c"},{"rt":4616,"response":{"prediction":"3"},"trial_type":"survey-text","trial_index":58,"time_elapsed":312180,"internal_node_id":"0.0-3.0-0.13","prolific_id":"5e65531ade78962d424730a3","session_id":"643c24b70ec87e381ebc25bb","study_id":"64370a36d30bfa807bc7e43c"},{"rt":3060,"response":{"prior knowledge":1,"curiosity":4},"accuracy":[],"trial_type":"survey","trial_index":59,"time_elapsed":315255,"internal_node_id":"0.0-3.0-1.13","prolific_id":"5e65531ade78962d424730a3","session_id":"643c24b70ec87e381ebc25bb","study_id":"64370a36d30bfa807bc7e43c"},{"rt":null,"stimulus":"\n\t\t\t<div class=\"flip_card\">\n\t\t\t\t<div class=\"flip_card_inner\">\n\t\t\t\t\t<div class=\"flip_card_front\">\n\t\t\t\t\t\t<img src=img/9.png>\n\t\t\t\t\t</div>\n\t\t\t\t\t<div class=\"flip_card_back\">\n\t\t\t\t\t\t<h2>How many books are in the Catholic Bible?</h2>\n\t\t\t\t\t\t<br>\n\t\t\t\t\t\t<p>Answer: <strong>73</strong></p>\n\t\t\t\t\t</div>\n\t\t\t\t</div>\n\t\t\t</div>\n\t\t\t","response":null,"trial_type":"html-keyboard-response","trial_index":60,"time_elapsed":320263,"internal_node_id":"0.0-3.0-2.13","prolific_id":"5e65531ade78962d424730a3","session_id":"643c24b70ec87e381ebc25bb","study_id":"64370a36d30bfa807bc7e43c"},{"rt":1690,"stimulus":"\n\t\t\t\t\t<div>\n\t\t\t\t\t<h2>Trial 14 is over</h2>\n\t\t\t\t\t<p>Press <span style=\"color: red\"><strong>any key</strong></span> to continue to the next trial</p>\n\t\t\t\t\t</div>\n\t\t\t\t","response":" ","trial_type":"html-keyboard-response","trial_index":61,"time_elapsed":321954,"internal_node_id":"0.0-3.0-3.13","prolific_id":"5e65531ade78962d424730a3","session_id":"643c24b70ec87e381ebc25bb","study_id":"64370a36d30bfa807bc7e43c"},{"rt":9344,"response":{"prediction":"50"},"trial_type":"survey-text","trial_index":62,"time_elapsed":331300,"internal_node_id":"0.0-3.0-0.14","prolific_id":"5e65531ade78962d424730a3","session_id":"643c24b70ec87e381ebc25bb","study_id":"64370a36d30bfa807bc7e43c"},{"rt":3396,"response":{"prior knowledge":1,"curiosity":5},"accuracy":[],"trial_type":"survey","trial_index":63,"time_elapsed":334711,"internal_node_id":"0.0-3.0-1.14","prolific_id":"5e65531ade78962d424730a3","session_id":"643c24b70ec87e381ebc25bb","study_id":"64370a36d30bfa807bc7e43c"},{"rt":null,"stimulus":"\n\t\t\t<div class=\"flip_card\">\n\t\t\t\t<div class=\"flip_card_inner\">\n\t\t\t\t\t<div class=\"flip_card_front\">\n\t\t\t\t\t\t<img src=img/30.png>\n\t\t\t\t\t</div>\n\t\t\t\t\t<div class=\"flip_card_back\">\n\t\t\t\t\t\t<h2>How many countries are in Africa?</h2>\n\t\t\t\t\t\t<br>\n\t\t\t\t\t\t<p>Answer: <strong>54</strong></p>\n\t\t\t\t\t</div>\n\t\t\t\t</div>\n\t\t\t</div>\n\t\t\t","response":null,"trial_type":"html-keyboard-response","trial_index":64,"time_elapsed":339713,"internal_node_id":"0.0-3.0-2.14","prolific_id":"5e65531ade78962d424730a3","session_id":"643c24b70ec87e381ebc25bb","study_id":"64370a36d30bfa807bc7e43c"},{"rt":1464,"stimulus":"\n\t\t\t\t\t<div>\n\t\t\t\t\t<h2>Trial 15 is over</h2>\n\t\t\t\t\t<p>Press <span style=\"color: red\"><strong>any key</strong></span> to continue to the next trial</p>\n\t\t\t\t\t</div>\n\t\t\t\t","response":" ","trial_type":"html-keyboard-response","trial_index":65,"time_elapsed":341178,"internal_node_id":"0.0-3.0-3.14","prolific_id":"5e65531ade78962d424730a3","session_id":"643c24b70ec87e381ebc25bb","study_id":"64370a36d30bfa807bc7e43c"},{"rt":6392,"response":{"prediction":"3"},"trial_type":"survey-text","trial_index":66,"time_elapsed":347572,"internal_node_id":"0.0-3.0-0.15","prolific_id":"5e65531ade78962d424730a3","session_id":"643c24b70ec87e381ebc25bb","study_id":"64370a36d30bfa807bc7e43c"},{"rt":3608,"response":{"prior knowledge":0,"curiosity":3},"accuracy":[],"trial_type":"survey","trial_index":67,"time_elapsed":351199,"internal_node_id":"0.0-3.0-1.15","prolific_id":"5e65531ade78962d424730a3","session_id":"643c24b70ec87e381ebc25bb","study_id":"64370a36d30bfa807bc7e43c"},{"rt":null,"stimulus":"\n\t\t\t<div class=\"flip_card\">\n\t\t\t\t<div class=\"flip_card_inner\">\n\t\t\t\t\t<div class=\"flip_card_front\">\n\t\t\t\t\t\t<img src=img/15.png>\n\t\t\t\t\t</div>\n\t\t\t\t\t<div class=\"flip_card_back\">\n\t\t\t\t\t\t<h2>How many countries have territory in the Arctic Circle?</h2>\n\t\t\t\t\t\t<br>\n\t\t\t\t\t\t<p>Answer: <strong>8</strong></p>\n\t\t\t\t\t</div>\n\t\t\t\t</div>\n\t\t\t</div>\n\t\t\t","response":null,"trial_type":"html-keyboard-response","trial_index":68,"time_elapsed":356214,"internal_node_id":"0.0-3.0-2.15","prolific_id":"5e65531ade78962d424730a3","session_id":"643c24b70ec87e381ebc25bb","study_id":"64370a36d30bfa807bc7e43c"},{"rt":1604,"stimulus":"\n\t\t\t\t\t<div>\n\t\t\t\t\t<h2>Trial 16 is over</h2>\n\t\t\t\t\t<p>Press <span style=\"color: red\"><strong>any key</strong></span> to continue to the next trial</p>\n\t\t\t\t\t</div>\n\t\t\t\t","response":" ","trial_type":"html-keyboard-response","trial_index":69,"time_elapsed":357818,"internal_node_id":"0.0-3.0-3.15","prolific_id":"5e65531ade78962d424730a3","session_id":"643c24b70ec87e381ebc25bb","study_id":"64370a36d30bfa807bc7e43c"},{"rt":5447,"response":{"prediction":"20"},"trial_type":"survey-text","trial_index":70,"time_elapsed":363268,"internal_node_id":"0.0-3.0-0.16","prolific_id":"5e65531ade78962d424730a3","session_id":"643c24b70ec87e381ebc25bb","study_id":"64370a36d30bfa807bc7e43c"},{"rt":3812,"response":{"prior knowledge":0,"curiosity":3},"accuracy":[],"trial_type":"survey","trial_index":71,"time_elapsed":367095,"internal_node_id":"0.0-3.0-1.16","prolific_id":"5e65531ade78962d424730a3","session_id":"643c24b70ec87e381ebc25bb","study_id":"64370a36d30bfa807bc7e43c"},{"rt":null,"stimulus":"\n\t\t\t<div class=\"flip_card\">\n\t\t\t\t<div class=\"flip_card_inner\">\n\t\t\t\t\t<div class=\"flip_card_front\">\n\t\t\t\t\t\t<img src=img/28.png>\n\t\t\t\t\t</div>\n\t\t\t\t\t<div class=\"flip_card_back\">\n\t\t\t\t\t\t<h2>How many books has Stephen King published?</h2>\n\t\t\t\t\t\t<br>\n\t\t\t\t\t\t<p>Answer: <strong>65</strong></p>\n\t\t\t\t\t</div>\n\t\t\t\t</div>\n\t\t\t</div>\n\t\t\t","response":null,"trial_type":"html-keyboard-response","trial_index":72,"time_elapsed":372107,"internal_node_id":"0.0-3.0-2.16","prolific_id":"5e65531ade78962d424730a3","session_id":"643c24b70ec87e381ebc25bb","study_id":"64370a36d30bfa807bc7e43c"},{"rt":1182,"stimulus":"\n\t\t\t\t\t<div>\n\t\t\t\t\t<h2>Trial 17 is over</h2>\n\t\t\t\t\t<p>Press <span style=\"color: red\"><strong>any key</strong></span> to continue to the next trial</p>\n\t\t\t\t\t</div>\n\t\t\t\t","response":" ","trial_type":"html-keyboard-response","trial_index":73,"time_elapsed":373290,"internal_node_id":"0.0-3.0-3.16","prolific_id":"5e65531ade78962d424730a3","session_id":"643c24b70ec87e381ebc25bb","study_id":"64370a36d30bfa807bc7e43c"},{"rt":10600,"response":{"prediction":"12"},"trial_type":"survey-text","trial_index":74,"time_elapsed":383892,"internal_node_id":"0.0-3.0-0.17","prolific_id":"5e65531ade78962d424730a3","session_id":"643c24b70ec87e381ebc25bb","study_id":"64370a36d30bfa807bc7e43c"},{"rt":4490,"response":{"prior knowledge":0,"curiosity":3},"accuracy":[],"trial_type":"survey","trial_index":75,"time_elapsed":388399,"internal_node_id":"0.0-3.0-1.17","prolific_id":"5e65531ade78962d424730a3","session_id":"643c24b70ec87e381ebc25bb","study_id":"64370a36d30bfa807bc7e43c"},{"rt":null,"stimulus":"\n\t\t\t<div class=\"flip_card\">\n\t\t\t\t<div class=\"flip_card_inner\">\n\t\t\t\t\t<div class=\"flip_card_front\">\n\t\t\t\t\t\t<img src=img/21.png>\n\t\t\t\t\t</div>\n\t\t\t\t\t<div class=\"flip_card_back\">\n\t\t\t\t\t\t<h2>How many single hand gestures, or mudras, are used in Indian classical dance?</h2>\n\t\t\t\t\t\t<br>\n\t\t\t\t\t\t<p>Answer: <strong>28</strong></p>\n\t\t\t\t\t</div>\n\t\t\t\t</div>\n\t\t\t</div>\n\t\t\t","response":null,"trial_type":"html-keyboard-response","trial_index":76,"time_elapsed":393401,"internal_node_id":"0.0-3.0-2.17","prolific_id":"5e65531ade78962d424730a3","session_id":"643c24b70ec87e381ebc25bb","study_id":"64370a36d30bfa807bc7e43c"},{"rt":1480,"stimulus":"\n\t\t\t\t\t<div>\n\t\t\t\t\t<h2>Trial 18 is over</h2>\n\t\t\t\t\t<p>Press <span style=\"color: red\"><strong>any key</strong></span> to continue to the next trial</p>\n\t\t\t\t\t</div>\n\t\t\t\t","response":" ","trial_type":"html-keyboard-response","trial_index":77,"time_elapsed":394882,"internal_node_id":"0.0-3.0-3.17","prolific_id":"5e65531ade78962d424730a3","session_id":"643c24b70ec87e381ebc25bb","study_id":"64370a36d30bfa807bc7e43c"},{"rt":8384,"response":{"prediction":"1940"},"trial_type":"survey-text","trial_index":78,"time_elapsed":403268,"internal_node_id":"0.0-3.0-0.18","prolific_id":"5e65531ade78962d424730a3","session_id":"643c24b70ec87e381ebc25bb","study_id":"64370a36d30bfa807bc7e43c"},{"rt":3476,"response":{"prior knowledge":0,"curiosity":3},"accuracy":[],"trial_type":"survey","trial_index":79,"time_elapsed":406758,"internal_node_id":"0.0-3.0-1.18","prolific_id":"5e65531ade78962d424730a3","session_id":"643c24b70ec87e381ebc25bb","study_id":"64370a36d30bfa807bc7e43c"},{"rt":null,"stimulus":"\n\t\t\t<div class=\"flip_card\">\n\t\t\t\t<div class=\"flip_card_inner\">\n\t\t\t\t\t<div class=\"flip_card_front\">\n\t\t\t\t\t\t<img src=img/26.png>\n\t\t\t\t\t</div>\n\t\t\t\t\t<div class=\"flip_card_back\">\n\t\t\t\t\t\t<h2>In what year was the Mexican artist Frida Kahlo born?</h2>\n\t\t\t\t\t\t<br>\n\t\t\t\t\t\t<p>Answer: <strong>1907</strong></p>\n\t\t\t\t\t</div>\n\t\t\t\t</div>\n\t\t\t</div>\n\t\t\t","response":null,"trial_type":"html-keyboard-response","trial_index":80,"time_elapsed":411770,"internal_node_id":"0.0-3.0-2.18","prolific_id":"5e65531ade78962d424730a3","session_id":"643c24b70ec87e381ebc25bb","study_id":"64370a36d30bfa807bc7e43c"},{"rt":1422,"stimulus":"\n\t\t\t\t\t<div>\n\t\t\t\t\t<h2>Trial 19 is over</h2>\n\t\t\t\t\t<p>Press <span style=\"color: red\"><strong>any key</strong></span> to continue to the next trial</p>\n\t\t\t\t\t</div>\n\t\t\t\t","response":" ","trial_type":"html-keyboard-response","trial_index":81,"time_elapsed":413193,"internal_node_id":"0.0-3.0-3.18","prolific_id":"5e65531ade78962d424730a3","session_id":"643c24b70ec87e381ebc25bb","study_id":"64370a36d30bfa807bc7e43c"},{"rt":5016,"response":{"prediction":"5000"},"trial_type":"survey-text","trial_index":82,"time_elapsed":418211,"internal_node_id":"0.0-3.0-0.19","prolific_id":"5e65531ade78962d424730a3","session_id":"643c24b70ec87e381ebc25bb","study_id":"64370a36d30bfa807bc7e43c"},{"rt":2900,"response":{"prior knowledge":1,"curiosity":4},"accuracy":[],"trial_type":"survey","trial_index":83,"time_elapsed":421127,"internal_node_id":"0.0-3.0-1.19","prolific_id":"5e65531ade78962d424730a3","session_id":"643c24b70ec87e381ebc25bb","study_id":"64370a36d30bfa807bc7e43c"},{"rt":null,"stimulus":"\n\t\t\t<div class=\"flip_card\">\n\t\t\t\t<div class=\"flip_card_inner\">\n\t\t\t\t\t<div class=\"flip_card_front\">\n\t\t\t\t\t\t<img src=img/13.png>\n\t\t\t\t\t</div>\n\t\t\t\t\t<div class=\"flip_card_back\">\n\t\t\t\t\t\t<h2>How long is the Great Wall of China (in miles)?</h2>\n\t\t\t\t\t\t<br>\n\t\t\t\t\t\t<p>Answer: <strong>13171</strong></p>\n\t\t\t\t\t</div>\n\t\t\t\t</div>\n\t\t\t</div>\n\t\t\t","response":null,"trial_type":"html-keyboard-response","trial_index":84,"time_elapsed":426129,"internal_node_id":"0.0-3.0-2.19","prolific_id":"5e65531ade78962d424730a3","session_id":"643c24b70ec87e381ebc25bb","study_id":"64370a36d30bfa807bc7e43c"},{"rt":1368,"stimulus":"\n\t\t\t\t\t<div>\n\t\t\t\t\t<h2>Trial 20 is over</h2>\n\t\t\t\t\t<p>Press <span style=\"color: red\"><strong>any key</strong></span> to continue to the next trial</p>\n\t\t\t\t\t</div>\n\t\t\t\t","response":" ","trial_type":"html-keyboard-response","trial_index":85,"time_elapsed":427497,"internal_node_id":"0.0-3.0-3.19","prolific_id":"5e65531ade78962d424730a3","session_id":"643c24b70ec87e381ebc25bb","study_id":"64370a36d30bfa807bc7e43c"},{"rt":5616,"response":{"prediction":"15"},"trial_type":"survey-text","trial_index":86,"time_elapsed":433115,"internal_node_id":"0.0-3.0-0.20","prolific_id":"5e65531ade78962d424730a3","session_id":"643c24b70ec87e381ebc25bb","study_id":"64370a36d30bfa807bc7e43c"},{"rt":3764,"response":{"prior knowledge":0,"curiosity":4},"accuracy":[],"trial_type":"survey","trial_index":87,"time_elapsed":436894,"internal_node_id":"0.0-3.0-1.20","prolific_id":"5e65531ade78962d424730a3","session_id":"643c24b70ec87e381ebc25bb","study_id":"64370a36d30bfa807bc7e43c"},{"rt":null,"stimulus":"\n\t\t\t<div class=\"flip_card\">\n\t\t\t\t<div class=\"flip_card_inner\">\n\t\t\t\t\t<div class=\"flip_card_front\">\n\t\t\t\t\t\t<img src=img/25.png>\n\t\t\t\t\t</div>\n\t\t\t\t\t<div class=\"flip_card_back\">\n\t\t\t\t\t\t<h2>How much is in a Baker's Dozen?</h2>\n\t\t\t\t\t\t<br>\n\t\t\t\t\t\t<p>Answer: <strong>13</strong></p>\n\t\t\t\t\t</div>\n\t\t\t\t</div>\n\t\t\t</div>\n\t\t\t","response":null,"trial_type":"html-keyboard-response","trial_index":88,"time_elapsed":441898,"internal_node_id":"0.0-3.0-2.20","prolific_id":"5e65531ade78962d424730a3","session_id":"643c24b70ec87e381ebc25bb","study_id":"64370a36d30bfa807bc7e43c"},{"rt":1086,"stimulus":"\n\t\t\t\t\t<div>\n\t\t\t\t\t<h2>Trial 21 is over</h2>\n\t\t\t\t\t<p>Press <span style=\"color: red\"><strong>any key</strong></span> to continue to the next trial</p>\n\t\t\t\t\t</div>\n\t\t\t\t","response":" ","trial_type":"html-keyboard-response","trial_index":89,"time_elapsed":442985,"internal_node_id":"0.0-3.0-3.20","prolific_id":"5e65531ade78962d424730a3","session_id":"643c24b70ec87e381ebc25bb","study_id":"64370a36d30bfa807bc7e43c"},{"rt":5600,"response":{"prediction":"13"},"trial_type":"survey-text","trial_index":90,"time_elapsed":448587,"internal_node_id":"0.0-3.0-0.21","prolific_id":"5e65531ade78962d424730a3","session_id":"643c24b70ec87e381ebc25bb","study_id":"64370a36d30bfa807bc7e43c"},{"rt":2956,"response":{"prior knowledge":0,"curiosity":5},"accuracy":[],"trial_type":"survey","trial_index":91,"time_elapsed":451558,"internal_node_id":"0.0-3.0-1.21","prolific_id":"5e65531ade78962d424730a3","session_id":"643c24b70ec87e381ebc25bb","study_id":"64370a36d30bfa807bc7e43c"},{"rt":null,"stimulus":"\n\t\t\t<div class=\"flip_card\">\n\t\t\t\t<div class=\"flip_card_inner\">\n\t\t\t\t\t<div class=\"flip_card_front\">\n\t\t\t\t\t\t<img src=img/2.png>\n\t\t\t\t\t</div>\n\t\t\t\t\t<div class=\"flip_card_back\">\n\t\t\t\t\t\t<h2>How many constellations are there?</h2>\n\t\t\t\t\t\t<br>\n\t\t\t\t\t\t<p>Answer: <strong>88</strong></p>\n\t\t\t\t\t</div>\n\t\t\t\t</div>\n\t\t\t</div>\n\t\t\t","response":null,"trial_type":"html-keyboard-response","trial_index":92,"time_elapsed":456563,"internal_node_id":"0.0-3.0-2.21","prolific_id":"5e65531ade78962d424730a3","session_id":"643c24b70ec87e381ebc25bb","study_id":"64370a36d30bfa807bc7e43c"},{"rt":1110,"stimulus":"\n\t\t\t\t\t<div>\n\t\t\t\t\t<h2>Trial 22 is over</h2>\n\t\t\t\t\t<p>Press <span style=\"color: red\"><strong>any key</strong></span> to continue to the next trial</p>\n\t\t\t\t\t</div>\n\t\t\t\t","response":" ","trial_type":"html-keyboard-response","trial_index":93,"time_elapsed":457673,"internal_node_id":"0.0-3.0-3.21","prolific_id":"5e65531ade78962d424730a3","session_id":"643c24b70ec87e381ebc25bb","study_id":"64370a36d30bfa807bc7e43c"},{"rt":5608,"response":{"prediction":"44"},"trial_type":"survey-text","trial_index":94,"time_elapsed":463284,"internal_node_id":"0.0-3.0-0.22","prolific_id":"5e65531ade78962d424730a3","session_id":"643c24b70ec87e381ebc25bb","study_id":"64370a36d30bfa807bc7e43c"},{"rt":4539,"response":{"prior knowledge":0,"curiosity":4},"accuracy":[],"trial_type":"survey","trial_index":95,"time_elapsed":467838,"internal_node_id":"0.0-3.0-1.22","prolific_id":"5e65531ade78962d424730a3","session_id":"643c24b70ec87e381ebc25bb","study_id":"64370a36d30bfa807bc7e43c"},{"rt":null,"stimulus":"\n\t\t\t<div class=\"flip_card\">\n\t\t\t\t<div class=\"flip_card_inner\">\n\t\t\t\t\t<div class=\"flip_card_front\">\n\t\t\t\t\t\t<img src=img/23.png>\n\t\t\t\t\t</div>\n\t\t\t\t\t<div class=\"flip_card_back\">\n\t\t\t\t\t\t<h2>How old was King Tut when he died?</h2>\n\t\t\t\t\t\t<br>\n\t\t\t\t\t\t<p>Answer: <strong>19</strong></p>\n\t\t\t\t\t</div>\n\t\t\t\t</div>\n\t\t\t</div>\n\t\t\t","response":null,"trial_type":"html-keyboard-response","trial_index":96,"time_elapsed":472845,"internal_node_id":"0.0-3.0-2.22","prolific_id":"5e65531ade78962d424730a3","session_id":"643c24b70ec87e381ebc25bb","study_id":"64370a36d30bfa807bc7e43c"},{"rt":2955,"stimulus":"\n\t\t\t\t\t<div>\n\t\t\t\t\t<h2>Trial 23 is over</h2>\n\t\t\t\t\t<p>Press <span style=\"color: red\"><strong>any key</strong></span> to continue to the next trial</p>\n\t\t\t\t\t</div>\n\t\t\t\t","response":" ","trial_type":"html-keyboard-response","trial_index":97,"time_elapsed":475801,"internal_node_id":"0.0-3.0-3.22","prolific_id":"5e65531ade78962d424730a3","session_id":"643c24b70ec87e381ebc25bb","study_id":"64370a36d30bfa807bc7e43c"},{"rt":4608,"response":{"prediction":"5"},"trial_type":"survey-text","trial_index":98,"time_elapsed":480411,"internal_node_id":"0.0-3.0-0.23","prolific_id":"5e65531ade78962d424730a3","session_id":"643c24b70ec87e381ebc25bb","study_id":"64370a36d30bfa807bc7e43c"},{"rt":4116,"response":{"prior knowledge":5,"curiosity":2},"accuracy":[],"trial_type":"survey","trial_index":99,"time_elapsed":484542,"internal_node_id":"0.0-3.0-1.23","prolific_id":"5e65531ade78962d424730a3","session_id":"643c24b70ec87e381ebc25bb","study_id":"64370a36d30bfa807bc7e43c"},{"rt":null,"stimulus":"\n\t\t\t<div class=\"flip_card\">\n\t\t\t\t<div class=\"flip_card_inner\">\n\t\t\t\t\t<div class=\"flip_card_front\">\n\t\t\t\t\t\t<img src=img/7.png>\n\t\t\t\t\t</div>\n\t\t\t\t\t<div class=\"flip_card_back\">\n\t\t\t\t\t\t<h2>How many times a day do Muslims pray?</h2>\n\t\t\t\t\t\t<br>\n\t\t\t\t\t\t<p>Answer: <strong>5</strong></p>\n\t\t\t\t\t</div>\n\t\t\t\t</div>\n\t\t\t</div>\n\t\t\t","response":null,"trial_type":"html-keyboard-response","trial_index":100,"time_elapsed":489546,"internal_node_id":"0.0-3.0-2.23","prolific_id":"5e65531ade78962d424730a3","session_id":"643c24b70ec87e381ebc25bb","study_id":"64370a36d30bfa807bc7e43c"},{"rt":1239,"stimulus":"\n\t\t\t\t\t<div>\n\t\t\t\t\t<h2>Trial 24 is over</h2>\n\t\t\t\t\t<p>Press <span style=\"color: red\"><strong>any key</strong></span> to continue to the next trial</p>\n\t\t\t\t\t</div>\n\t\t\t\t","response":" ","trial_type":"html-keyboard-response","trial_index":101,"time_elapsed":490785,"internal_node_id":"0.0-3.0-3.23","prolific_id":"5e65531ade78962d424730a3","session_id":"643c24b70ec87e381ebc25bb","study_id":"64370a36d30bfa807bc7e43c"},{"rt":5720,"response":{"prediction":"115"},"trial_type":"survey-text","trial_index":102,"time_elapsed":496508,"internal_node_id":"0.0-3.0-0.24","prolific_id":"5e65531ade78962d424730a3","session_id":"643c24b70ec87e381ebc25bb","study_id":"64370a36d30bfa807bc7e43c"},{"rt":4196,"response":{"prior knowledge":1,"curiosity":4},"accuracy":[],"trial_type":"survey","trial_index":103,"time_elapsed":500718,"internal_node_id":"0.0-3.0-1.24","prolific_id":"5e65531ade78962d424730a3","session_id":"643c24b70ec87e381ebc25bb","study_id":"64370a36d30bfa807bc7e43c"},{"rt":null,"stimulus":"\n\t\t\t<div class=\"flip_card\">\n\t\t\t\t<div class=\"flip_card_inner\">\n\t\t\t\t\t<div class=\"flip_card_front\">\n\t\t\t\t\t\t<img src=img/6.png>\n\t\t\t\t\t</div>\n\t\t\t\t\t<div class=\"flip_card_back\">\n\t\t\t\t\t\t<h2>How many floors are in the Burj Khalifa, the tallest building in the world?</h2>\n\t\t\t\t\t\t<br>\n\t\t\t\t\t\t<p>Answer: <strong>163</strong></p>\n\t\t\t\t\t</div>\n\t\t\t\t</div>\n\t\t\t</div>\n\t\t\t","response":null,"trial_type":"html-keyboard-response","trial_index":104,"time_elapsed":505721,"internal_node_id":"0.0-3.0-2.24","prolific_id":"5e65531ade78962d424730a3","session_id":"643c24b70ec87e381ebc25bb","study_id":"64370a36d30bfa807bc7e43c"},{"rt":1168,"stimulus":"\n\t\t\t\t\t<div>\n\t\t\t\t\t<h2>Trial 25 is over</h2>\n\t\t\t\t\t<p>Press <span style=\"color: red\"><strong>any key</strong></span> to continue to the next trial</p>\n\t\t\t\t\t</div>\n\t\t\t\t","response":" ","trial_type":"html-keyboard-response","trial_index":105,"time_elapsed":506889,"internal_node_id":"0.0-3.0-3.24","prolific_id":"5e65531ade78962d424730a3","session_id":"643c24b70ec87e381ebc25bb","study_id":"64370a36d30bfa807bc7e43c"},{"rt":8960,"response":{"prediction":"80"},"trial_type":"survey-text","trial_index":106,"time_elapsed":515851,"internal_node_id":"0.0-3.0-0.25","prolific_id":"5e65531ade78962d424730a3","session_id":"643c24b70ec87e381ebc25bb","study_id":"64370a36d30bfa807bc7e43c"},{"rt":3316,"response":{"prior knowledge":0,"curiosity":3},"accuracy":[],"trial_type":"survey","trial_index":107,"time_elapsed":519182,"internal_node_id":"0.0-3.0-1.25","prolific_id":"5e65531ade78962d424730a3","session_id":"643c24b70ec87e381ebc25bb","study_id":"64370a36d30bfa807bc7e43c"},{"rt":null,"stimulus":"\n\t\t\t<div class=\"flip_card\">\n\t\t\t\t<div class=\"flip_card_inner\">\n\t\t\t\t\t<div class=\"flip_card_front\">\n\t\t\t\t\t\t<img src=img/14.png>\n\t\t\t\t\t</div>\n\t\t\t\t\t<div class=\"flip_card_back\">\n\t\t\t\t\t\t<h2>How many double stitches does a baseball have?</h2>\n\t\t\t\t\t\t<br>\n\t\t\t\t\t\t<p>Answer: <strong>108</strong></p>\n\t\t\t\t\t</div>\n\t\t\t\t</div>\n\t\t\t</div>\n\t\t\t","response":null,"trial_type":"html-keyboard-response","trial_index":108,"time_elapsed":524183,"internal_node_id":"0.0-3.0-2.25","prolific_id":"5e65531ade78962d424730a3","session_id":"643c24b70ec87e381ebc25bb","study_id":"64370a36d30bfa807bc7e43c"},{"rt":1169,"stimulus":"\n\t\t\t\t\t<div>\n\t\t\t\t\t<h2>Trial 26 is over</h2>\n\t\t\t\t\t<p>Press <span style=\"color: red\"><strong>any key</strong></span> to continue to the next trial</p>\n\t\t\t\t\t</div>\n\t\t\t\t","response":" ","trial_type":"html-keyboard-response","trial_index":109,"time_elapsed":525352,"internal_node_id":"0.0-3.0-3.25","prolific_id":"5e65531ade78962d424730a3","session_id":"643c24b70ec87e381ebc25bb","study_id":"64370a36d30bfa807bc7e43c"},{"rt":4480,"response":{"prediction":"1912"},"trial_type":"survey-text","trial_index":110,"time_elapsed":529835,"internal_node_id":"0.0-3.0-0.26","prolific_id":"5e65531ade78962d424730a3","session_id":"643c24b70ec87e381ebc25bb","study_id":"64370a36d30bfa807bc7e43c"},{"rt":2516,"response":{"prior knowledge":5,"curiosity":3},"accuracy":[],"trial_type":"survey","trial_index":111,"time_elapsed":532365,"internal_node_id":"0.0-3.0-1.26","prolific_id":"5e65531ade78962d424730a3","session_id":"643c24b70ec87e381ebc25bb","study_id":"64370a36d30bfa807bc7e43c"},{"rt":null,"stimulus":"\n\t\t\t<div class=\"flip_card\">\n\t\t\t\t<div class=\"flip_card_inner\">\n\t\t\t\t\t<div class=\"flip_card_front\">\n\t\t\t\t\t\t<img src=img/20.png>\n\t\t\t\t\t</div>\n\t\t\t\t\t<div class=\"flip_card_back\">\n\t\t\t\t\t\t<h2>What year did the titanic sink?</h2>\n\t\t\t\t\t\t<br>\n\t\t\t\t\t\t<p>Answer: <strong>1912</strong></p>\n\t\t\t\t\t</div>\n\t\t\t\t</div>\n\t\t\t</div>\n\t\t\t","response":null,"trial_type":"html-keyboard-response","trial_index":112,"time_elapsed":537379,"internal_node_id":"0.0-3.0-2.26","prolific_id":"5e65531ade78962d424730a3","session_id":"643c24b70ec87e381ebc25bb","study_id":"64370a36d30bfa807bc7e43c"},{"rt":1221,"stimulus":"\n\t\t\t\t\t<div>\n\t\t\t\t\t<h2>Trial 27 is over</h2>\n\t\t\t\t\t<p>Press <span style=\"color: red\"><strong>any key</strong></span> to continue to the next trial</p>\n\t\t\t\t\t</div>\n\t\t\t\t","response":" ","trial_type":"html-keyboard-response","trial_index":113,"time_elapsed":538601,"internal_node_id":"0.0-3.0-3.26","prolific_id":"5e65531ade78962d424730a3","session_id":"643c24b70ec87e381ebc25bb","study_id":"64370a36d30bfa807bc7e43c"},{"rt":3792,"response":{"prediction":"8"},"trial_type":"survey-text","trial_index":114,"time_elapsed":542395,"internal_node_id":"0.0-3.0-0.27","prolific_id":"5e65531ade78962d424730a3","session_id":"643c24b70ec87e381ebc25bb","study_id":"64370a36d30bfa807bc7e43c"},{"rt":3764,"response":{"prior knowledge":2,"curiosity":4},"accuracy":[],"trial_type":"survey","trial_index":115,"time_elapsed":546174,"internal_node_id":"0.0-3.0-1.27","prolific_id":"5e65531ade78962d424730a3","session_id":"643c24b70ec87e381ebc25bb","study_id":"64370a36d30bfa807bc7e43c"},{"rt":null,"stimulus":"\n\t\t\t<div class=\"flip_card\">\n\t\t\t\t<div class=\"flip_card_inner\">\n\t\t\t\t\t<div class=\"flip_card_front\">\n\t\t\t\t\t\t<img src=img/11.png>\n\t\t\t\t\t</div>\n\t\t\t\t\t<div class=\"flip_card_back\">\n\t\t\t\t\t\t<h2>How many moons does Neptune have?</h2>\n\t\t\t\t\t\t<br>\n\t\t\t\t\t\t<p>Answer: <strong>14</strong></p>\n\t\t\t\t\t</div>\n\t\t\t\t</div>\n\t\t\t</div>\n\t\t\t","response":null,"trial_type":"html-keyboard-response","trial_index":116,"time_elapsed":551175,"internal_node_id":"0.0-3.0-2.27","prolific_id":"5e65531ade78962d424730a3","session_id":"643c24b70ec87e381ebc25bb","study_id":"64370a36d30bfa807bc7e43c"},{"rt":1104,"stimulus":"\n\t\t\t\t\t<div>\n\t\t\t\t\t<h2>Trial 28 is over</h2>\n\t\t\t\t\t<p>Press <span style=\"color: red\"><strong>any key</strong></span> to continue to the next trial</p>\n\t\t\t\t\t</div>\n\t\t\t\t","response":" ","trial_type":"html-keyboard-response","trial_index":117,"time_elapsed":552281,"internal_node_id":"0.0-3.0-3.27","prolific_id":"5e65531ade78962d424730a3","session_id":"643c24b70ec87e381ebc25bb","study_id":"64370a36d30bfa807bc7e43c"},{"rt":7647,"response":{"prediction":"8000"},"trial_type":"survey-text","trial_index":118,"time_elapsed":559931,"internal_node_id":"0.0-3.0-0.28","prolific_id":"5e65531ade78962d424730a3","session_id":"643c24b70ec87e381ebc25bb","study_id":"64370a36d30bfa807bc7e43c"},{"rt":3724,"response":{"prior knowledge":2,"curiosity":5},"accuracy":[],"trial_type":"survey","trial_index":119,"time_elapsed":563669,"internal_node_id":"0.0-3.0-1.28","prolific_id":"5e65531ade78962d424730a3","session_id":"643c24b70ec87e381ebc25bb","study_id":"64370a36d30bfa807bc7e43c"},{"rt":null,"stimulus":"\n\t\t\t<div class=\"flip_card\">\n\t\t\t\t<div class=\"flip_card_inner\">\n\t\t\t\t\t<div class=\"flip_card_front\">\n\t\t\t\t\t\t<img src=img/10.png>\n\t\t\t\t\t</div>\n\t\t\t\t\t<div class=\"flip_card_back\">\n\t\t\t\t\t\t<h2>What is the diameter of Earth in miles?</h2>\n\t\t\t\t\t\t<br>\n\t\t\t\t\t\t<p>Answer: <strong>7917.5</strong></p>\n\t\t\t\t\t</div>\n\t\t\t\t</div>\n\t\t\t</div>\n\t\t\t","response":null,"trial_type":"html-keyboard-response","trial_index":120,"time_elapsed":568683,"internal_node_id":"0.0-3.0-2.28","prolific_id":"5e65531ade78962d424730a3","session_id":"643c24b70ec87e381ebc25bb","study_id":"64370a36d30bfa807bc7e43c"},{"rt":1684,"stimulus":"\n\t\t\t\t\t<div>\n\t\t\t\t\t<h2>Trial 29 is over</h2>\n\t\t\t\t\t<p>Press <span style=\"color: red\"><strong>any key</strong></span> to continue to the next trial</p>\n\t\t\t\t\t</div>\n\t\t\t\t","response":" ","trial_type":"html-keyboard-response","trial_index":121,"time_elapsed":570368,"internal_node_id":"0.0-3.0-3.28","prolific_id":"5e65531ade78962d424730a3","session_id":"643c24b70ec87e381ebc25bb","study_id":"64370a36d30bfa807bc7e43c"},{"rt":11520,"response":{"prediction":"500"},"trial_type":"survey-text","trial_index":122,"time_elapsed":581890,"internal_node_id":"0.0-3.0-0.29","prolific_id":"5e65531ade78962d424730a3","session_id":"643c24b70ec87e381ebc25bb","study_id":"64370a36d30bfa807bc7e43c"},{"rt":4955,"response":{"prior knowledge":1,"curiosity":4},"accuracy":[],"trial_type":"survey","trial_index":123,"time_elapsed":586861,"internal_node_id":"0.0-3.0-1.29","prolific_id":"5e65531ade78962d424730a3","session_id":"643c24b70ec87e381ebc25bb","study_id":"64370a36d30bfa807bc7e43c"},{"rt":null,"stimulus":"\n\t\t\t<div class=\"flip_card\">\n\t\t\t\t<div class=\"flip_card_inner\">\n\t\t\t\t\t<div class=\"flip_card_front\">\n\t\t\t\t\t\t<img src=img/18.png>\n\t\t\t\t\t</div>\n\t\t\t\t\t<div class=\"flip_card_back\">\n\t\t\t\t\t\t<h2>How many people are vegan globally (in millions)?</h2>\n\t\t\t\t\t\t<br>\n\t\t\t\t\t\t<p>Answer: <strong>79</strong></p>\n\t\t\t\t\t</div>\n\t\t\t\t</div>\n\t\t\t</div>\n\t\t\t","response":null,"trial_type":"html-keyboard-response","trial_index":124,"time_elapsed":591863,"internal_node_id":"0.0-3.0-2.29","prolific_id":"5e65531ade78962d424730a3","session_id":"643c24b70ec87e381ebc25bb","study_id":"64370a36d30bfa807bc7e43c"},{"rt":1184,"stimulus":"\n\t\t\t\t\t<div>\n\t\t\t\t\t<h2>Trial 30 is over</h2>\n\t\t\t\t\t<p>Press <span style=\"color: red\"><strong>any key</strong></span> to continue to the next trial</p>\n\t\t\t\t\t</div>\n\t\t\t\t","response":" ","trial_type":"html-keyboard-response","trial_index":125,"time_elapsed":593048,"internal_node_id":"0.0-3.0-3.29","prolific_id":"5e65531ade78962d424730a3","session_id":"643c24b70ec87e381ebc25bb","study_id":"64370a36d30bfa807bc7e43c"},{"rt":null,"stimulus":"\n\t\t\t<h2>Good job! You've finished the 30 trials:p</h2>\n\t\t\t<p>In the next session, you will see two cards on the screen in each trial.</p>\n\t\t\t<p>On one card is a pattern that you have seen before in the experiment,\n\t\t\t\tand on the other card is one you have not seen.</p><br>\n\t\t\t<p>Your task is to choose the one you think you <em>have</em> seen before for every trial.</p>\n\t\t\t<p>Press '<span style=\"color: red;\"><strong>F</strong></span>' to choose the card on the left,\n\t\t\t\tand '<span style=\"color: red;\"><strong>J</strong></span>' to choose the card on the right.</p>\n\t\t\t<p>Have fun!</p>\n\t\t\t<br>\n\t\t\t<p>The trials will begin in 30 seconds</p>\n\t\t\t","response":null,"trial_type":"html-keyboard-response","trial_index":126,"time_elapsed":623059,"internal_node_id":"0.0-4.0","prolific_id":"5e65531ade78962d424730a3","session_id":"643c24b70ec87e381ebc25bb","study_id":"64370a36d30bfa807bc7e43c"},{"rt":3195,"stimulus":"\n\t\t\t\t\t\t<div class=\"two_card_container\">\n\t\t\t\t\t\t<div class=\"card_container\">\n\t\t\t\t\t\t<img src=img/7.png>\n\t\t\t\t\t\t</div>\n\n\t\t\t\t\t\t<div class=\"card_container\">\n\t\t\t\t\t\t<img src=img/33.png>\n\t\t\t\t\t\t</div>","response":"f","task":"response","correct_response":"f","trial_type":"html-keyboard-response","trial_index":127,"time_elapsed":626256,"internal_node_id":"0.0-5.0-0.0","prolific_id":"5e65531ade78962d424730a3","session_id":"643c24b70ec87e381ebc25bb","study_id":"64370a36d30bfa807bc7e43c","correct":true},{"rt":null,"stimulus":"\n\t\t\t\t\t<p>Correct!</p>\n\t\t\t\t\t","response":null,"trial_type":"html-keyboard-response","trial_index":128,"time_elapsed":627261,"internal_node_id":"0.0-5.0-1.0","prolific_id":"5e65531ade78962d424730a3","session_id":"643c24b70ec87e381ebc25bb","study_id":"64370a36d30bfa807bc7e43c"},{"rt":1154,"stimulus":"\n\t\t\t\t\t\t<div class=\"two_card_container\">\n\t\t\t\t\t\t<div class=\"card_container\">\n\t\t\t\t\t\t<img src=img/34.png>\n\t\t\t\t\t\t</div>\n\n\t\t\t\t\t\t<div class=\"card_container\">\n\t\t\t\t\t\t<img src=img/22.png>\n\t\t\t\t\t\t</div>","response":"j","task":"response","correct_response":"j","trial_type":"html-keyboard-response","trial_index":129,"time_elapsed":628416,"internal_node_id":"0.0-5.0-0.1","prolific_id":"5e65531ade78962d424730a3","session_id":"643c24b70ec87e381ebc25bb","study_id":"64370a36d30bfa807bc7e43c","correct":true},{"rt":null,"stimulus":"\n\t\t\t\t\t<p>Correct!</p>\n\t\t\t\t\t","response":null,"trial_type":"html-keyboard-response","trial_index":130,"time_elapsed":629418,"internal_node_id":"0.0-5.0-1.1","prolific_id":"5e65531ade78962d424730a3","session_id":"643c24b70ec87e381ebc25bb","study_id":"64370a36d30bfa807bc7e43c"},{"rt":1524,"stimulus":"\n\t\t\t\t\t\t<div class=\"two_card_container\">\n\t\t\t\t\t\t<div class=\"card_container\">\n\t\t\t\t\t\t<img src=img/40.png>\n\t\t\t\t\t\t</div>\n\n\t\t\t\t\t\t<div class=\"card_container\">\n\t\t\t\t\t\t<img src=img/1.png>\n\t\t\t\t\t\t</div>","response":"f","task":"response","correct_response":"j","trial_type":"html-keyboard-response","trial_index":131,"time_elapsed":630944,"internal_node_id":"0.0-5.0-0.2","prolific_id":"5e65531ade78962d424730a3","session_id":"643c24b70ec87e381ebc25bb","study_id":"64370a36d30bfa807bc7e43c","correct":false},{"rt":null,"stimulus":"\n\t\t\t\t\t<p>Wrong answer</p>\n\t\t\t\t\t","response":null,"trial_type":"html-keyboard-response","trial_index":132,"time_elapsed":631957,"internal_node_id":"0.0-5.0-1.2","prolific_id":"5e65531ade78962d424730a3","session_id":"643c24b70ec87e381ebc25bb","study_id":"64370a36d30bfa807bc7e43c"},{"rt":977,"stimulus":"\n\t\t\t\t\t\t<div class=\"two_card_container\">\n\t\t\t\t\t\t<div class=\"card_container\">\n\t\t\t\t\t\t<img src=img/39.png>\n\t\t\t\t\t\t</div>\n\n\t\t\t\t\t\t<div class=\"card_container\">\n\t\t\t\t\t\t<img src=img/11.png>\n\t\t\t\t\t\t</div>","response":"j","task":"response","correct_response":"j","trial_type":"html-keyboard-response","trial_index":133,"time_elapsed":632936,"internal_node_id":"0.0-5.0-0.3","prolific_id":"5e65531ade78962d424730a3","session_id":"643c24b70ec87e381ebc25bb","study_id":"64370a36d30bfa807bc7e43c","correct":true},{"rt":null,"stimulus":"\n\t\t\t\t\t<p>Correct!</p>\n\t\t\t\t\t","response":null,"trial_type":"html-keyboard-response","trial_index":134,"time_elapsed":633943,"internal_node_id":"0.0-5.0-1.3","prolific_id":"5e65531ade78962d424730a3","session_id":"643c24b70ec87e381ebc25bb","study_id":"64370a36d30bfa807bc7e43c"},{"rt":1448,"stimulus":"\n\t\t\t\t\t\t<div class=\"two_card_container\">\n\t\t\t\t\t\t<div class=\"card_container\">\n\t\t\t\t\t\t<img src=img/25.png>\n\t\t\t\t\t\t</div>\n\n\t\t\t\t\t\t<div class=\"card_container\">\n\t\t\t\t\t\t<img src=img/31.png>\n\t\t\t\t\t\t</div>","response":"f","task":"response","correct_response":"f","trial_type":"html-keyboard-response","trial_index":135,"time_elapsed":635392,"internal_node_id":"0.0-5.0-0.4","prolific_id":"5e65531ade78962d424730a3","session_id":"643c24b70ec87e381ebc25bb","study_id":"64370a36d30bfa807bc7e43c","correct":true},{"rt":null,"stimulus":"\n\t\t\t\t\t<p>Correct!</p>\n\t\t\t\t\t","response":null,"trial_type":"html-keyboard-response","trial_index":136,"time_elapsed":636395,"internal_node_id":"0.0-5.0-1.4","prolific_id":"5e65531ade78962d424730a3","session_id":"643c24b70ec87e381ebc25bb","study_id":"64370a36d30bfa807bc7e43c"},{"rt":1036,"stimulus":"\n\t\t\t\t\t\t<div class=\"two_card_container\">\n\t\t\t\t\t\t<div class=\"card_container\">\n\t\t\t\t\t\t<img src=img/10.png>\n\t\t\t\t\t\t</div>\n\n\t\t\t\t\t\t<div class=\"card_container\">\n\t\t\t\t\t\t<img src=img/35.png>\n\t\t\t\t\t\t</div>","response":"f","task":"response","correct_response":"f","trial_type":"html-keyboard-response","trial_index":137,"time_elapsed":637432,"internal_node_id":"0.0-5.0-0.5","prolific_id":"5e65531ade78962d424730a3","session_id":"643c24b70ec87e381ebc25bb","study_id":"64370a36d30bfa807bc7e43c","correct":true},{"rt":null,"stimulus":"\n\t\t\t\t\t<p>Correct!</p>\n\t\t\t\t\t","response":null,"trial_type":"html-keyboard-response","trial_index":138,"time_elapsed":638441,"internal_node_id":"0.0-5.0-1.5","prolific_id":"5e65531ade78962d424730a3","session_id":"643c24b70ec87e381ebc25bb","study_id":"64370a36d30bfa807bc7e43c"},{"rt":990,"stimulus":"\n\t\t\t\t\t\t<div class=\"two_card_container\">\n\t\t\t\t\t\t<div class=\"card_container\">\n\t\t\t\t\t\t<img src=img/17.png>\n\t\t\t\t\t\t</div>\n\n\t\t\t\t\t\t<div class=\"card_container\">\n\t\t\t\t\t\t<img src=img/37.png>\n\t\t\t\t\t\t</div>","response":"f","task":"response","correct_response":"f","trial_type":"html-keyboard-response","trial_index":139,"time_elapsed":639432,"internal_node_id":"0.0-5.0-0.6","prolific_id":"5e65531ade78962d424730a3","session_id":"643c24b70ec87e381ebc25bb","study_id":"64370a36d30bfa807bc7e43c","correct":true},{"rt":null,"stimulus":"\n\t\t\t\t\t<p>Correct!</p>\n\t\t\t\t\t","response":null,"trial_type":"html-keyboard-response","trial_index":140,"time_elapsed":640436,"internal_node_id":"0.0-5.0-1.6","prolific_id":"5e65531ade78962d424730a3","session_id":"643c24b70ec87e381ebc25bb","study_id":"64370a36d30bfa807bc7e43c"},{"rt":1090,"stimulus":"\n\t\t\t\t\t\t<div class=\"two_card_container\">\n\t\t\t\t\t\t<div class=\"card_container\">\n\t\t\t\t\t\t<img src=img/23.png>\n\t\t\t\t\t\t</div>\n\n\t\t\t\t\t\t<div class=\"card_container\">\n\t\t\t\t\t\t<img src=img/32.png>\n\t\t\t\t\t\t</div>","response":"f","task":"response","correct_response":"f","trial_type":"html-keyboard-response","trial_index":141,"time_elapsed":641527,"internal_node_id":"0.0-5.0-0.7","prolific_id":"5e65531ade78962d424730a3","session_id":"643c24b70ec87e381ebc25bb","study_id":"64370a36d30bfa807bc7e43c","correct":true},{"rt":null,"stimulus":"\n\t\t\t\t\t<p>Correct!</p>\n\t\t\t\t\t","response":null,"trial_type":"html-keyboard-response","trial_index":142,"time_elapsed":642533,"internal_node_id":"0.0-5.0-1.7","prolific_id":"5e65531ade78962d424730a3","session_id":"643c24b70ec87e381ebc25bb","study_id":"64370a36d30bfa807bc7e43c"},{"rt":1194,"stimulus":"\n\t\t\t\t\t\t<div class=\"two_card_container\">\n\t\t\t\t\t\t<div class=\"card_container\">\n\t\t\t\t\t\t<img src=img/38.png>\n\t\t\t\t\t\t</div>\n\n\t\t\t\t\t\t<div class=\"card_container\">\n\t\t\t\t\t\t<img src=img/29.png>\n\t\t\t\t\t\t</div>","response":"f","task":"response","correct_response":"j","trial_type":"html-keyboard-response","trial_index":143,"time_elapsed":643727,"internal_node_id":"0.0-5.0-0.8","prolific_id":"5e65531ade78962d424730a3","session_id":"643c24b70ec87e381ebc25bb","study_id":"64370a36d30bfa807bc7e43c","correct":false},{"rt":null,"stimulus":"\n\t\t\t\t\t<p>Wrong answer</p>\n\t\t\t\t\t","response":null,"trial_type":"html-keyboard-response","trial_index":144,"time_elapsed":644729,"internal_node_id":"0.0-5.0-1.8","prolific_id":"5e65531ade78962d424730a3","session_id":"643c24b70ec87e381ebc25bb","study_id":"64370a36d30bfa807bc7e43c"},{"rt":1414,"stimulus":"\n\t\t\t\t\t\t<div class=\"two_card_container\">\n\t\t\t\t\t\t<div class=\"card_container\">\n\t\t\t\t\t\t<img src=img/36.png>\n\t\t\t\t\t\t</div>\n\n\t\t\t\t\t\t<div class=\"card_container\">\n\t\t\t\t\t\t<img src=img/19.png>\n\t\t\t\t\t\t</div>","response":"f","task":"response","correct_response":"j","trial_type":"html-keyboard-response","trial_index":145,"time_elapsed":646143,"internal_node_id":"0.0-5.0-0.9","prolific_id":"5e65531ade78962d424730a3","session_id":"643c24b70ec87e381ebc25bb","study_id":"64370a36d30bfa807bc7e43c","correct":false},{"rt":null,"stimulus":"\n\t\t\t\t\t<p>Wrong answer</p>\n\t\t\t\t\t","response":null,"trial_type":"html-keyboard-response","trial_index":146,"time_elapsed":647152,"internal_node_id":"0.0-5.0-1.9","prolific_id":"5e65531ade78962d424730a3","session_id":"643c24b70ec87e381ebc25bb","study_id":"64370a36d30bfa807bc7e43c"},{"rt":null,"stimulus":"\n\t\t\t<h2>Good job :p</h2>\n\t\t\t<p>In the next session, you will see a trivia question on the screen in each trial.</p>\n\t\t\t<p>Each of these trivia questions is chosen from the questions you have already seen in the first session of the experiment.</p><br>\n\t\t\t<p>Your task is to answer the trivia question based on what you remember as accurately as you can.</p>\n\t\t\t<p>Have fun!</p>\n\t\t\t<br>\n\t\t\t<p>The trials will begin in 30 seconds</p>\n\t\t\t","response":null,"trial_type":"html-keyboard-response","trial_index":147,"time_elapsed":677156,"internal_node_id":"0.0-6.0","prolific_id":"5e65531ade78962d424730a3","session_id":"643c24b70ec87e381ebc25bb","study_id":"64370a36d30bfa807bc7e43c"},{"rt":9731,"response":{"answer":"4"},"task":"response","correct_response":"4","trial_type":"survey-text","trial_index":148,"time_elapsed":686890,"internal_node_id":"0.0-7.0-0.0","prolific_id":"5e65531ade78962d424730a3","session_id":"643c24b70ec87e381ebc25bb","study_id":"64370a36d30bfa807bc7e43c","difference":0},{"rt":null,"stimulus":"<h2>The correct answer is 4.</h2><p>Your answer was different from the answer by 0.</p><p>You got the right answer. Amazing work!</p>","response":null,"trial_type":"html-keyboard-response","trial_index":149,"time_elapsed":689391,"internal_node_id":"0.0-7.0-1.0","prolific_id":"5e65531ade78962d424730a3","session_id":"643c24b70ec87e381ebc25bb","study_id":"64370a36d30bfa807bc7e43c"},{"rt":5840,"response":{"answer":"1908"},"task":"response","correct_response":"1901","trial_type":"survey-text","trial_index":150,"time_elapsed":695234,"internal_node_id":"0.0-7.0-0.1","prolific_id":"5e65531ade78962d424730a3","session_id":"643c24b70ec87e381ebc25bb","study_id":"64370a36d30bfa807bc7e43c","difference":0},{"rt":null,"stimulus":"<h2>The correct answer is 1901.</h2><p>Your answer was different from the answer by 7.</p><p>Excellent. Kudos to you!</p>","response":null,"trial_type":"html-keyboard-response","trial_index":151,"time_elapsed":697745,"internal_node_id":"0.0-7.0-1.1","prolific_id":"5e65531ade78962d424730a3","session_id":"643c24b70ec87e381ebc25bb","study_id":"64370a36d30bfa807bc7e43c"},{"rt":3231,"response":{"answer":"108"},"task":"response","correct_response":"108","trial_type":"survey-text","trial_index":152,"time_elapsed":700978,"internal_node_id":"0.0-7.0-0.2","prolific_id":"5e65531ade78962d424730a3","session_id":"643c24b70ec87e381ebc25bb","study_id":"64370a36d30bfa807bc7e43c","difference":0},{"rt":null,"stimulus":"<h2>The correct answer is 108.</h2><p>Your answer was different from the answer by 0.</p><p>You got the right answer. Amazing work!</p>","response":null,"trial_type":"html-keyboard-response","trial_index":153,"time_elapsed":703480,"internal_node_id":"0.0-7.0-1.2","prolific_id":"5e65531ade78962d424730a3","session_id":"643c24b70ec87e381ebc25bb","study_id":"64370a36d30bfa807bc7e43c"},{"rt":3743,"response":{"answer":"21"},"task":"response","correct_response":"21","trial_type":"survey-text","trial_index":154,"time_elapsed":707226,"internal_node_id":"0.0-7.0-0.3","prolific_id":"5e65531ade78962d424730a3","session_id":"643c24b70ec87e381ebc25bb","study_id":"64370a36d30bfa807bc7e43c","difference":0},{"rt":null,"stimulus":"<h2>The correct answer is 21.</h2><p>Your answer was different from the answer by 0.</p><p>You got the right answer. Amazing work!</p>","response":null,"trial_type":"html-keyboard-response","trial_index":155,"time_elapsed":709733,"internal_node_id":"0.0-7.0-1.3","prolific_id":"5e65531ade78962d424730a3","session_id":"643c24b70ec87e381ebc25bb","study_id":"64370a36d30bfa807bc7e43c"},{"rt":7643,"response":{"answer":"28"},"task":"response","correct_response":"28","trial_type":"survey-text","trial_index":156,"time_elapsed":717378,"internal_node_id":"0.0-7.0-0.4","prolific_id":"5e65531ade78962d424730a3","session_id":"643c24b70ec87e381ebc25bb","study_id":"64370a36d30bfa807bc7e43c","difference":0},{"rt":null,"stimulus":"<h2>The correct answer is 28.</h2><p>Your answer was different from the answer by 0.</p><p>You got the right answer. Amazing work!</p>","response":null,"trial_type":"html-keyboard-response","trial_index":157,"time_elapsed":719880,"internal_node_id":"0.0-7.0-1.4","prolific_id":"5e65531ade78962d424730a3","session_id":"643c24b70ec87e381ebc25bb","study_id":"64370a36d30bfa807bc7e43c"},{"rt":2487,"response":{"answer":"54"},"task":"response","correct_response":"54","trial_type":"survey-text","trial_index":158,"time_elapsed":722369,"internal_node_id":"0.0-7.0-0.5","prolific_id":"5e65531ade78962d424730a3","session_id":"643c24b70ec87e381ebc25bb","study_id":"64370a36d30bfa807bc7e43c","difference":0},{"rt":null,"stimulus":"<h2>The correct answer is 54.</h2><p>Your answer was different from the answer by 0.</p><p>You got the right answer. Amazing work!</p>","response":null,"trial_type":"html-keyboard-response","trial_index":159,"time_elapsed":724871,"internal_node_id":"0.0-7.0-1.5","prolific_id":"5e65531ade78962d424730a3","session_id":"643c24b70ec87e381ebc25bb","study_id":"64370a36d30bfa807bc7e43c"},{"rt":3536,"response":{"answer":"74"},"task":"response","correct_response":"79","trial_type":"survey-text","trial_index":160,"time_elapsed":728410,"internal_node_id":"0.0-7.0-0.6","prolific_id":"5e65531ade78962d424730a3","session_id":"643c24b70ec87e381ebc25bb","study_id":"64370a36d30bfa807bc7e43c","difference":6},{"rt":null,"stimulus":"<h2>The correct answer is 79.</h2><p>Your answer was different from the answer by 5.</p><p>Excellent. Kudos to you!</p>","response":null,"trial_type":"html-keyboard-response","trial_index":161,"time_elapsed":730926,"internal_node_id":"0.0-7.0-1.6","prolific_id":"5e65531ade78962d424730a3","session_id":"643c24b70ec87e381ebc25bb","study_id":"64370a36d30bfa807bc7e43c"},{"rt":2681,"response":{"answer":"14"},"task":"response","correct_response":"14","trial_type":"survey-text","trial_index":162,"time_elapsed":733609,"internal_node_id":"0.0-7.0-0.7","prolific_id":"5e65531ade78962d424730a3","session_id":"643c24b70ec87e381ebc25bb","study_id":"64370a36d30bfa807bc7e43c","difference":0},{"rt":null,"stimulus":"<h2>The correct answer is 14.</h2><p>Your answer was different from the answer by 0.</p><p>You got the right answer. Amazing work!</p>","response":null,"trial_type":"html-keyboard-response","trial_index":163,"time_elapsed":736111,"internal_node_id":"0.0-7.0-1.7","prolific_id":"5e65531ade78962d424730a3","session_id":"643c24b70ec87e381ebc25bb","study_id":"64370a36d30bfa807bc7e43c"},{"rt":3376,"response":{"answer":"163"},"task":"response","correct_response":"163","trial_type":"survey-text","trial_index":164,"time_elapsed":739489,"internal_node_id":"0.0-7.0-0.8","prolific_id":"5e65531ade78962d424730a3","session_id":"643c24b70ec87e381ebc25bb","study_id":"64370a36d30bfa807bc7e43c","difference":0},{"rt":null,"stimulus":"<h2>The correct answer is 163.</h2><p>Your answer was different from the answer by 0.</p><p>You got the right answer. Amazing work!</p>","response":null,"trial_type":"html-keyboard-response","trial_index":165,"time_elapsed":741998,"internal_node_id":"0.0-7.0-1.8","prolific_id":"5e65531ade78962d424730a3","session_id":"643c24b70ec87e381ebc25bb","study_id":"64370a36d30bfa807bc7e43c"},{"rt":4057,"response":{"answer":"1908"},"task":"response","correct_response":"1907","trial_type":"survey-text","trial_index":166,"time_elapsed":746057,"internal_node_id":"0.0-7.0-0.9","prolific_id":"5e65531ade78962d424730a3","session_id":"643c24b70ec87e381ebc25bb","study_id":"64370a36d30bfa807bc7e43c","difference":0},{"rt":null,"stimulus":"<h2>The correct answer is 1907.</h2><p>Your answer was different from the answer by 1.</p><p>Excellent. Kudos to you!</p>","response":null,"trial_type":"html-keyboard-response","trial_index":167,"time_elapsed":748573,"internal_node_id":"0.0-7.0-1.9","prolific_id":"5e65531ade78962d424730a3","session_id":"643c24b70ec87e381ebc25bb","study_id":"64370a36d30bfa807bc7e43c"}]