[{"success":true,"timeout":false,"failed_images":[],"failed_audio":[],"failed_video":[],"trial_type":"preload","trial_index":0,"time_elapsed":9227,"internal_node_id":"0.0-0.0","prolific_id":"5f34962a2d121721dda7757e","session_id":"64399aad7b6bbcaef01d566b","study_id":"64370a36d30bfa807bc7e43c"},{"rt":9161,"stimulus":"\n\t\t\t\t\t<p>Welcome and thank you for participating in this study!</p>\n\t\t\t\t\t<p>In each trial, you will be given a trivia question and then be asked to:</p><br>\n\t\t\t\t\t<div class=\"list\">\n\t\t\t\t\t<p>1) Predict the answer</p>\n\t\t\t\t\t<p>2) Rate how much you already know about the topic</p>\n\t\t\t\t\t<p>3) Rate how much you want to know the answer</p>\n\t\t\t\t\t</div>\n\t\t\t\t\t<br>\n\t\t\t\t\t<p>Then, you will see a card that flips over to reveal the answer.</p>\n\t\t\t\t\t<br>\n\t\t\t\t\t<p>Let's try a practice round. Press <span style=\"color: red\"><strong>any key</strong></span> to move to the next slide</p>\n\t\t\t\t\t","response":" ","trial_type":"html-keyboard-response","trial_index":1,"time_elapsed":18389,"internal_node_id":"0.0-1.0","prolific_id":"5f34962a2d121721dda7757e","session_id":"64399aad7b6bbcaef01d566b","study_id":"64370a36d30bfa807bc7e43c"},{"rt":3818,"response":{"practice prediction":"4"},"task":"practice","trial_type":"survey-text","trial_index":2,"time_elapsed":22251,"internal_node_id":"0.0-2.0-0.0","prolific_id":"5f34962a2d121721dda7757e","session_id":"64399aad7b6bbcaef01d566b","study_id":"64370a36d30bfa807bc7e43c"},{"rt":5513,"response":{"practice":1},"accuracy":[],"trial_type":"survey","trial_index":3,"time_elapsed":27891,"internal_node_id":"0.0-2.0-1.0","prolific_id":"5f34962a2d121721dda7757e","session_id":"64399aad7b6bbcaef01d566b","study_id":"64370a36d30bfa807bc7e43c"},{"rt":4973,"stimulus":"\n\t\t\t\t<div class=\"flip_card\">\n\t\t\t\t\t<div class=\"flip_card_inner\">\n\t\t\t\t\t\t<div class=\"flip_card_front\">\n\t\t\t\t\t\t\t<img src=img/practice.png>\n\t\t\t\t\t\t</div>\n\t\t\t\t\t\t<div class=\"flip_card_back\">\n\t\t\t\t\t\t\t<h2>\"How many legs does a lobster have?\"</h2>\n\t\t\t\t\t\t    <br>\n\t\t\t\t\t\t    <p>Answer: <strong>\"10\"</strong></p>\n\t\t\t\t\t    </div>\n\t\t\t\t    </div>\n\t\t\t    </div>\n\t\t\t\t","response":" ","trial_type":"html-keyboard-response","trial_index":4,"time_elapsed":32894,"internal_node_id":"0.0-2.0-2.0","prolific_id":"5f34962a2d121721dda7757e","session_id":"64399aad7b6bbcaef01d566b","study_id":"64370a36d30bfa807bc7e43c"},{"rt":2052,"stimulus":"\n\t\t\t\t\t<div>\n\t\t\t\t\t<h2>The practice round is over</h2>\n\t\t\t\t\t<p>Press <span style=\"color: red\"><strong>any key</strong></span> to continue to the actual trials</p>\n\t\t\t\t\t<p>Good Luck!</p>\n\t\t\t\t\t</div>\n\t\t\t\t\t","response":" ","trial_type":"html-keyboard-response","trial_index":5,"time_elapsed":34947,"internal_node_id":"0.0-2.0-3.0","prolific_id":"5f34962a2d121721dda7757e","session_id":"64399aad7b6bbcaef01d566b","study_id":"64370a36d30bfa807bc7e43c"},{"rt":3860,"response":{"prediction":"5"},"trial_type":"survey-text","trial_index":6,"time_elapsed":38820,"internal_node_id":"0.0-3.0-0.0","prolific_id":"5f34962a2d121721dda7757e","session_id":"64399aad7b6bbcaef01d566b","study_id":"64370a36d30bfa807bc7e43c"},{"rt":5553,"response":{"prior knowledge":2,"curiosity":5},"accuracy":[],"trial_type":"survey","trial_index":7,"time_elapsed":44406,"internal_node_id":"0.0-3.0-1.0","prolific_id":"5f34962a2d121721dda7757e","session_id":"64399aad7b6bbcaef01d566b","study_id":"64370a36d30bfa807bc7e43c"},{"rt":null,"stimulus":"\n\t\t\t<div class=\"flip_card\">\n\t\t\t\t<div class=\"flip_card_inner\">\n\t\t\t\t\t<div class=\"flip_card_front\">\n\t\t\t\t\t\t<img src=img/19.png>\n\t\t\t\t\t</div>\n\t\t\t\t\t<div class=\"flip_card_back\">\n\t\t\t\t\t\t<h2>How many times a day do Muslims pray?</h2>\n\t\t\t\t\t\t<br>\n\t\t\t\t\t\t<p>Answer: <strong>5</strong></p>\n\t\t\t\t\t</div>\n\t\t\t\t</div>\n\t\t\t</div>\n\t\t\t","response":null,"trial_type":"html-keyboard-response","trial_index":8,"time_elapsed":49413,"internal_node_id":"0.0-3.0-2.0","prolific_id":"5f34962a2d121721dda7757e","session_id":"64399aad7b6bbcaef01d566b","study_id":"64370a36d30bfa807bc7e43c"},{"rt":1515,"stimulus":"\n\t\t\t\t\t<div>\n\t\t\t\t\t<h2>Trial 1 is over</h2>\n\t\t\t\t\t<p>Press <span style=\"color: red\"><strong>any key</strong></span> to continue to the next trial</p>\n\t\t\t\t\t</div>\n\t\t\t\t","response":" ","trial_type":"html-keyboard-response","trial_index":9,"time_elapsed":50931,"internal_node_id":"0.0-3.0-3.0","prolific_id":"5f34962a2d121721dda7757e","session_id":"64399aad7b6bbcaef01d566b","study_id":"64370a36d30bfa807bc7e43c"},{"rt":11520,"response":{"prediction":"2006"},"trial_type":"survey-text","trial_index":10,"time_elapsed":62463,"internal_node_id":"0.0-3.0-0.1","prolific_id":"5f34962a2d121721dda7757e","session_id":"64399aad7b6bbcaef01d566b","study_id":"64370a36d30bfa807bc7e43c"},{"rt":5575,"response":{"prior knowledge":1,"curiosity":5},"accuracy":[],"trial_type":"survey","trial_index":11,"time_elapsed":68067,"internal_node_id":"0.0-3.0-1.1","prolific_id":"5f34962a2d121721dda7757e","session_id":"64399aad7b6bbcaef01d566b","study_id":"64370a36d30bfa807bc7e43c"},{"rt":null,"stimulus":"\n\t\t\t<div class=\"flip_card\">\n\t\t\t\t<div class=\"flip_card_inner\">\n\t\t\t\t\t<div class=\"flip_card_front\">\n\t\t\t\t\t\t<img src=img/15.png>\n\t\t\t\t\t</div>\n\t\t\t\t\t<div class=\"flip_card_back\">\n\t\t\t\t\t\t<h2>What year was the very first model of the iPhone released?</h2>\n\t\t\t\t\t\t<br>\n\t\t\t\t\t\t<p>Answer: <strong>2007</strong></p>\n\t\t\t\t\t</div>\n\t\t\t\t</div>\n\t\t\t</div>\n\t\t\t","response":null,"trial_type":"html-keyboard-response","trial_index":12,"time_elapsed":73070,"internal_node_id":"0.0-3.0-2.1","prolific_id":"5f34962a2d121721dda7757e","session_id":"64399aad7b6bbcaef01d566b","study_id":"64370a36d30bfa807bc7e43c"},{"rt":910,"stimulus":"\n\t\t\t\t\t<div>\n\t\t\t\t\t<h2>Trial 2 is over</h2>\n\t\t\t\t\t<p>Press <span style=\"color: red\"><strong>any key</strong></span> to continue to the next trial</p>\n\t\t\t\t\t</div>\n\t\t\t\t","response":" ","trial_type":"html-keyboard-response","trial_index":13,"time_elapsed":73981,"internal_node_id":"0.0-3.0-3.1","prolific_id":"5f34962a2d121721dda7757e","session_id":"64399aad7b6bbcaef01d566b","study_id":"64370a36d30bfa807bc7e43c"},{"rt":6513,"response":{"prediction":"20"},"trial_type":"survey-text","trial_index":14,"time_elapsed":80504,"internal_node_id":"0.0-3.0-0.2","prolific_id":"5f34962a2d121721dda7757e","session_id":"64399aad7b6bbcaef01d566b","study_id":"64370a36d30bfa807bc7e43c"},{"rt":4307,"response":{"prior knowledge":0,"curiosity":5},"accuracy":[],"trial_type":"survey","trial_index":15,"time_elapsed":84838,"internal_node_id":"0.0-3.0-1.2","prolific_id":"5f34962a2d121721dda7757e","session_id":"64399aad7b6bbcaef01d566b","study_id":"64370a36d30bfa807bc7e43c"},{"rt":null,"stimulus":"\n\t\t\t<div class=\"flip_card\">\n\t\t\t\t<div class=\"flip_card_inner\">\n\t\t\t\t\t<div class=\"flip_card_front\">\n\t\t\t\t\t\t<img src=img/20.png>\n\t\t\t\t\t</div>\n\t\t\t\t\t<div class=\"flip_card_back\">\n\t\t\t\t\t\t<h2>How many constellations are there?</h2>\n\t\t\t\t\t\t<br>\n\t\t\t\t\t\t<p>Answer: <strong>88</strong></p>\n\t\t\t\t\t</div>\n\t\t\t\t</div>\n\t\t\t</div>\n\t\t\t","response":null,"trial_type":"html-keyboard-response","trial_index":16,"time_elapsed":89842,"internal_node_id":"0.0-3.0-2.2","prolific_id":"5f34962a2d121721dda7757e","session_id":"64399aad7b6bbcaef01d566b","study_id":"64370a36d30bfa807bc7e43c"},{"rt":900,"stimulus":"\n\t\t\t\t\t<div>\n\t\t\t\t\t<h2>Trial 3 is over</h2>\n\t\t\t\t\t<p>Press <span style=\"color: red\"><strong>any key</strong></span> to continue to the next trial</p>\n\t\t\t\t\t</div>\n\t\t\t\t","response":" ","trial_type":"html-keyboard-response","trial_index":17,"time_elapsed":90744,"internal_node_id":"0.0-3.0-3.2","prolific_id":"5f34962a2d121721dda7757e","session_id":"64399aad7b6bbcaef01d566b","study_id":"64370a36d30bfa807bc7e43c"},{"rt":8305,"response":{"prediction":"1900"},"trial_type":"survey-text","trial_index":18,"time_elapsed":99060,"internal_node_id":"0.0-3.0-0.3","prolific_id":"5f34962a2d121721dda7757e","session_id":"64399aad7b6bbcaef01d566b","study_id":"64370a36d30bfa807bc7e43c"},{"rt":3726,"response":{"prior knowledge":0,"curiosity":5},"accuracy":[],"trial_type":"survey","trial_index":19,"time_elapsed":102811,"internal_node_id":"0.0-3.0-1.3","prolific_id":"5f34962a2d121721dda7757e","session_id":"64399aad7b6bbcaef01d566b","study_id":"64370a36d30bfa807bc7e43c"},{"rt":null,"stimulus":"\n\t\t\t<div class=\"flip_card\">\n\t\t\t\t<div class=\"flip_card_inner\">\n\t\t\t\t\t<div class=\"flip_card_front\">\n\t\t\t\t\t\t<img src=img/11.png>\n\t\t\t\t\t</div>\n\t\t\t\t\t<div class=\"flip_card_back\">\n\t\t\t\t\t\t<h2>In what year did the first Modern Olympic Games take place?</h2>\n\t\t\t\t\t\t<br>\n\t\t\t\t\t\t<p>Answer: <strong>1896</strong></p>\n\t\t\t\t\t</div>\n\t\t\t\t</div>\n\t\t\t</div>\n\t\t\t","response":null,"trial_type":"html-keyboard-response","trial_index":20,"time_elapsed":107815,"internal_node_id":"0.0-3.0-2.3","prolific_id":"5f34962a2d121721dda7757e","session_id":"64399aad7b6bbcaef01d566b","study_id":"64370a36d30bfa807bc7e43c"},{"rt":814,"stimulus":"\n\t\t\t\t\t<div>\n\t\t\t\t\t<h2>Trial 4 is over</h2>\n\t\t\t\t\t<p>Press <span style=\"color: red\"><strong>any key</strong></span> to continue to the next trial</p>\n\t\t\t\t\t</div>\n\t\t\t\t","response":" ","trial_type":"html-keyboard-response","trial_index":21,"time_elapsed":108631,"internal_node_id":"0.0-3.0-3.3","prolific_id":"5f34962a2d121721dda7757e","session_id":"64399aad7b6bbcaef01d566b","study_id":"64370a36d30bfa807bc7e43c"},{"rt":6455,"response":{"prediction":"70"},"trial_type":"survey-text","trial_index":22,"time_elapsed":115094,"internal_node_id":"0.0-3.0-0.4","prolific_id":"5f34962a2d121721dda7757e","session_id":"64399aad7b6bbcaef01d566b","study_id":"64370a36d30bfa807bc7e43c"},{"rt":4499,"response":{"prior knowledge":0,"curiosity":5},"accuracy":[],"trial_type":"survey","trial_index":23,"time_elapsed":119619,"internal_node_id":"0.0-3.0-1.4","prolific_id":"5f34962a2d121721dda7757e","session_id":"64399aad7b6bbcaef01d566b","study_id":"64370a36d30bfa807bc7e43c"},{"rt":null,"stimulus":"\n\t\t\t<div class=\"flip_card\">\n\t\t\t\t<div class=\"flip_card_inner\">\n\t\t\t\t\t<div class=\"flip_card_front\">\n\t\t\t\t\t\t<img src=img/7.png>\n\t\t\t\t\t</div>\n\t\t\t\t\t<div class=\"flip_card_back\">\n\t\t\t\t\t\t<h2>How many books has Stephen King published?</h2>\n\t\t\t\t\t\t<br>\n\t\t\t\t\t\t<p>Answer: <strong>65</strong></p>\n\t\t\t\t\t</div>\n\t\t\t\t</div>\n\t\t\t</div>\n\t\t\t","response":null,"trial_type":"html-keyboard-response","trial_index":24,"time_elapsed":124622,"internal_node_id":"0.0-3.0-2.4","prolific_id":"5f34962a2d121721dda7757e","session_id":"64399aad7b6bbcaef01d566b","study_id":"64370a36d30bfa807bc7e43c"},{"rt":725,"stimulus":"\n\t\t\t\t\t<div>\n\t\t\t\t\t<h2>Trial 5 is over</h2>\n\t\t\t\t\t<p>Press <span style=\"color: red\"><strong>any key</strong></span> to continue to the next trial</p>\n\t\t\t\t\t</div>\n\t\t\t\t","response":" ","trial_type":"html-keyboard-response","trial_index":25,"time_elapsed":125349,"internal_node_id":"0.0-3.0-3.4","prolific_id":"5f34962a2d121721dda7757e","session_id":"64399aad7b6bbcaef01d566b","study_id":"64370a36d30bfa807bc7e43c"},{"rt":4041,"response":{"prediction":"4"},"trial_type":"survey-text","trial_index":26,"time_elapsed":129400,"internal_node_id":"0.0-3.0-0.5","prolific_id":"5f34962a2d121721dda7757e","session_id":"64399aad7b6bbcaef01d566b","study_id":"64370a36d30bfa807bc7e43c"},{"rt":2744,"response":{"prior knowledge":0,"curiosity":5},"accuracy":[],"trial_type":"survey","trial_index":27,"time_elapsed":132164,"internal_node_id":"0.0-3.0-1.5","prolific_id":"5f34962a2d121721dda7757e","session_id":"64399aad7b6bbcaef01d566b","study_id":"64370a36d30bfa807bc7e43c"},{"rt":null,"stimulus":"\n\t\t\t<div class=\"flip_card\">\n\t\t\t\t<div class=\"flip_card_inner\">\n\t\t\t\t\t<div class=\"flip_card_front\">\n\t\t\t\t\t\t<img src=img/5.png>\n\t\t\t\t\t</div>\n\t\t\t\t\t<div class=\"flip_card_back\">\n\t\t\t\t\t\t<h2>How many moons does Neptune have?</h2>\n\t\t\t\t\t\t<br>\n\t\t\t\t\t\t<p>Answer: <strong>14</strong></p>\n\t\t\t\t\t</div>\n\t\t\t\t</div>\n\t\t\t</div>\n\t\t\t","response":null,"trial_type":"html-keyboard-response","trial_index":28,"time_elapsed":137167,"internal_node_id":"0.0-3.0-2.5","prolific_id":"5f34962a2d121721dda7757e","session_id":"64399aad7b6bbcaef01d566b","study_id":"64370a36d30bfa807bc7e43c"},{"rt":461,"stimulus":"\n\t\t\t\t\t<div>\n\t\t\t\t\t<h2>Trial 6 is over</h2>\n\t\t\t\t\t<p>Press <span style=\"color: red\"><strong>any key</strong></span> to continue to the next trial</p>\n\t\t\t\t\t</div>\n\t\t\t\t","response":" ","trial_type":"html-keyboard-response","trial_index":29,"time_elapsed":137631,"internal_node_id":"0.0-3.0-3.5","prolific_id":"5f34962a2d121721dda7757e","session_id":"64399aad7b6bbcaef01d566b","study_id":"64370a36d30bfa807bc7e43c"},{"rt":4592,"response":{"prediction":"14"},"trial_type":"survey-text","trial_index":30,"time_elapsed":142231,"internal_node_id":"0.0-3.0-0.6","prolific_id":"5f34962a2d121721dda7757e","session_id":"64399aad7b6bbcaef01d566b","study_id":"64370a36d30bfa807bc7e43c"},{"rt":2976,"response":{"prior knowledge":0,"curiosity":5},"accuracy":[],"trial_type":"survey","trial_index":31,"time_elapsed":145226,"internal_node_id":"0.0-3.0-1.6","prolific_id":"5f34962a2d121721dda7757e","session_id":"64399aad7b6bbcaef01d566b","study_id":"64370a36d30bfa807bc7e43c"},{"rt":null,"stimulus":"\n\t\t\t<div class=\"flip_card\">\n\t\t\t\t<div class=\"flip_card_inner\">\n\t\t\t\t\t<div class=\"flip_card_front\">\n\t\t\t\t\t\t<img src=img/17.png>\n\t\t\t\t\t</div>\n\t\t\t\t\t<div class=\"flip_card_back\">\n\t\t\t\t\t\t<h2>How many lines are in a sonnet?</h2>\n\t\t\t\t\t\t<br>\n\t\t\t\t\t\t<p>Answer: <strong>14</strong></p>\n\t\t\t\t\t</div>\n\t\t\t\t</div>\n\t\t\t</div>\n\t\t\t","response":null,"trial_type":"html-keyboard-response","trial_index":32,"time_elapsed":150229,"internal_node_id":"0.0-3.0-2.6","prolific_id":"5f34962a2d121721dda7757e","session_id":"64399aad7b6bbcaef01d566b","study_id":"64370a36d30bfa807bc7e43c"},{"rt":920,"stimulus":"\n\t\t\t\t\t<div>\n\t\t\t\t\t<h2>Trial 7 is over</h2>\n\t\t\t\t\t<p>Press <span style=\"color: red\"><strong>any key</strong></span> to continue to the next trial</p>\n\t\t\t\t\t</div>\n\t\t\t\t","response":" ","trial_type":"html-keyboard-response","trial_index":33,"time_elapsed":151151,"internal_node_id":"0.0-3.0-3.6","prolific_id":"5f34962a2d121721dda7757e","session_id":"64399aad7b6bbcaef01d566b","study_id":"64370a36d30bfa807bc7e43c"},{"rt":3477,"response":{"prediction":"3"},"trial_type":"survey-text","trial_index":34,"time_elapsed":154637,"internal_node_id":"0.0-3.0-0.7","prolific_id":"5f34962a2d121721dda7757e","session_id":"64399aad7b6bbcaef01d566b","study_id":"64370a36d30bfa807bc7e43c"},{"rt":3693,"response":{"prior knowledge":0,"curiosity":5},"accuracy":[],"trial_type":"survey","trial_index":35,"time_elapsed":158360,"internal_node_id":"0.0-3.0-1.7","prolific_id":"5f34962a2d121721dda7757e","session_id":"64399aad7b6bbcaef01d566b","study_id":"64370a36d30bfa807bc7e43c"},{"rt":null,"stimulus":"\n\t\t\t<div class=\"flip_card\">\n\t\t\t\t<div class=\"flip_card_inner\">\n\t\t\t\t\t<div class=\"flip_card_front\">\n\t\t\t\t\t\t<img src=img/28.png>\n\t\t\t\t\t</div>\n\t\t\t\t\t<div class=\"flip_card_back\">\n\t\t\t\t\t\t<h2>How many main islands make up Japan?</h2>\n\t\t\t\t\t\t<br>\n\t\t\t\t\t\t<p>Answer: <strong>4</strong></p>\n\t\t\t\t\t</div>\n\t\t\t\t</div>\n\t\t\t</div>\n\t\t\t","response":null,"trial_type":"html-keyboard-response","trial_index":36,"time_elapsed":163368,"internal_node_id":"0.0-3.0-2.7","prolific_id":"5f34962a2d121721dda7757e","session_id":"64399aad7b6bbcaef01d566b","study_id":"64370a36d30bfa807bc7e43c"},{"rt":532,"stimulus":"\n\t\t\t\t\t<div>\n\t\t\t\t\t<h2>Trial 8 is over</h2>\n\t\t\t\t\t<p>Press <span style=\"color: red\"><strong>any key</strong></span> to continue to the next trial</p>\n\t\t\t\t\t</div>\n\t\t\t\t","response":" ","trial_type":"html-keyboard-response","trial_index":37,"time_elapsed":163902,"internal_node_id":"0.0-3.0-3.7","prolific_id":"5f34962a2d121721dda7757e","session_id":"64399aad7b6bbcaef01d566b","study_id":"64370a36d30bfa807bc7e43c"},{"rt":4401,"response":{"prediction":"25"},"trial_type":"survey-text","trial_index":38,"time_elapsed":168314,"internal_node_id":"0.0-3.0-0.8","prolific_id":"5f34962a2d121721dda7757e","session_id":"64399aad7b6bbcaef01d566b","study_id":"64370a36d30bfa807bc7e43c"},{"rt":3237,"response":{"prior knowledge":1,"curiosity":5},"accuracy":[],"trial_type":"survey","trial_index":39,"time_elapsed":171575,"internal_node_id":"0.0-3.0-1.8","prolific_id":"5f34962a2d121721dda7757e","session_id":"64399aad7b6bbcaef01d566b","study_id":"64370a36d30bfa807bc7e43c"},{"rt":null,"stimulus":"\n\t\t\t<div class=\"flip_card\">\n\t\t\t\t<div class=\"flip_card_inner\">\n\t\t\t\t\t<div class=\"flip_card_front\">\n\t\t\t\t\t\t<img src=img/18.png>\n\t\t\t\t\t</div>\n\t\t\t\t\t<div class=\"flip_card_back\">\n\t\t\t\t\t\t<h2>How many books are in the Catholic Bible?</h2>\n\t\t\t\t\t\t<br>\n\t\t\t\t\t\t<p>Answer: <strong>73</strong></p>\n\t\t\t\t\t</div>\n\t\t\t\t</div>\n\t\t\t</div>\n\t\t\t","response":null,"trial_type":"html-keyboard-response","trial_index":40,"time_elapsed":176579,"internal_node_id":"0.0-3.0-2.8","prolific_id":"5f34962a2d121721dda7757e","session_id":"64399aad7b6bbcaef01d566b","study_id":"64370a36d30bfa807bc7e43c"},{"rt":1365,"stimulus":"\n\t\t\t\t\t<div>\n\t\t\t\t\t<h2>Trial 9 is over</h2>\n\t\t\t\t\t<p>Press <span style=\"color: red\"><strong>any key</strong></span> to continue to the next trial</p>\n\t\t\t\t\t</div>\n\t\t\t\t","response":" ","trial_type":"html-keyboard-response","trial_index":41,"time_elapsed":177946,"internal_node_id":"0.0-3.0-3.8","prolific_id":"5f34962a2d121721dda7757e","session_id":"64399aad7b6bbcaef01d566b","study_id":"64370a36d30bfa807bc7e43c"},{"rt":5197,"response":{"prediction":"11"},"trial_type":"survey-text","trial_index":42,"time_elapsed":183151,"internal_node_id":"0.0-3.0-0.9","prolific_id":"5f34962a2d121721dda7757e","session_id":"64399aad7b6bbcaef01d566b","study_id":"64370a36d30bfa807bc7e43c"},{"rt":5200,"response":{"prior knowledge":2,"curiosity":5},"accuracy":[],"trial_type":"survey","trial_index":43,"time_elapsed":188368,"internal_node_id":"0.0-3.0-1.9","prolific_id":"5f34962a2d121721dda7757e","session_id":"64399aad7b6bbcaef01d566b","study_id":"64370a36d30bfa807bc7e43c"},{"rt":null,"stimulus":"\n\t\t\t<div class=\"flip_card\">\n\t\t\t\t<div class=\"flip_card_inner\">\n\t\t\t\t\t<div class=\"flip_card_front\">\n\t\t\t\t\t\t<img src=img/23.png>\n\t\t\t\t\t</div>\n\t\t\t\t\t<div class=\"flip_card_back\">\n\t\t\t\t\t\t<h2>How many soccer players should each team have on the field at the start of each match?</h2>\n\t\t\t\t\t\t<br>\n\t\t\t\t\t\t<p>Answer: <strong>11</strong></p>\n\t\t\t\t\t</div>\n\t\t\t\t</div>\n\t\t\t</div>\n\t\t\t","response":null,"trial_type":"html-keyboard-response","trial_index":44,"time_elapsed":193371,"internal_node_id":"0.0-3.0-2.9","prolific_id":"5f34962a2d121721dda7757e","session_id":"64399aad7b6bbcaef01d566b","study_id":"64370a36d30bfa807bc7e43c"},{"rt":488,"stimulus":"\n\t\t\t\t\t<div>\n\t\t\t\t\t<h2>Trial 10 is over</h2>\n\t\t\t\t\t<p>Press <span style=\"color: red\"><strong>any key</strong></span> to continue to the next trial</p>\n\t\t\t\t\t</div>\n\t\t\t\t","response":" ","trial_type":"html-keyboard-response","trial_index":45,"time_elapsed":193861,"internal_node_id":"0.0-3.0-3.9","prolific_id":"5f34962a2d121721dda7757e","session_id":"64399aad7b6bbcaef01d566b","study_id":"64370a36d30bfa807bc7e43c"},{"rt":4544,"response":{"prediction":"88"},"trial_type":"survey-text","trial_index":46,"time_elapsed":198433,"internal_node_id":"0.0-3.0-0.10","prolific_id":"5f34962a2d121721dda7757e","session_id":"64399aad7b6bbcaef01d566b","study_id":"64370a36d30bfa807bc7e43c"},{"rt":3971,"response":{"prior knowledge":0,"curiosity":5},"accuracy":[],"trial_type":"survey","trial_index":47,"time_elapsed":202430,"internal_node_id":"0.0-3.0-1.10","prolific_id":"5f34962a2d121721dda7757e","session_id":"64399aad7b6bbcaef01d566b","study_id":"64370a36d30bfa807bc7e43c"},{"rt":null,"stimulus":"\n\t\t\t<div class=\"flip_card\">\n\t\t\t\t<div class=\"flip_card_inner\">\n\t\t\t\t\t<div class=\"flip_card_front\">\n\t\t\t\t\t\t<img src=img/8.png>\n\t\t\t\t\t</div>\n\t\t\t\t\t<div class=\"flip_card_back\">\n\t\t\t\t\t\t<h2>How many double stitches does a baseball have?</h2>\n\t\t\t\t\t\t<br>\n\t\t\t\t\t\t<p>Answer: <strong>108</strong></p>\n\t\t\t\t\t</div>\n\t\t\t\t</div>\n\t\t\t</div>\n\t\t\t","response":null,"trial_type":"html-keyboard-response","trial_index":48,"time_elapsed":207433,"internal_node_id":"0.0-3.0-2.10","prolific_id":"5f34962a2d121721dda7757e","session_id":"64399aad7b6bbcaef01d566b","study_id":"64370a36d30bfa807bc7e43c"},{"rt":523,"stimulus":"\n\t\t\t\t\t<div>\n\t\t\t\t\t<h2>Trial 11 is over</h2>\n\t\t\t\t\t<p>Press <span style=\"color: red\"><strong>any key</strong></span> to continue to the next trial</p>\n\t\t\t\t\t</div>\n\t\t\t\t","response":" ","trial_type":"html-keyboard-response","trial_index":49,"time_elapsed":207958,"internal_node_id":"0.0-3.0-3.10","prolific_id":"5f34962a2d121721dda7757e","session_id":"64399aad7b6bbcaef01d566b","study_id":"64370a36d30bfa807bc7e43c"},{"rt":11726,"response":{"prediction":"206"},"trial_type":"survey-text","trial_index":50,"time_elapsed":219692,"internal_node_id":"0.0-3.0-0.11","prolific_id":"5f34962a2d121721dda7757e","session_id":"64399aad7b6bbcaef01d566b","study_id":"64370a36d30bfa807bc7e43c"},{"rt":4466,"response":{"prior knowledge":0,"curiosity":0},"accuracy":[],"trial_type":"survey","trial_index":51,"time_elapsed":224174,"internal_node_id":"0.0-3.0-1.11","prolific_id":"5f34962a2d121721dda7757e","session_id":"64399aad7b6bbcaef01d566b","study_id":"64370a36d30bfa807bc7e43c"},{"rt":null,"stimulus":"\n\t\t\t<div class=\"flip_card\">\n\t\t\t\t<div class=\"flip_card_inner\">\n\t\t\t\t\t<div class=\"flip_card_front\">\n\t\t\t\t\t\t<img src=img/25.png>\n\t\t\t\t\t</div>\n\t\t\t\t\t<div class=\"flip_card_back\">\n\t\t\t\t\t\t<h2>How many bones is a human baby born with?</h2>\n\t\t\t\t\t\t<br>\n\t\t\t\t\t\t<p>Answer: <strong>300</strong></p>\n\t\t\t\t\t</div>\n\t\t\t\t</div>\n\t\t\t</div>\n\t\t\t","response":null,"trial_type":"html-keyboard-response","trial_index":52,"time_elapsed":229178,"internal_node_id":"0.0-3.0-2.11","prolific_id":"5f34962a2d121721dda7757e","session_id":"64399aad7b6bbcaef01d566b","study_id":"64370a36d30bfa807bc7e43c"},{"rt":510,"stimulus":"\n\t\t\t\t\t<div>\n\t\t\t\t\t<h2>Trial 12 is over</h2>\n\t\t\t\t\t<p>Press <span style=\"color: red\"><strong>any key</strong></span> to continue to the next trial</p>\n\t\t\t\t\t</div>\n\t\t\t\t","response":" ","trial_type":"html-keyboard-response","trial_index":53,"time_elapsed":229689,"internal_node_id":"0.0-3.0-3.11","prolific_id":"5f34962a2d121721dda7757e","session_id":"64399aad7b6bbcaef01d566b","study_id":"64370a36d30bfa807bc7e43c"},{"rt":6012,"response":{"prediction":"100"},"trial_type":"survey-text","trial_index":54,"time_elapsed":235711,"internal_node_id":"0.0-3.0-0.12","prolific_id":"5f34962a2d121721dda7757e","session_id":"64399aad7b6bbcaef01d566b","study_id":"64370a36d30bfa807bc7e43c"},{"rt":3569,"response":{"prior knowledge":0,"curiosity":5},"accuracy":[],"trial_type":"survey","trial_index":55,"time_elapsed":239302,"internal_node_id":"0.0-3.0-1.12","prolific_id":"5f34962a2d121721dda7757e","session_id":"64399aad7b6bbcaef01d566b","study_id":"64370a36d30bfa807bc7e43c"},{"rt":null,"stimulus":"\n\t\t\t<div class=\"flip_card\">\n\t\t\t\t<div class=\"flip_card_inner\">\n\t\t\t\t\t<div class=\"flip_card_front\">\n\t\t\t\t\t\t<img src=img/22.png>\n\t\t\t\t\t</div>\n\t\t\t\t\t<div class=\"flip_card_back\">\n\t\t\t\t\t\t<h2>How many people are vegan globally (in millions)?</h2>\n\t\t\t\t\t\t<br>\n\t\t\t\t\t\t<p>Answer: <strong>79</strong></p>\n\t\t\t\t\t</div>\n\t\t\t\t</div>\n\t\t\t</div>\n\t\t\t","response":null,"trial_type":"html-keyboard-response","trial_index":56,"time_elapsed":244304,"internal_node_id":"0.0-3.0-2.12","prolific_id":"5f34962a2d121721dda7757e","session_id":"64399aad7b6bbcaef01d566b","study_id":"64370a36d30bfa807bc7e43c"},{"rt":587,"stimulus":"\n\t\t\t\t\t<div>\n\t\t\t\t\t<h2>Trial 13 is over</h2>\n\t\t\t\t\t<p>Press <span style=\"color: red\"><strong>any key</strong></span> to continue to the next trial</p>\n\t\t\t\t\t</div>\n\t\t\t\t","response":" ","trial_type":"html-keyboard-response","trial_index":57,"time_elapsed":244894,"internal_node_id":"0.0-3.0-3.12","prolific_id":"5f34962a2d121721dda7757e","session_id":"64399aad7b6bbcaef01d566b","study_id":"64370a36d30bfa807bc7e43c"},{"rt":4783,"response":{"prediction":"10"},"trial_type":"survey-text","trial_index":58,"time_elapsed":249685,"internal_node_id":"0.0-3.0-0.13","prolific_id":"5f34962a2d121721dda7757e","session_id":"64399aad7b6bbcaef01d566b","study_id":"64370a36d30bfa807bc7e43c"},{"rt":3315,"response":{"prior knowledge":0,"curiosity":0},"accuracy":[],"trial_type":"survey","trial_index":59,"time_elapsed":253018,"internal_node_id":"0.0-3.0-1.13","prolific_id":"5f34962a2d121721dda7757e","session_id":"64399aad7b6bbcaef01d566b","study_id":"64370a36d30bfa807bc7e43c"},{"rt":null,"stimulus":"\n\t\t\t<div class=\"flip_card\">\n\t\t\t\t<div class=\"flip_card_inner\">\n\t\t\t\t\t<div class=\"flip_card_front\">\n\t\t\t\t\t\t<img src=img/12.png>\n\t\t\t\t\t</div>\n\t\t\t\t\t<div class=\"flip_card_back\">\n\t\t\t\t\t\t<h2>How many single hand gestures, or mudras, are used in Indian classical dance?</h2>\n\t\t\t\t\t\t<br>\n\t\t\t\t\t\t<p>Answer: <strong>28</strong></p>\n\t\t\t\t\t</div>\n\t\t\t\t</div>\n\t\t\t</div>\n\t\t\t","response":null,"trial_type":"html-keyboard-response","trial_index":60,"time_elapsed":258023,"internal_node_id":"0.0-3.0-2.13","prolific_id":"5f34962a2d121721dda7757e","session_id":"64399aad7b6bbcaef01d566b","study_id":"64370a36d30bfa807bc7e43c"},{"rt":588,"stimulus":"\n\t\t\t\t\t<div>\n\t\t\t\t\t<h2>Trial 14 is over</h2>\n\t\t\t\t\t<p>Press <span style=\"color: red\"><strong>any key</strong></span> to continue to the next trial</p>\n\t\t\t\t\t</div>\n\t\t\t\t","response":" ","trial_type":"html-keyboard-response","trial_index":61,"time_elapsed":258616,"internal_node_id":"0.0-3.0-3.13","prolific_id":"5f34962a2d121721dda7757e","session_id":"64399aad7b6bbcaef01d566b","study_id":"64370a36d30bfa807bc7e43c"},{"rt":4357,"response":{"prediction":"30"},"trial_type":"survey-text","trial_index":62,"time_elapsed":262983,"internal_node_id":"0.0-3.0-0.14","prolific_id":"5f34962a2d121721dda7757e","session_id":"64399aad7b6bbcaef01d566b","study_id":"64370a36d30bfa807bc7e43c"},{"rt":2676,"response":{"prior knowledge":0,"curiosity":5},"accuracy":[],"trial_type":"survey","trial_index":63,"time_elapsed":265684,"internal_node_id":"0.0-3.0-1.14","prolific_id":"5f34962a2d121721dda7757e","session_id":"64399aad7b6bbcaef01d566b","study_id":"64370a36d30bfa807bc7e43c"},{"rt":null,"stimulus":"\n\t\t\t<div class=\"flip_card\">\n\t\t\t\t<div class=\"flip_card_inner\">\n\t\t\t\t\t<div class=\"flip_card_front\">\n\t\t\t\t\t\t<img src=img/14.png>\n\t\t\t\t\t</div>\n\t\t\t\t\t<div class=\"flip_card_back\">\n\t\t\t\t\t\t<h2>How many countries are in Africa?</h2>\n\t\t\t\t\t\t<br>\n\t\t\t\t\t\t<p>Answer: <strong>54</strong></p>\n\t\t\t\t\t</div>\n\t\t\t\t</div>\n\t\t\t</div>\n\t\t\t","response":null,"trial_type":"html-keyboard-response","trial_index":64,"time_elapsed":270686,"internal_node_id":"0.0-3.0-2.14","prolific_id":"5f34962a2d121721dda7757e","session_id":"64399aad7b6bbcaef01d566b","study_id":"64370a36d30bfa807bc7e43c"},{"rt":503,"stimulus":"\n\t\t\t\t\t<div>\n\t\t\t\t\t<h2>Trial 15 is over</h2>\n\t\t\t\t\t<p>Press <span style=\"color: red\"><strong>any key</strong></span> to continue to the next trial</p>\n\t\t\t\t\t</div>\n\t\t\t\t","response":" ","trial_type":"html-keyboard-response","trial_index":65,"time_elapsed":271192,"internal_node_id":"0.0-3.0-3.14","prolific_id":"5f34962a2d121721dda7757e","session_id":"64399aad7b6bbcaef01d566b","study_id":"64370a36d30bfa807bc7e43c"},{"rt":5319,"response":{"prediction":"10"},"trial_type":"survey-text","trial_index":66,"time_elapsed":276519,"internal_node_id":"0.0-3.0-0.15","prolific_id":"5f34962a2d121721dda7757e","session_id":"64399aad7b6bbcaef01d566b","study_id":"64370a36d30bfa807bc7e43c"},{"rt":3035,"response":{"prior knowledge":0,"curiosity":5},"accuracy":[],"trial_type":"survey","trial_index":67,"time_elapsed":279580,"internal_node_id":"0.0-3.0-1.15","prolific_id":"5f34962a2d121721dda7757e","session_id":"64399aad7b6bbcaef01d566b","study_id":"64370a36d30bfa807bc7e43c"},{"rt":null,"stimulus":"\n\t\t\t<div class=\"flip_card\">\n\t\t\t\t<div class=\"flip_card_inner\">\n\t\t\t\t\t<div class=\"flip_card_front\">\n\t\t\t\t\t\t<img src=img/4.png>\n\t\t\t\t\t</div>\n\t\t\t\t\t<div class=\"flip_card_back\">\n\t\t\t\t\t\t<h2>How many native species of kangaroos are found in Australia?</h2>\n\t\t\t\t\t\t<br>\n\t\t\t\t\t\t<p>Answer: <strong>4</strong></p>\n\t\t\t\t\t</div>\n\t\t\t\t</div>\n\t\t\t</div>\n\t\t\t","response":null,"trial_type":"html-keyboard-response","trial_index":68,"time_elapsed":284583,"internal_node_id":"0.0-3.0-2.15","prolific_id":"5f34962a2d121721dda7757e","session_id":"64399aad7b6bbcaef01d566b","study_id":"64370a36d30bfa807bc7e43c"},{"rt":551,"stimulus":"\n\t\t\t\t\t<div>\n\t\t\t\t\t<h2>Trial 16 is over</h2>\n\t\t\t\t\t<p>Press <span style=\"color: red\"><strong>any key</strong></span> to continue to the next trial</p>\n\t\t\t\t\t</div>\n\t\t\t\t","response":" ","trial_type":"html-keyboard-response","trial_index":69,"time_elapsed":285136,"internal_node_id":"0.0-3.0-3.15","prolific_id":"5f34962a2d121721dda7757e","session_id":"64399aad7b6bbcaef01d566b","study_id":"64370a36d30bfa807bc7e43c"},{"rt":2701,"response":{"prediction":"1989"},"trial_type":"survey-text","trial_index":70,"time_elapsed":287846,"internal_node_id":"0.0-3.0-0.16","prolific_id":"5f34962a2d121721dda7757e","session_id":"64399aad7b6bbcaef01d566b","study_id":"64370a36d30bfa807bc7e43c"},{"rt":2666,"response":{"prior knowledge":5,"curiosity":5},"accuracy":[],"trial_type":"survey","trial_index":71,"time_elapsed":290524,"internal_node_id":"0.0-3.0-1.16","prolific_id":"5f34962a2d121721dda7757e","session_id":"64399aad7b6bbcaef01d566b","study_id":"64370a36d30bfa807bc7e43c"},{"rt":null,"stimulus":"\n\t\t\t<div class=\"flip_card\">\n\t\t\t\t<div class=\"flip_card_inner\">\n\t\t\t\t\t<div class=\"flip_card_front\">\n\t\t\t\t\t\t<img src=img/13.png>\n\t\t\t\t\t</div>\n\t\t\t\t\t<div class=\"flip_card_back\">\n\t\t\t\t\t\t<h2>What year did the Berlin Wall fall?</h2>\n\t\t\t\t\t\t<br>\n\t\t\t\t\t\t<p>Answer: <strong>1989</strong></p>\n\t\t\t\t\t</div>\n\t\t\t\t</div>\n\t\t\t</div>\n\t\t\t","response":null,"trial_type":"html-keyboard-response","trial_index":72,"time_elapsed":295525,"internal_node_id":"0.0-3.0-2.16","prolific_id":"5f34962a2d121721dda7757e","session_id":"64399aad7b6bbcaef01d566b","study_id":"64370a36d30bfa807bc7e43c"},{"rt":709,"stimulus":"\n\t\t\t\t\t<div>\n\t\t\t\t\t<h2>Trial 17 is over</h2>\n\t\t\t\t\t<p>Press <span style=\"color: red\"><strong>any key</strong></span> to continue to the next trial</p>\n\t\t\t\t\t</div>\n\t\t\t\t","response":" ","trial_type":"html-keyboard-response","trial_index":73,"time_elapsed":296236,"internal_node_id":"0.0-3.0-3.16","prolific_id":"5f34962a2d121721dda7757e","session_id":"64399aad7b6bbcaef01d566b","study_id":"64370a36d30bfa807bc7e43c"},{"rt":10273,"response":{"prediction":"1919"},"trial_type":"survey-text","trial_index":74,"time_elapsed":306513,"internal_node_id":"0.0-3.0-0.17","prolific_id":"5f34962a2d121721dda7757e","session_id":"64399aad7b6bbcaef01d566b","study_id":"64370a36d30bfa807bc7e43c"},{"rt":3296,"response":{"prior knowledge":0,"curiosity":0},"accuracy":[],"trial_type":"survey","trial_index":75,"time_elapsed":309831,"internal_node_id":"0.0-3.0-1.17","prolific_id":"5f34962a2d121721dda7757e","session_id":"64399aad7b6bbcaef01d566b","study_id":"64370a36d30bfa807bc7e43c"},{"rt":null,"stimulus":"\n\t\t\t<div class=\"flip_card\">\n\t\t\t\t<div class=\"flip_card_inner\">\n\t\t\t\t\t<div class=\"flip_card_front\">\n\t\t\t\t\t\t<img src=img/10.png>\n\t\t\t\t\t</div>\n\t\t\t\t\t<div class=\"flip_card_back\">\n\t\t\t\t\t\t<h2>What year did the titanic sink?</h2>\n\t\t\t\t\t\t<br>\n\t\t\t\t\t\t<p>Answer: <strong>1912</strong></p>\n\t\t\t\t\t</div>\n\t\t\t\t</div>\n\t\t\t</div>\n\t\t\t","response":null,"trial_type":"html-keyboard-response","trial_index":76,"time_elapsed":314833,"internal_node_id":"0.0-3.0-2.17","prolific_id":"5f34962a2d121721dda7757e","session_id":"64399aad7b6bbcaef01d566b","study_id":"64370a36d30bfa807bc7e43c"},{"rt":559,"stimulus":"\n\t\t\t\t\t<div>\n\t\t\t\t\t<h2>Trial 18 is over</h2>\n\t\t\t\t\t<p>Press <span style=\"color: red\"><strong>any key</strong></span> to continue to the next trial</p>\n\t\t\t\t\t</div>\n\t\t\t\t","response":" ","trial_type":"html-keyboard-response","trial_index":77,"time_elapsed":315395,"internal_node_id":"0.0-3.0-3.17","prolific_id":"5f34962a2d121721dda7757e","session_id":"64399aad7b6bbcaef01d566b","study_id":"64370a36d30bfa807bc7e43c"},{"rt":2800,"response":{"prediction":"13"},"trial_type":"survey-text","trial_index":78,"time_elapsed":318203,"internal_node_id":"0.0-3.0-0.18","prolific_id":"5f34962a2d121721dda7757e","session_id":"64399aad7b6bbcaef01d566b","study_id":"64370a36d30bfa807bc7e43c"},{"rt":5277,"response":{"prior knowledge":2,"curiosity":0},"accuracy":[],"trial_type":"survey","trial_index":79,"time_elapsed":323499,"internal_node_id":"0.0-3.0-1.18","prolific_id":"5f34962a2d121721dda7757e","session_id":"64399aad7b6bbcaef01d566b","study_id":"64370a36d30bfa807bc7e43c"},{"rt":null,"stimulus":"\n\t\t\t<div class=\"flip_card\">\n\t\t\t\t<div class=\"flip_card_inner\">\n\t\t\t\t\t<div class=\"flip_card_front\">\n\t\t\t\t\t\t<img src=img/30.png>\n\t\t\t\t\t</div>\n\t\t\t\t\t<div class=\"flip_card_back\">\n\t\t\t\t\t\t<h2>How much is in a Baker's Dozen?</h2>\n\t\t\t\t\t\t<br>\n\t\t\t\t\t\t<p>Answer: <strong>13</strong></p>\n\t\t\t\t\t</div>\n\t\t\t\t</div>\n\t\t\t</div>\n\t\t\t","response":null,"trial_type":"html-keyboard-response","trial_index":80,"time_elapsed":328502,"internal_node_id":"0.0-3.0-2.18","prolific_id":"5f34962a2d121721dda7757e","session_id":"64399aad7b6bbcaef01d566b","study_id":"64370a36d30bfa807bc7e43c"},{"rt":706,"stimulus":"\n\t\t\t\t\t<div>\n\t\t\t\t\t<h2>Trial 19 is over</h2>\n\t\t\t\t\t<p>Press <span style=\"color: red\"><strong>any key</strong></span> to continue to the next trial</p>\n\t\t\t\t\t</div>\n\t\t\t\t","response":" ","trial_type":"html-keyboard-response","trial_index":81,"time_elapsed":329210,"internal_node_id":"0.0-3.0-3.18","prolific_id":"5f34962a2d121721dda7757e","session_id":"64399aad7b6bbcaef01d566b","study_id":"64370a36d30bfa807bc7e43c"},{"rt":3956,"response":{"prediction":"12"},"trial_type":"survey-text","trial_index":82,"time_elapsed":333176,"internal_node_id":"0.0-3.0-0.19","prolific_id":"5f34962a2d121721dda7757e","session_id":"64399aad7b6bbcaef01d566b","study_id":"64370a36d30bfa807bc7e43c"},{"rt":3744,"response":{"prior knowledge":0,"curiosity":5},"accuracy":[],"trial_type":"survey","trial_index":83,"time_elapsed":336940,"internal_node_id":"0.0-3.0-1.19","prolific_id":"5f34962a2d121721dda7757e","session_id":"64399aad7b6bbcaef01d566b","study_id":"64370a36d30bfa807bc7e43c"},{"rt":null,"stimulus":"\n\t\t\t<div class=\"flip_card\">\n\t\t\t\t<div class=\"flip_card_inner\">\n\t\t\t\t\t<div class=\"flip_card_front\">\n\t\t\t\t\t\t<img src=img/27.png>\n\t\t\t\t\t</div>\n\t\t\t\t\t<div class=\"flip_card_back\">\n\t\t\t\t\t\t<h2>How many different animals (real or imaginary) are represented in the Chinese calendar?</h2>\n\t\t\t\t\t\t<br>\n\t\t\t\t\t\t<p>Answer: <strong>12</strong></p>\n\t\t\t\t\t</div>\n\t\t\t\t</div>\n\t\t\t</div>\n\t\t\t","response":null,"trial_type":"html-keyboard-response","trial_index":84,"time_elapsed":341943,"internal_node_id":"0.0-3.0-2.19","prolific_id":"5f34962a2d121721dda7757e","session_id":"64399aad7b6bbcaef01d566b","study_id":"64370a36d30bfa807bc7e43c"},{"rt":620,"stimulus":"\n\t\t\t\t\t<div>\n\t\t\t\t\t<h2>Trial 20 is over</h2>\n\t\t\t\t\t<p>Press <span style=\"color: red\"><strong>any key</strong></span> to continue to the next trial</p>\n\t\t\t\t\t</div>\n\t\t\t\t","response":" ","trial_type":"html-keyboard-response","trial_index":85,"time_elapsed":342568,"internal_node_id":"0.0-3.0-3.19","prolific_id":"5f34962a2d121721dda7757e","session_id":"64399aad7b6bbcaef01d566b","study_id":"64370a36d30bfa807bc7e43c"},{"rt":4781,"response":{"prediction":"1901"},"trial_type":"survey-text","trial_index":86,"time_elapsed":347358,"internal_node_id":"0.0-3.0-0.20","prolific_id":"5f34962a2d121721dda7757e","session_id":"64399aad7b6bbcaef01d566b","study_id":"64370a36d30bfa807bc7e43c"},{"rt":3652,"response":{"prior knowledge":0,"curiosity":3},"accuracy":[],"trial_type":"survey","trial_index":87,"time_elapsed":351033,"internal_node_id":"0.0-3.0-1.20","prolific_id":"5f34962a2d121721dda7757e","session_id":"64399aad7b6bbcaef01d566b","study_id":"64370a36d30bfa807bc7e43c"},{"rt":null,"stimulus":"\n\t\t\t<div class=\"flip_card\">\n\t\t\t\t<div class=\"flip_card_inner\">\n\t\t\t\t\t<div class=\"flip_card_front\">\n\t\t\t\t\t\t<img src=img/26.png>\n\t\t\t\t\t</div>\n\t\t\t\t\t<div class=\"flip_card_back\">\n\t\t\t\t\t\t<h2>In what year was the first Nobel Prize awarded?</h2>\n\t\t\t\t\t\t<br>\n\t\t\t\t\t\t<p>Answer: <strong>1901</strong></p>\n\t\t\t\t\t</div>\n\t\t\t\t</div>\n\t\t\t</div>\n\t\t\t","response":null,"trial_type":"html-keyboard-response","trial_index":88,"time_elapsed":356037,"internal_node_id":"0.0-3.0-2.20","prolific_id":"5f34962a2d121721dda7757e","session_id":"64399aad7b6bbcaef01d566b","study_id":"64370a36d30bfa807bc7e43c"},{"rt":677,"stimulus":"\n\t\t\t\t\t<div>\n\t\t\t\t\t<h2>Trial 21 is over</h2>\n\t\t\t\t\t<p>Press <span style=\"color: red\"><strong>any key</strong></span> to continue to the next trial</p>\n\t\t\t\t\t</div>\n\t\t\t\t","response":" ","trial_type":"html-keyboard-response","trial_index":89,"time_elapsed":356715,"internal_node_id":"0.0-3.0-3.20","prolific_id":"5f34962a2d121721dda7757e","session_id":"64399aad7b6bbcaef01d566b","study_id":"64370a36d30bfa807bc7e43c"},{"rt":11892,"response":{"prediction":"1880"},"trial_type":"survey-text","trial_index":90,"time_elapsed":368614,"internal_node_id":"0.0-3.0-0.21","prolific_id":"5f34962a2d121721dda7757e","session_id":"64399aad7b6bbcaef01d566b","study_id":"64370a36d30bfa807bc7e43c"},{"rt":4149,"response":{"prior knowledge":0,"curiosity":3},"accuracy":[],"trial_type":"survey","trial_index":91,"time_elapsed":372778,"internal_node_id":"0.0-3.0-1.21","prolific_id":"5f34962a2d121721dda7757e","session_id":"64399aad7b6bbcaef01d566b","study_id":"64370a36d30bfa807bc7e43c"},{"rt":null,"stimulus":"\n\t\t\t<div class=\"flip_card\">\n\t\t\t\t<div class=\"flip_card_inner\">\n\t\t\t\t\t<div class=\"flip_card_front\">\n\t\t\t\t\t\t<img src=img/9.png>\n\t\t\t\t\t</div>\n\t\t\t\t\t<div class=\"flip_card_back\">\n\t\t\t\t\t\t<h2>In what year was the Mexican artist Frida Kahlo born?</h2>\n\t\t\t\t\t\t<br>\n\t\t\t\t\t\t<p>Answer: <strong>1907</strong></p>\n\t\t\t\t\t</div>\n\t\t\t\t</div>\n\t\t\t</div>\n\t\t\t","response":null,"trial_type":"html-keyboard-response","trial_index":92,"time_elapsed":377781,"internal_node_id":"0.0-3.0-2.21","prolific_id":"5f34962a2d121721dda7757e","session_id":"64399aad7b6bbcaef01d566b","study_id":"64370a36d30bfa807bc7e43c"},{"rt":693,"stimulus":"\n\t\t\t\t\t<div>\n\t\t\t\t\t<h2>Trial 22 is over</h2>\n\t\t\t\t\t<p>Press <span style=\"color: red\"><strong>any key</strong></span> to continue to the next trial</p>\n\t\t\t\t\t</div>\n\t\t\t\t","response":" ","trial_type":"html-keyboard-response","trial_index":93,"time_elapsed":378477,"internal_node_id":"0.0-3.0-3.21","prolific_id":"5f34962a2d121721dda7757e","session_id":"64399aad7b6bbcaef01d566b","study_id":"64370a36d30bfa807bc7e43c"},{"rt":4162,"response":{"prediction":"4"},"trial_type":"survey-text","trial_index":94,"time_elapsed":382647,"internal_node_id":"0.0-3.0-0.22","prolific_id":"5f34962a2d121721dda7757e","session_id":"64399aad7b6bbcaef01d566b","study_id":"64370a36d30bfa807bc7e43c"},{"rt":2959,"response":{"prior knowledge":0,"curiosity":0},"accuracy":[],"trial_type":"survey","trial_index":95,"time_elapsed":385624,"internal_node_id":"0.0-3.0-1.22","prolific_id":"5f34962a2d121721dda7757e","session_id":"64399aad7b6bbcaef01d566b","study_id":"64370a36d30bfa807bc7e43c"},{"rt":null,"stimulus":"\n\t\t\t<div class=\"flip_card\">\n\t\t\t\t<div class=\"flip_card_inner\">\n\t\t\t\t\t<div class=\"flip_card_front\">\n\t\t\t\t\t\t<img src=img/21.png>\n\t\t\t\t\t</div>\n\t\t\t\t\t<div class=\"flip_card_back\">\n\t\t\t\t\t\t<h2>How many countries in Africa have French as the official language?</h2>\n\t\t\t\t\t\t<br>\n\t\t\t\t\t\t<p>Answer: <strong>21</strong></p>\n\t\t\t\t\t</div>\n\t\t\t\t</div>\n\t\t\t</div>\n\t\t\t","response":null,"trial_type":"html-keyboard-response","trial_index":96,"time_elapsed":390627,"internal_node_id":"0.0-3.0-2.22","prolific_id":"5f34962a2d121721dda7757e","session_id":"64399aad7b6bbcaef01d566b","study_id":"64370a36d30bfa807bc7e43c"},{"rt":591,"stimulus":"\n\t\t\t\t\t<div>\n\t\t\t\t\t<h2>Trial 23 is over</h2>\n\t\t\t\t\t<p>Press <span style=\"color: red\"><strong>any key</strong></span> to continue to the next trial</p>\n\t\t\t\t\t</div>\n\t\t\t\t","response":" ","trial_type":"html-keyboard-response","trial_index":97,"time_elapsed":391220,"internal_node_id":"0.0-3.0-3.22","prolific_id":"5f34962a2d121721dda7757e","session_id":"64399aad7b6bbcaef01d566b","study_id":"64370a36d30bfa807bc7e43c"},{"rt":8627,"response":{"prediction":"88000000"},"trial_type":"survey-text","trial_index":98,"time_elapsed":399855,"internal_node_id":"0.0-3.0-0.23","prolific_id":"5f34962a2d121721dda7757e","session_id":"64399aad7b6bbcaef01d566b","study_id":"64370a36d30bfa807bc7e43c"},{"rt":2823,"response":{"prior knowledge":0,"curiosity":0},"accuracy":[],"trial_type":"survey","trial_index":99,"time_elapsed":402695,"internal_node_id":"0.0-3.0-1.23","prolific_id":"5f34962a2d121721dda7757e","session_id":"64399aad7b6bbcaef01d566b","study_id":"64370a36d30bfa807bc7e43c"},{"rt":null,"stimulus":"\n\t\t\t<div class=\"flip_card\">\n\t\t\t\t<div class=\"flip_card_inner\">\n\t\t\t\t\t<div class=\"flip_card_front\">\n\t\t\t\t\t\t<img src=img/24.png>\n\t\t\t\t\t</div>\n\t\t\t\t\t<div class=\"flip_card_back\">\n\t\t\t\t\t\t<h2>What is the diameter of Earth in miles?</h2>\n\t\t\t\t\t\t<br>\n\t\t\t\t\t\t<p>Answer: <strong>7917.5</strong></p>\n\t\t\t\t\t</div>\n\t\t\t\t</div>\n\t\t\t</div>\n\t\t\t","response":null,"trial_type":"html-keyboard-response","trial_index":100,"time_elapsed":407698,"internal_node_id":"0.0-3.0-2.23","prolific_id":"5f34962a2d121721dda7757e","session_id":"64399aad7b6bbcaef01d566b","study_id":"64370a36d30bfa807bc7e43c"},{"rt":577,"stimulus":"\n\t\t\t\t\t<div>\n\t\t\t\t\t<h2>Trial 24 is over</h2>\n\t\t\t\t\t<p>Press <span style=\"color: red\"><strong>any key</strong></span> to continue to the next trial</p>\n\t\t\t\t\t</div>\n\t\t\t\t","response":" ","trial_type":"html-keyboard-response","trial_index":101,"time_elapsed":408279,"internal_node_id":"0.0-3.0-3.23","prolific_id":"5f34962a2d121721dda7757e","session_id":"64399aad7b6bbcaef01d566b","study_id":"64370a36d30bfa807bc7e43c"},{"rt":9084,"response":{"prediction":"20"},"trial_type":"survey-text","trial_index":102,"time_elapsed":417372,"internal_node_id":"0.0-3.0-0.24","prolific_id":"5f34962a2d121721dda7757e","session_id":"64399aad7b6bbcaef01d566b","study_id":"64370a36d30bfa807bc7e43c"},{"rt":3407,"response":{"prior knowledge":0,"curiosity":4},"accuracy":[],"trial_type":"survey","trial_index":103,"time_elapsed":420802,"internal_node_id":"0.0-3.0-1.24","prolific_id":"5f34962a2d121721dda7757e","session_id":"64399aad7b6bbcaef01d566b","study_id":"64370a36d30bfa807bc7e43c"},{"rt":null,"stimulus":"\n\t\t\t<div class=\"flip_card\">\n\t\t\t\t<div class=\"flip_card_inner\">\n\t\t\t\t\t<div class=\"flip_card_front\">\n\t\t\t\t\t\t<img src=img/16.png>\n\t\t\t\t\t</div>\n\t\t\t\t\t<div class=\"flip_card_back\">\n\t\t\t\t\t\t<h2>How old was King Tut when he died?</h2>\n\t\t\t\t\t\t<br>\n\t\t\t\t\t\t<p>Answer: <strong>19</strong></p>\n\t\t\t\t\t</div>\n\t\t\t\t</div>\n\t\t\t</div>\n\t\t\t","response":null,"trial_type":"html-keyboard-response","trial_index":104,"time_elapsed":425806,"internal_node_id":"0.0-3.0-2.24","prolific_id":"5f34962a2d121721dda7757e","session_id":"64399aad7b6bbcaef01d566b","study_id":"64370a36d30bfa807bc7e43c"},{"rt":459,"stimulus":"\n\t\t\t\t\t<div>\n\t\t\t\t\t<h2>Trial 25 is over</h2>\n\t\t\t\t\t<p>Press <span style=\"color: red\"><strong>any key</strong></span> to continue to the next trial</p>\n\t\t\t\t\t</div>\n\t\t\t\t","response":" ","trial_type":"html-keyboard-response","trial_index":105,"time_elapsed":426279,"internal_node_id":"0.0-3.0-3.24","prolific_id":"5f34962a2d121721dda7757e","session_id":"64399aad7b6bbcaef01d566b","study_id":"64370a36d30bfa807bc7e43c"},{"rt":3337,"response":{"prediction":"5"},"trial_type":"survey-text","trial_index":106,"time_elapsed":429626,"internal_node_id":"0.0-3.0-0.25","prolific_id":"5f34962a2d121721dda7757e","session_id":"64399aad7b6bbcaef01d566b","study_id":"64370a36d30bfa807bc7e43c"},{"rt":2983,"response":{"prior knowledge":0,"curiosity":0},"accuracy":[],"trial_type":"survey","trial_index":107,"time_elapsed":432630,"internal_node_id":"0.0-3.0-1.25","prolific_id":"5f34962a2d121721dda7757e","session_id":"64399aad7b6bbcaef01d566b","study_id":"64370a36d30bfa807bc7e43c"},{"rt":null,"stimulus":"\n\t\t\t<div class=\"flip_card\">\n\t\t\t\t<div class=\"flip_card_inner\">\n\t\t\t\t\t<div class=\"flip_card_front\">\n\t\t\t\t\t\t<img src=img/2.png>\n\t\t\t\t\t</div>\n\t\t\t\t\t<div class=\"flip_card_back\">\n\t\t\t\t\t\t<h2>How many countries have territory in the Arctic Circle?</h2>\n\t\t\t\t\t\t<br>\n\t\t\t\t\t\t<p>Answer: <strong>8</strong></p>\n\t\t\t\t\t</div>\n\t\t\t\t</div>\n\t\t\t</div>\n\t\t\t","response":null,"trial_type":"html-keyboard-response","trial_index":108,"time_elapsed":437632,"internal_node_id":"0.0-3.0-2.25","prolific_id":"5f34962a2d121721dda7757e","session_id":"64399aad7b6bbcaef01d566b","study_id":"64370a36d30bfa807bc7e43c"},{"rt":2229,"stimulus":"\n\t\t\t\t\t<div>\n\t\t\t\t\t<h2>Trial 26 is over</h2>\n\t\t\t\t\t<p>Press <span style=\"color: red\"><strong>any key</strong></span> to continue to the next trial</p>\n\t\t\t\t\t</div>\n\t\t\t\t","response":" ","trial_type":"html-keyboard-response","trial_index":109,"time_elapsed":439924,"internal_node_id":"0.0-3.0-3.25","prolific_id":"5f34962a2d121721dda7757e","session_id":"64399aad7b6bbcaef01d566b","study_id":"64370a36d30bfa807bc7e43c"},{"rt":3371,"response":{"prediction":"500"},"trial_type":"survey-text","trial_index":110,"time_elapsed":443303,"internal_node_id":"0.0-3.0-0.26","prolific_id":"5f34962a2d121721dda7757e","session_id":"64399aad7b6bbcaef01d566b","study_id":"64370a36d30bfa807bc7e43c"},{"rt":2684,"response":{"prior knowledge":0,"curiosity":0},"accuracy":[],"trial_type":"survey","trial_index":111,"time_elapsed":446002,"internal_node_id":"0.0-3.0-1.26","prolific_id":"5f34962a2d121721dda7757e","session_id":"64399aad7b6bbcaef01d566b","study_id":"64370a36d30bfa807bc7e43c"},{"rt":null,"stimulus":"\n\t\t\t<div class=\"flip_card\">\n\t\t\t\t<div class=\"flip_card_inner\">\n\t\t\t\t\t<div class=\"flip_card_front\">\n\t\t\t\t\t\t<img src=img/29.png>\n\t\t\t\t\t</div>\n\t\t\t\t\t<div class=\"flip_card_back\">\n\t\t\t\t\t\t<h2>How long is the Great Wall of China (in miles)?</h2>\n\t\t\t\t\t\t<br>\n\t\t\t\t\t\t<p>Answer: <strong>13171</strong></p>\n\t\t\t\t\t</div>\n\t\t\t\t</div>\n\t\t\t</div>\n\t\t\t","response":null,"trial_type":"html-keyboard-response","trial_index":112,"time_elapsed":451004,"internal_node_id":"0.0-3.0-2.26","prolific_id":"5f34962a2d121721dda7757e","session_id":"64399aad7b6bbcaef01d566b","study_id":"64370a36d30bfa807bc7e43c"},{"rt":1690,"stimulus":"\n\t\t\t\t\t<div>\n\t\t\t\t\t<h2>Trial 27 is over</h2>\n\t\t\t\t\t<p>Press <span style=\"color: red\"><strong>any key</strong></span> to continue to the next trial</p>\n\t\t\t\t\t</div>\n\t\t\t\t","response":" ","trial_type":"html-keyboard-response","trial_index":113,"time_elapsed":452696,"internal_node_id":"0.0-3.0-3.26","prolific_id":"5f34962a2d121721dda7757e","session_id":"64399aad7b6bbcaef01d566b","study_id":"64370a36d30bfa807bc7e43c"},{"rt":7355,"response":{"prediction":"50"},"trial_type":"survey-text","trial_index":114,"time_elapsed":460058,"internal_node_id":"0.0-3.0-0.27","prolific_id":"5f34962a2d121721dda7757e","session_id":"64399aad7b6bbcaef01d566b","study_id":"64370a36d30bfa807bc7e43c"},{"rt":3993,"response":{"prior knowledge":0,"curiosity":5},"accuracy":[],"trial_type":"survey","trial_index":115,"time_elapsed":464069,"internal_node_id":"0.0-3.0-1.27","prolific_id":"5f34962a2d121721dda7757e","session_id":"64399aad7b6bbcaef01d566b","study_id":"64370a36d30bfa807bc7e43c"},{"rt":null,"stimulus":"\n\t\t\t<div class=\"flip_card\">\n\t\t\t\t<div class=\"flip_card_inner\">\n\t\t\t\t\t<div class=\"flip_card_front\">\n\t\t\t\t\t\t<img src=img/1.png>\n\t\t\t\t\t</div>\n\t\t\t\t\t<div class=\"flip_card_back\">\n\t\t\t\t\t\t<h2>How many floors are in the Burj Khalifa, the tallest building in the world?</h2>\n\t\t\t\t\t\t<br>\n\t\t\t\t\t\t<p>Answer: <strong>163</strong></p>\n\t\t\t\t\t</div>\n\t\t\t\t</div>\n\t\t\t</div>\n\t\t\t","response":null,"trial_type":"html-keyboard-response","trial_index":116,"time_elapsed":469073,"internal_node_id":"0.0-3.0-2.27","prolific_id":"5f34962a2d121721dda7757e","session_id":"64399aad7b6bbcaef01d566b","study_id":"64370a36d30bfa807bc7e43c"},{"rt":438,"stimulus":"\n\t\t\t\t\t<div>\n\t\t\t\t\t<h2>Trial 28 is over</h2>\n\t\t\t\t\t<p>Press <span style=\"color: red\"><strong>any key</strong></span> to continue to the next trial</p>\n\t\t\t\t\t</div>\n\t\t\t\t","response":" ","trial_type":"html-keyboard-response","trial_index":117,"time_elapsed":469514,"internal_node_id":"0.0-3.0-3.27","prolific_id":"5f34962a2d121721dda7757e","session_id":"64399aad7b6bbcaef01d566b","study_id":"64370a36d30bfa807bc7e43c"},{"rt":3889,"response":{"prediction":"12"},"trial_type":"survey-text","trial_index":118,"time_elapsed":473414,"internal_node_id":"0.0-3.0-0.28","prolific_id":"5f34962a2d121721dda7757e","session_id":"64399aad7b6bbcaef01d566b","study_id":"64370a36d30bfa807bc7e43c"},{"rt":4652,"response":{"prior knowledge":0,"curiosity":2},"accuracy":[],"trial_type":"survey","trial_index":119,"time_elapsed":478085,"internal_node_id":"0.0-3.0-1.28","prolific_id":"5f34962a2d121721dda7757e","session_id":"64399aad7b6bbcaef01d566b","study_id":"64370a36d30bfa807bc7e43c"},{"rt":null,"stimulus":"\n\t\t\t<div class=\"flip_card\">\n\t\t\t\t<div class=\"flip_card_inner\">\n\t\t\t\t\t<div class=\"flip_card_front\">\n\t\t\t\t\t\t<img src=img/6.png>\n\t\t\t\t\t</div>\n\t\t\t\t\t<div class=\"flip_card_back\">\n\t\t\t\t\t\t<h2>A bar mitzvah is traditionally celebrated when Jewish males turn what age?</h2>\n\t\t\t\t\t\t<br>\n\t\t\t\t\t\t<p>Answer: <strong>13</strong></p>\n\t\t\t\t\t</div>\n\t\t\t\t</div>\n\t\t\t</div>\n\t\t\t","response":null,"trial_type":"html-keyboard-response","trial_index":120,"time_elapsed":483088,"internal_node_id":"0.0-3.0-2.28","prolific_id":"5f34962a2d121721dda7757e","session_id":"64399aad7b6bbcaef01d566b","study_id":"64370a36d30bfa807bc7e43c"},{"rt":717,"stimulus":"\n\t\t\t\t\t<div>\n\t\t\t\t\t<h2>Trial 29 is over</h2>\n\t\t\t\t\t<p>Press <span style=\"color: red\"><strong>any key</strong></span> to continue to the next trial</p>\n\t\t\t\t\t</div>\n\t\t\t\t","response":" ","trial_type":"html-keyboard-response","trial_index":121,"time_elapsed":483806,"internal_node_id":"0.0-3.0-3.28","prolific_id":"5f34962a2d121721dda7757e","session_id":"64399aad7b6bbcaef01d566b","study_id":"64370a36d30bfa807bc7e43c"},{"rt":2930,"response":{"prediction":"5"},"trial_type":"survey-text","trial_index":122,"time_elapsed":486744,"internal_node_id":"0.0-3.0-0.29","prolific_id":"5f34962a2d121721dda7757e","session_id":"64399aad7b6bbcaef01d566b","study_id":"64370a36d30bfa807bc7e43c"},{"rt":3862,"response":{"prior knowledge":0,"curiosity":3},"accuracy":[],"trial_type":"survey","trial_index":123,"time_elapsed":490621,"internal_node_id":"0.0-3.0-1.29","prolific_id":"5f34962a2d121721dda7757e","session_id":"64399aad7b6bbcaef01d566b","study_id":"64370a36d30bfa807bc7e43c"},{"rt":null,"stimulus":"\n\t\t\t<div class=\"flip_card\">\n\t\t\t\t<div class=\"flip_card_inner\">\n\t\t\t\t\t<div class=\"flip_card_front\">\n\t\t\t\t\t\t<img src=img/3.png>\n\t\t\t\t\t</div>\n\t\t\t\t\t<div class=\"flip_card_back\">\n\t\t\t\t\t\t<h2>How many tones are in the Vietnamese language?</h2>\n\t\t\t\t\t\t<br>\n\t\t\t\t\t\t<p>Answer: <strong>6</strong></p>\n\t\t\t\t\t</div>\n\t\t\t\t</div>\n\t\t\t</div>\n\t\t\t","response":null,"trial_type":"html-keyboard-response","trial_index":124,"time_elapsed":495624,"internal_node_id":"0.0-3.0-2.29","prolific_id":"5f34962a2d121721dda7757e","session_id":"64399aad7b6bbcaef01d566b","study_id":"64370a36d30bfa807bc7e43c"},{"rt":700,"stimulus":"\n\t\t\t\t\t<div>\n\t\t\t\t\t<h2>Trial 30 is over</h2>\n\t\t\t\t\t<p>Press <span style=\"color: red\"><strong>any key</strong></span> to continue to the next trial</p>\n\t\t\t\t\t</div>\n\t\t\t\t","response":" ","trial_type":"html-keyboard-response","trial_index":125,"time_elapsed":496326,"internal_node_id":"0.0-3.0-3.29","prolific_id":"5f34962a2d121721dda7757e","session_id":"64399aad7b6bbcaef01d566b","study_id":"64370a36d30bfa807bc7e43c"},{"rt":null,"stimulus":"\n\t\t\t<h2>Good job! You've finished the 30 trials:p</h2>\n\t\t\t<p>In the next session, you will see two cards on the screen in each trial.</p>\n\t\t\t<p>On one card is a pattern that you have seen before in the experiment,\n\t\t\t\tand on the other card is one you have not seen.</p><br>\n\t\t\t<p>Your task is to choose the one you think you <em>have</em> seen before for every trial.</p>\n\t\t\t<p>Press '<span style=\"color: red;\"><strong>F</strong></span>' to choose the card on the left,\n\t\t\t\tand '<span style=\"color: red;\"><strong>J</strong></span>' to choose the card on the right.</p>\n\t\t\t<p>Have fun!</p>\n\t\t\t<br>\n\t\t\t<p>The trials will begin in 30 seconds</p>\n\t\t\t","response":null,"trial_type":"html-keyboard-response","trial_index":126,"time_elapsed":526328,"internal_node_id":"0.0-4.0","prolific_id":"5f34962a2d121721dda7757e","session_id":"64399aad7b6bbcaef01d566b","study_id":"64370a36d30bfa807bc7e43c"},{"rt":2174,"stimulus":"\n\t\t\t\t\t\t<div class=\"two_card_container\">\n\t\t\t\t\t\t<div class=\"card_container\">\n\t\t\t\t\t\t<img src=img/34.png>\n\t\t\t\t\t\t</div>\n\n\t\t\t\t\t\t<div class=\"card_container\">\n\t\t\t\t\t\t<img src=img/22.png>\n\t\t\t\t\t\t</div>","response":"j","task":"response","correct_response":"j","trial_type":"html-keyboard-response","trial_index":127,"time_elapsed":528507,"internal_node_id":"0.0-5.0-0.0","prolific_id":"5f34962a2d121721dda7757e","session_id":"64399aad7b6bbcaef01d566b","study_id":"64370a36d30bfa807bc7e43c","correct":true},{"rt":null,"stimulus":"\n\t\t\t\t\t<p>Correct!</p>\n\t\t\t\t\t","response":null,"trial_type":"html-keyboard-response","trial_index":128,"time_elapsed":529512,"internal_node_id":"0.0-5.0-1.0","prolific_id":"5f34962a2d121721dda7757e","session_id":"64399aad7b6bbcaef01d566b","study_id":"64370a36d30bfa807bc7e43c"},{"rt":2027,"stimulus":"\n\t\t\t\t\t\t<div class=\"two_card_container\">\n\t\t\t\t\t\t<div class=\"card_container\">\n\t\t\t\t\t\t<img src=img/32.png>\n\t\t\t\t\t\t</div>\n\n\t\t\t\t\t\t<div class=\"card_container\">\n\t\t\t\t\t\t<img src=img/15.png>\n\t\t\t\t\t\t</div>","response":"j","task":"response","correct_response":"j","trial_type":"html-keyboard-response","trial_index":129,"time_elapsed":531542,"internal_node_id":"0.0-5.0-0.1","prolific_id":"5f34962a2d121721dda7757e","session_id":"64399aad7b6bbcaef01d566b","study_id":"64370a36d30bfa807bc7e43c","correct":true},{"rt":null,"stimulus":"\n\t\t\t\t\t<p>Correct!</p>\n\t\t\t\t\t","response":null,"trial_type":"html-keyboard-response","trial_index":130,"time_elapsed":532545,"internal_node_id":"0.0-5.0-1.1","prolific_id":"5f34962a2d121721dda7757e","session_id":"64399aad7b6bbcaef01d566b","study_id":"64370a36d30bfa807bc7e43c"},{"rt":1573,"stimulus":"\n\t\t\t\t\t\t<div class=\"two_card_container\">\n\t\t\t\t\t\t<div class=\"card_container\">\n\t\t\t\t\t\t<img src=img/14.png>\n\t\t\t\t\t\t</div>\n\n\t\t\t\t\t\t<div class=\"card_container\">\n\t\t\t\t\t\t<img src=img/38.png>\n\t\t\t\t\t\t</div>","response":"f","task":"response","correct_response":"f","trial_type":"html-keyboard-response","trial_index":131,"time_elapsed":534119,"internal_node_id":"0.0-5.0-0.2","prolific_id":"5f34962a2d121721dda7757e","session_id":"64399aad7b6bbcaef01d566b","study_id":"64370a36d30bfa807bc7e43c","correct":true},{"rt":null,"stimulus":"\n\t\t\t\t\t<p>Correct!</p>\n\t\t\t\t\t","response":null,"trial_type":"html-keyboard-response","trial_index":132,"time_elapsed":535123,"internal_node_id":"0.0-5.0-1.2","prolific_id":"5f34962a2d121721dda7757e","session_id":"64399aad7b6bbcaef01d566b","study_id":"64370a36d30bfa807bc7e43c"},{"rt":1509,"stimulus":"\n\t\t\t\t\t\t<div class=\"two_card_container\">\n\t\t\t\t\t\t<div class=\"card_container\">\n\t\t\t\t\t\t<img src=img/13.png>\n\t\t\t\t\t\t</div>\n\n\t\t\t\t\t\t<div class=\"card_container\">\n\t\t\t\t\t\t<img src=img/33.png>\n\t\t\t\t\t\t</div>","response":"f","task":"response","correct_response":"f","trial_type":"html-keyboard-response","trial_index":133,"time_elapsed":536633,"internal_node_id":"0.0-5.0-0.3","prolific_id":"5f34962a2d121721dda7757e","session_id":"64399aad7b6bbcaef01d566b","study_id":"64370a36d30bfa807bc7e43c","correct":true},{"rt":null,"stimulus":"\n\t\t\t\t\t<p>Correct!</p>\n\t\t\t\t\t","response":null,"trial_type":"html-keyboard-response","trial_index":134,"time_elapsed":537638,"internal_node_id":"0.0-5.0-1.3","prolific_id":"5f34962a2d121721dda7757e","session_id":"64399aad7b6bbcaef01d566b","study_id":"64370a36d30bfa807bc7e43c"},{"rt":2031,"stimulus":"\n\t\t\t\t\t\t<div class=\"two_card_container\">\n\t\t\t\t\t\t<div class=\"card_container\">\n\t\t\t\t\t\t<img src=img/27.png>\n\t\t\t\t\t\t</div>\n\n\t\t\t\t\t\t<div class=\"card_container\">\n\t\t\t\t\t\t<img src=img/35.png>\n\t\t\t\t\t\t</div>","response":"f","task":"response","correct_response":"f","trial_type":"html-keyboard-response","trial_index":135,"time_elapsed":539672,"internal_node_id":"0.0-5.0-0.4","prolific_id":"5f34962a2d121721dda7757e","session_id":"64399aad7b6bbcaef01d566b","study_id":"64370a36d30bfa807bc7e43c","correct":true},{"rt":null,"stimulus":"\n\t\t\t\t\t<p>Correct!</p>\n\t\t\t\t\t","response":null,"trial_type":"html-keyboard-response","trial_index":136,"time_elapsed":540674,"internal_node_id":"0.0-5.0-1.4","prolific_id":"5f34962a2d121721dda7757e","session_id":"64399aad7b6bbcaef01d566b","study_id":"64370a36d30bfa807bc7e43c"},{"rt":1627,"stimulus":"\n\t\t\t\t\t\t<div class=\"two_card_container\">\n\t\t\t\t\t\t<div class=\"card_container\">\n\t\t\t\t\t\t<img src=img/31.png>\n\t\t\t\t\t\t</div>\n\n\t\t\t\t\t\t<div class=\"card_container\">\n\t\t\t\t\t\t<img src=img/26.png>\n\t\t\t\t\t\t</div>","response":"j","task":"response","correct_response":"j","trial_type":"html-keyboard-response","trial_index":137,"time_elapsed":542303,"internal_node_id":"0.0-5.0-0.5","prolific_id":"5f34962a2d121721dda7757e","session_id":"64399aad7b6bbcaef01d566b","study_id":"64370a36d30bfa807bc7e43c","correct":true},{"rt":null,"stimulus":"\n\t\t\t\t\t<p>Correct!</p>\n\t\t\t\t\t","response":null,"trial_type":"html-keyboard-response","trial_index":138,"time_elapsed":543307,"internal_node_id":"0.0-5.0-1.5","prolific_id":"5f34962a2d121721dda7757e","session_id":"64399aad7b6bbcaef01d566b","study_id":"64370a36d30bfa807bc7e43c"},{"rt":1512,"stimulus":"\n\t\t\t\t\t\t<div class=\"two_card_container\">\n\t\t\t\t\t\t<div class=\"card_container\">\n\t\t\t\t\t\t<img src=img/7.png>\n\t\t\t\t\t\t</div>\n\n\t\t\t\t\t\t<div class=\"card_container\">\n\t\t\t\t\t\t<img src=img/36.png>\n\t\t\t\t\t\t</div>","response":"f","task":"response","correct_response":"f","trial_type":"html-keyboard-response","trial_index":139,"time_elapsed":544821,"internal_node_id":"0.0-5.0-0.6","prolific_id":"5f34962a2d121721dda7757e","session_id":"64399aad7b6bbcaef01d566b","study_id":"64370a36d30bfa807bc7e43c","correct":true},{"rt":null,"stimulus":"\n\t\t\t\t\t<p>Correct!</p>\n\t\t\t\t\t","response":null,"trial_type":"html-keyboard-response","trial_index":140,"time_elapsed":545826,"internal_node_id":"0.0-5.0-1.6","prolific_id":"5f34962a2d121721dda7757e","session_id":"64399aad7b6bbcaef01d566b","study_id":"64370a36d30bfa807bc7e43c"},{"rt":1878,"stimulus":"\n\t\t\t\t\t\t<div class=\"two_card_container\">\n\t\t\t\t\t\t<div class=\"card_container\">\n\t\t\t\t\t\t<img src=img/37.png>\n\t\t\t\t\t\t</div>\n\n\t\t\t\t\t\t<div class=\"card_container\">\n\t\t\t\t\t\t<img src=img/23.png>\n\t\t\t\t\t\t</div>","response":"j","task":"response","correct_response":"j","trial_type":"html-keyboard-response","trial_index":141,"time_elapsed":547706,"internal_node_id":"0.0-5.0-0.7","prolific_id":"5f34962a2d121721dda7757e","session_id":"64399aad7b6bbcaef01d566b","study_id":"64370a36d30bfa807bc7e43c","correct":true},{"rt":null,"stimulus":"\n\t\t\t\t\t<p>Correct!</p>\n\t\t\t\t\t","response":null,"trial_type":"html-keyboard-response","trial_index":142,"time_elapsed":548709,"internal_node_id":"0.0-5.0-1.7","prolific_id":"5f34962a2d121721dda7757e","session_id":"64399aad7b6bbcaef01d566b","study_id":"64370a36d30bfa807bc7e43c"},{"rt":1715,"stimulus":"\n\t\t\t\t\t\t<div class=\"two_card_container\">\n\t\t\t\t\t\t<div class=\"card_container\">\n\t\t\t\t\t\t<img src=img/25.png>\n\t\t\t\t\t\t</div>\n\n\t\t\t\t\t\t<div class=\"card_container\">\n\t\t\t\t\t\t<img src=img/39.png>\n\t\t\t\t\t\t</div>","response":"f","task":"response","correct_response":"f","trial_type":"html-keyboard-response","trial_index":143,"time_elapsed":550432,"internal_node_id":"0.0-5.0-0.8","prolific_id":"5f34962a2d121721dda7757e","session_id":"64399aad7b6bbcaef01d566b","study_id":"64370a36d30bfa807bc7e43c","correct":true},{"rt":null,"stimulus":"\n\t\t\t\t\t<p>Correct!</p>\n\t\t\t\t\t","response":null,"trial_type":"html-keyboard-response","trial_index":144,"time_elapsed":551436,"internal_node_id":"0.0-5.0-1.8","prolific_id":"5f34962a2d121721dda7757e","session_id":"64399aad7b6bbcaef01d566b","study_id":"64370a36d30bfa807bc7e43c"},{"rt":2458,"stimulus":"\n\t\t\t\t\t\t<div class=\"two_card_container\">\n\t\t\t\t\t\t<div class=\"card_container\">\n\t\t\t\t\t\t<img src=img/40.png>\n\t\t\t\t\t\t</div>\n\n\t\t\t\t\t\t<div class=\"card_container\">\n\t\t\t\t\t\t<img src=img/19.png>\n\t\t\t\t\t\t</div>","response":"j","task":"response","correct_response":"j","trial_type":"html-keyboard-response","trial_index":145,"time_elapsed":553896,"internal_node_id":"0.0-5.0-0.9","prolific_id":"5f34962a2d121721dda7757e","session_id":"64399aad7b6bbcaef01d566b","study_id":"64370a36d30bfa807bc7e43c","correct":true},{"rt":null,"stimulus":"\n\t\t\t\t\t<p>Correct!</p>\n\t\t\t\t\t","response":null,"trial_type":"html-keyboard-response","trial_index":146,"time_elapsed":554902,"internal_node_id":"0.0-5.0-1.9","prolific_id":"5f34962a2d121721dda7757e","session_id":"64399aad7b6bbcaef01d566b","study_id":"64370a36d30bfa807bc7e43c"},{"rt":null,"stimulus":"\n\t\t\t<h2>Good job :p</h2>\n\t\t\t<p>In the next session, you will see a trivia question on the screen in each trial.</p>\n\t\t\t<p>Each of these trivia questions is chosen from the questions you have already seen in the first session of the experiment.</p><br>\n\t\t\t<p>Your task is to answer the trivia question based on what you remember as accurately as you can.</p>\n\t\t\t<p>Have fun!</p>\n\t\t\t<br>\n\t\t\t<p>The trials will begin in 30 seconds</p>\n\t\t\t","response":null,"trial_type":"html-keyboard-response","trial_index":147,"time_elapsed":584903,"internal_node_id":"0.0-6.0","prolific_id":"5f34962a2d121721dda7757e","session_id":"64399aad7b6bbcaef01d566b","study_id":"64370a36d30bfa807bc7e43c"},{"rt":3416,"response":{"answer":"108"},"task":"response","correct_response":"108","trial_type":"survey-text","trial_index":148,"time_elapsed":588330,"internal_node_id":"0.0-7.0-0.0","prolific_id":"5f34962a2d121721dda7757e","session_id":"64399aad7b6bbcaef01d566b","study_id":"64370a36d30bfa807bc7e43c","difference":0},{"rt":null,"stimulus":"<h2>The correct answer is 108.</h2><p>Your answer was different from the answer by 0.</p><p>You got the right answer. Amazing work!</p>","response":null,"trial_type":"html-keyboard-response","trial_index":149,"time_elapsed":590832,"internal_node_id":"0.0-7.0-1.0","prolific_id":"5f34962a2d121721dda7757e","session_id":"64399aad7b6bbcaef01d566b","study_id":"64370a36d30bfa807bc7e43c"},{"rt":4553,"response":{"answer":"18"},"task":"response","correct_response":"14","trial_type":"survey-text","trial_index":150,"time_elapsed":595394,"internal_node_id":"0.0-7.0-0.1","prolific_id":"5f34962a2d121721dda7757e","session_id":"64399aad7b6bbcaef01d566b","study_id":"64370a36d30bfa807bc7e43c","difference":29},{"rt":null,"stimulus":"<h2>The correct answer is 14.</h2><p>Your answer was different from the answer by 4.</p><p>A pretty good job indeed.</p>","response":null,"trial_type":"html-keyboard-response","trial_index":151,"time_elapsed":597896,"internal_node_id":"0.0-7.0-1.1","prolific_id":"5f34962a2d121721dda7757e","session_id":"64399aad7b6bbcaef01d566b","study_id":"64370a36d30bfa807bc7e43c"},{"rt":2144,"response":{"answer":"300"},"task":"response","correct_response":"300","trial_type":"survey-text","trial_index":152,"time_elapsed":600048,"internal_node_id":"0.0-7.0-0.2","prolific_id":"5f34962a2d121721dda7757e","session_id":"64399aad7b6bbcaef01d566b","study_id":"64370a36d30bfa807bc7e43c","difference":0},{"rt":null,"stimulus":"<h2>The correct answer is 300.</h2><p>Your answer was different from the answer by 0.</p><p>You got the right answer. Amazing work!</p>","response":null,"trial_type":"html-keyboard-response","trial_index":153,"time_elapsed":602552,"internal_node_id":"0.0-7.0-1.2","prolific_id":"5f34962a2d121721dda7757e","session_id":"64399aad7b6bbcaef01d566b","study_id":"64370a36d30bfa807bc7e43c"},{"rt":2032,"response":{"answer":"1901"},"task":"response","correct_response":"1901","trial_type":"survey-text","trial_index":154,"time_elapsed":604592,"internal_node_id":"0.0-7.0-0.3","prolific_id":"5f34962a2d121721dda7757e","session_id":"64399aad7b6bbcaef01d566b","study_id":"64370a36d30bfa807bc7e43c","difference":0},{"rt":null,"stimulus":"<h2>The correct answer is 1901.</h2><p>Your answer was different from the answer by 0.</p><p>You got the right answer. Amazing work!</p>","response":null,"trial_type":"html-keyboard-response","trial_index":155,"time_elapsed":607094,"internal_node_id":"0.0-7.0-1.3","prolific_id":"5f34962a2d121721dda7757e","session_id":"64399aad7b6bbcaef01d566b","study_id":"64370a36d30bfa807bc7e43c"},{"rt":3200,"response":{"answer":"4"},"task":"response","correct_response":"6","trial_type":"survey-text","trial_index":156,"time_elapsed":610302,"internal_node_id":"0.0-7.0-0.4","prolific_id":"5f34962a2d121721dda7757e","session_id":"64399aad7b6bbcaef01d566b","study_id":"64370a36d30bfa807bc7e43c","difference":33},{"rt":null,"stimulus":"<h2>The correct answer is 6.</h2><p>Your answer was different from the answer by 2.</p><p>Not the worst. Can you do better on the next?</p>","response":null,"trial_type":"html-keyboard-response","trial_index":157,"time_elapsed":612806,"internal_node_id":"0.0-7.0-1.4","prolific_id":"5f34962a2d121721dda7757e","session_id":"64399aad7b6bbcaef01d566b","study_id":"64370a36d30bfa807bc7e43c"},{"rt":4349,"response":{"answer":"1909"},"task":"response","correct_response":"1907","trial_type":"survey-text","trial_index":158,"time_elapsed":617162,"internal_node_id":"0.0-7.0-0.5","prolific_id":"5f34962a2d121721dda7757e","session_id":"64399aad7b6bbcaef01d566b","study_id":"64370a36d30bfa807bc7e43c","difference":0},{"rt":null,"stimulus":"<h2>The correct answer is 1907.</h2><p>Your answer was different from the answer by 2.</p><p>Excellent. Kudos to you!</p>","response":null,"trial_type":"html-keyboard-response","trial_index":159,"time_elapsed":619664,"internal_node_id":"0.0-7.0-1.5","prolific_id":"5f34962a2d121721dda7757e","session_id":"64399aad7b6bbcaef01d566b","study_id":"64370a36d30bfa807bc7e43c"},{"rt":2002,"response":{"answer":"5"},"task":"response","correct_response":"5","trial_type":"survey-text","trial_index":160,"time_elapsed":621679,"internal_node_id":"0.0-7.0-0.6","prolific_id":"5f34962a2d121721dda7757e","session_id":"64399aad7b6bbcaef01d566b","study_id":"64370a36d30bfa807bc7e43c","difference":0},{"rt":null,"stimulus":"<h2>The correct answer is 5.</h2><p>Your answer was different from the answer by 0.</p><p>You got the right answer. Amazing work!</p>","response":null,"trial_type":"html-keyboard-response","trial_index":161,"time_elapsed":624181,"internal_node_id":"0.0-7.0-1.6","prolific_id":"5f34962a2d121721dda7757e","session_id":"64399aad7b6bbcaef01d566b","study_id":"64370a36d30bfa807bc7e43c"},{"rt":5629,"response":{"answer":"1912"},"task":"response","correct_response":"1912","trial_type":"survey-text","trial_index":162,"time_elapsed":629819,"internal_node_id":"0.0-7.0-0.7","prolific_id":"5f34962a2d121721dda7757e","session_id":"64399aad7b6bbcaef01d566b","study_id":"64370a36d30bfa807bc7e43c","difference":0},{"rt":null,"stimulus":"<h2>The correct answer is 1912.</h2><p>Your answer was different from the answer by 0.</p><p>You got the right answer. Amazing work!</p>","response":null,"trial_type":"html-keyboard-response","trial_index":163,"time_elapsed":632321,"internal_node_id":"0.0-7.0-1.7","prolific_id":"5f34962a2d121721dda7757e","session_id":"64399aad7b6bbcaef01d566b","study_id":"64370a36d30bfa807bc7e43c"},{"rt":1886,"response":{"answer":"8"},"task":"response","correct_response":"8","trial_type":"survey-text","trial_index":164,"time_elapsed":634215,"internal_node_id":"0.0-7.0-0.8","prolific_id":"5f34962a2d121721dda7757e","session_id":"64399aad7b6bbcaef01d566b","study_id":"64370a36d30bfa807bc7e43c","difference":0},{"rt":null,"stimulus":"<h2>The correct answer is 8.</h2><p>Your answer was different from the answer by 0.</p><p>You got the right answer. Amazing work!</p>","response":null,"trial_type":"html-keyboard-response","trial_index":165,"time_elapsed":636716,"internal_node_id":"0.0-7.0-1.8","prolific_id":"5f34962a2d121721dda7757e","session_id":"64399aad7b6bbcaef01d566b","study_id":"64370a36d30bfa807bc7e43c"},{"rt":2857,"response":{"answer":"53"},"task":"response","correct_response":"54","trial_type":"survey-text","trial_index":166,"time_elapsed":639581,"internal_node_id":"0.0-7.0-0.9","prolific_id":"5f34962a2d121721dda7757e","session_id":"64399aad7b6bbcaef01d566b","study_id":"64370a36d30bfa807bc7e43c","difference":2},{"rt":null,"stimulus":"<h2>The correct answer is 54.</h2><p>Your answer was different from the answer by 1.</p><p>Excellent. Kudos to you!</p>","response":null,"trial_type":"html-keyboard-response","trial_index":167,"time_elapsed":642084,"internal_node_id":"0.0-7.0-1.9","prolific_id":"5f34962a2d121721dda7757e","session_id":"64399aad7b6bbcaef01d566b","study_id":"64370a36d30bfa807bc7e43c"}]