[{"success":true,"timeout":false,"failed_images":[],"failed_audio":[],"failed_video":[],"trial_type":"preload","trial_index":0,"time_elapsed":10610,"internal_node_id":"0.0-0.0","prolific_id":"6109484d0714b6d80806c4f0","session_id":"64399a9a7396b0821a9a06e0","study_id":"64370a36d30bfa807bc7e43c"},{"rt":2778,"stimulus":"\n\t\t\t\t\t<p>Welcome and thank you for participating in this study!</p>\n\t\t\t\t\t<p>In each trial, you will be given a trivia question and then be asked to:</p><br>\n\t\t\t\t\t<div class=\"list\">\n\t\t\t\t\t<p>1) Predict the answer</p>\n\t\t\t\t\t<p>2) Rate how much you already know about the topic</p>\n\t\t\t\t\t<p>3) Rate how much you want to know the answer</p>\n\t\t\t\t\t</div>\n\t\t\t\t\t<br>\n\t\t\t\t\t<p>Then, you will see a card that flips over to reveal the answer.</p>\n\t\t\t\t\t<br>\n\t\t\t\t\t<p>Let's try a practice round. Press <span style=\"color: red\"><strong>any key</strong></span> to move to the next slide</p>\n\t\t\t\t\t","response":" ","trial_type":"html-keyboard-response","trial_index":1,"time_elapsed":13390,"internal_node_id":"0.0-1.0","prolific_id":"6109484d0714b6d80806c4f0","session_id":"64399a9a7396b0821a9a06e0","study_id":"64370a36d30bfa807bc7e43c"},{"rt":4741,"response":{"practice prediction":"14"},"task":"practice","trial_type":"survey-text","trial_index":2,"time_elapsed":18145,"internal_node_id":"0.0-2.0-0.0","prolific_id":"6109484d0714b6d80806c4f0","session_id":"64399a9a7396b0821a9a06e0","study_id":"64370a36d30bfa807bc7e43c"},{"rt":6196,"response":{"practice":3},"accuracy":[],"trial_type":"survey","trial_index":3,"time_elapsed":24378,"internal_node_id":"0.0-2.0-1.0","prolific_id":"6109484d0714b6d80806c4f0","session_id":"64399a9a7396b0821a9a06e0","study_id":"64370a36d30bfa807bc7e43c"},{"rt":null,"stimulus":"\n\t\t\t\t<div class=\"flip_card\">\n\t\t\t\t\t<div class=\"flip_card_inner\">\n\t\t\t\t\t\t<div class=\"flip_card_front\">\n\t\t\t\t\t\t\t<img src=img/practice.png>\n\t\t\t\t\t\t</div>\n\t\t\t\t\t\t<div class=\"flip_card_back\">\n\t\t\t\t\t\t\t<h2>\"How many legs does a lobster have?\"</h2>\n\t\t\t\t\t\t    <br>\n\t\t\t\t\t\t    <p>Answer: <strong>\"10\"</strong></p>\n\t\t\t\t\t    </div>\n\t\t\t\t    </div>\n\t\t\t    </div>\n\t\t\t\t","response":null,"trial_type":"html-keyboard-response","trial_index":4,"time_elapsed":29382,"internal_node_id":"0.0-2.0-2.0","prolific_id":"6109484d0714b6d80806c4f0","session_id":"64399a9a7396b0821a9a06e0","study_id":"64370a36d30bfa807bc7e43c"},{"rt":1011,"stimulus":"\n\t\t\t\t\t<div>\n\t\t\t\t\t<h2>The practice round is over</h2>\n\t\t\t\t\t<p>Press <span style=\"color: red\"><strong>any key</strong></span> to continue to the actual trials</p>\n\t\t\t\t\t<p>Good Luck!</p>\n\t\t\t\t\t</div>\n\t\t\t\t\t","response":" ","trial_type":"html-keyboard-response","trial_index":5,"time_elapsed":30394,"internal_node_id":"0.0-2.0-3.0","prolific_id":"6109484d0714b6d80806c4f0","session_id":"64399a9a7396b0821a9a06e0","study_id":"64370a36d30bfa807bc7e43c"},{"rt":10540,"response":{"prediction":"6"},"trial_type":"survey-text","trial_index":6,"time_elapsed":40938,"internal_node_id":"0.0-3.0-0.0","prolific_id":"6109484d0714b6d80806c4f0","session_id":"64399a9a7396b0821a9a06e0","study_id":"64370a36d30bfa807bc7e43c"},{"rt":4526,"response":{"prior knowledge":1,"curiosity":3},"accuracy":[],"trial_type":"survey","trial_index":7,"time_elapsed":45479,"internal_node_id":"0.0-3.0-1.0","prolific_id":"6109484d0714b6d80806c4f0","session_id":"64399a9a7396b0821a9a06e0","study_id":"64370a36d30bfa807bc7e43c"},{"rt":null,"stimulus":"\n\t\t\t<div class=\"flip_card\">\n\t\t\t\t<div class=\"flip_card_inner\">\n\t\t\t\t\t<div class=\"flip_card_front\">\n\t\t\t\t\t\t<img src=img/13.png>\n\t\t\t\t\t</div>\n\t\t\t\t\t<div class=\"flip_card_back\">\n\t\t\t\t\t\t<h2>How many countries have territory in the Arctic Circle?</h2>\n\t\t\t\t\t\t<br>\n\t\t\t\t\t\t<p>Answer: <strong>8</strong></p>\n\t\t\t\t\t</div>\n\t\t\t\t</div>\n\t\t\t</div>\n\t\t\t","response":null,"trial_type":"html-keyboard-response","trial_index":8,"time_elapsed":50485,"internal_node_id":"0.0-3.0-2.0","prolific_id":"6109484d0714b6d80806c4f0","session_id":"64399a9a7396b0821a9a06e0","study_id":"64370a36d30bfa807bc7e43c"},{"rt":1518,"stimulus":"\n\t\t\t\t\t<div>\n\t\t\t\t\t<h2>Trial 1 is over</h2>\n\t\t\t\t\t<p>Press <span style=\"color: red\"><strong>any key</strong></span> to continue to the next trial</p>\n\t\t\t\t\t</div>\n\t\t\t\t","response":"j","trial_type":"html-keyboard-response","trial_index":9,"time_elapsed":52004,"internal_node_id":"0.0-3.0-3.0","prolific_id":"6109484d0714b6d80806c4f0","session_id":"64399a9a7396b0821a9a06e0","study_id":"64370a36d30bfa807bc7e43c"},{"rt":5015,"response":{"prediction":"1983"},"trial_type":"survey-text","trial_index":10,"time_elapsed":57022,"internal_node_id":"0.0-3.0-0.1","prolific_id":"6109484d0714b6d80806c4f0","session_id":"64399a9a7396b0821a9a06e0","study_id":"64370a36d30bfa807bc7e43c"},{"rt":4493,"response":{"prior knowledge":3,"curiosity":4},"accuracy":[],"trial_type":"survey","trial_index":11,"time_elapsed":61526,"internal_node_id":"0.0-3.0-1.1","prolific_id":"6109484d0714b6d80806c4f0","session_id":"64399a9a7396b0821a9a06e0","study_id":"64370a36d30bfa807bc7e43c"},{"rt":null,"stimulus":"\n\t\t\t<div class=\"flip_card\">\n\t\t\t\t<div class=\"flip_card_inner\">\n\t\t\t\t\t<div class=\"flip_card_front\">\n\t\t\t\t\t\t<img src=img/28.png>\n\t\t\t\t\t</div>\n\t\t\t\t\t<div class=\"flip_card_back\">\n\t\t\t\t\t\t<h2>What year did the Berlin Wall fall?</h2>\n\t\t\t\t\t\t<br>\n\t\t\t\t\t\t<p>Answer: <strong>1989</strong></p>\n\t\t\t\t\t</div>\n\t\t\t\t</div>\n\t\t\t</div>\n\t\t\t","response":null,"trial_type":"html-keyboard-response","trial_index":12,"time_elapsed":66533,"internal_node_id":"0.0-3.0-2.1","prolific_id":"6109484d0714b6d80806c4f0","session_id":"64399a9a7396b0821a9a06e0","study_id":"64370a36d30bfa807bc7e43c"},{"rt":1243,"stimulus":"\n\t\t\t\t\t<div>\n\t\t\t\t\t<h2>Trial 2 is over</h2>\n\t\t\t\t\t<p>Press <span style=\"color: red\"><strong>any key</strong></span> to continue to the next trial</p>\n\t\t\t\t\t</div>\n\t\t\t\t","response":"i","trial_type":"html-keyboard-response","trial_index":13,"time_elapsed":67777,"internal_node_id":"0.0-3.0-3.1","prolific_id":"6109484d0714b6d80806c4f0","session_id":"64399a9a7396b0821a9a06e0","study_id":"64370a36d30bfa807bc7e43c"},{"rt":4975,"response":{"prediction":"1924"},"trial_type":"survey-text","trial_index":14,"time_elapsed":72755,"internal_node_id":"0.0-3.0-0.2","prolific_id":"6109484d0714b6d80806c4f0","session_id":"64399a9a7396b0821a9a06e0","study_id":"64370a36d30bfa807bc7e43c"},{"rt":4385,"response":{"prior knowledge":0,"curiosity":2},"accuracy":[],"trial_type":"survey","trial_index":15,"time_elapsed":77159,"internal_node_id":"0.0-3.0-1.2","prolific_id":"6109484d0714b6d80806c4f0","session_id":"64399a9a7396b0821a9a06e0","study_id":"64370a36d30bfa807bc7e43c"},{"rt":null,"stimulus":"\n\t\t\t<div class=\"flip_card\">\n\t\t\t\t<div class=\"flip_card_inner\">\n\t\t\t\t\t<div class=\"flip_card_front\">\n\t\t\t\t\t\t<img src=img/22.png>\n\t\t\t\t\t</div>\n\t\t\t\t\t<div class=\"flip_card_back\">\n\t\t\t\t\t\t<h2>In what year was the Mexican artist Frida Kahlo born?</h2>\n\t\t\t\t\t\t<br>\n\t\t\t\t\t\t<p>Answer: <strong>1907</strong></p>\n\t\t\t\t\t</div>\n\t\t\t\t</div>\n\t\t\t</div>\n\t\t\t","response":null,"trial_type":"html-keyboard-response","trial_index":16,"time_elapsed":82164,"internal_node_id":"0.0-3.0-2.2","prolific_id":"6109484d0714b6d80806c4f0","session_id":"64399a9a7396b0821a9a06e0","study_id":"64370a36d30bfa807bc7e43c"},{"rt":814,"stimulus":"\n\t\t\t\t\t<div>\n\t\t\t\t\t<h2>Trial 3 is over</h2>\n\t\t\t\t\t<p>Press <span style=\"color: red\"><strong>any key</strong></span> to continue to the next trial</p>\n\t\t\t\t\t</div>\n\t\t\t\t","response":"b","trial_type":"html-keyboard-response","trial_index":17,"time_elapsed":82980,"internal_node_id":"0.0-3.0-3.2","prolific_id":"6109484d0714b6d80806c4f0","session_id":"64399a9a7396b0821a9a06e0","study_id":"64370a36d30bfa807bc7e43c"},{"rt":4821,"response":{"prediction":"67"},"trial_type":"survey-text","trial_index":18,"time_elapsed":87803,"internal_node_id":"0.0-3.0-0.3","prolific_id":"6109484d0714b6d80806c4f0","session_id":"64399a9a7396b0821a9a06e0","study_id":"64370a36d30bfa807bc7e43c"},{"rt":3995,"response":{"prior knowledge":1,"curiosity":4},"accuracy":[],"trial_type":"survey","trial_index":19,"time_elapsed":91809,"internal_node_id":"0.0-3.0-1.3","prolific_id":"6109484d0714b6d80806c4f0","session_id":"64399a9a7396b0821a9a06e0","study_id":"64370a36d30bfa807bc7e43c"},{"rt":null,"stimulus":"\n\t\t\t<div class=\"flip_card\">\n\t\t\t\t<div class=\"flip_card_inner\">\n\t\t\t\t\t<div class=\"flip_card_front\">\n\t\t\t\t\t\t<img src=img/19.png>\n\t\t\t\t\t</div>\n\t\t\t\t\t<div class=\"flip_card_back\">\n\t\t\t\t\t\t<h2>How many countries are in Africa?</h2>\n\t\t\t\t\t\t<br>\n\t\t\t\t\t\t<p>Answer: <strong>54</strong></p>\n\t\t\t\t\t</div>\n\t\t\t\t</div>\n\t\t\t</div>\n\t\t\t","response":null,"trial_type":"html-keyboard-response","trial_index":20,"time_elapsed":96822,"internal_node_id":"0.0-3.0-2.3","prolific_id":"6109484d0714b6d80806c4f0","session_id":"64399a9a7396b0821a9a06e0","study_id":"64370a36d30bfa807bc7e43c"},{"rt":1868,"stimulus":"\n\t\t\t\t\t<div>\n\t\t\t\t\t<h2>Trial 4 is over</h2>\n\t\t\t\t\t<p>Press <span style=\"color: red\"><strong>any key</strong></span> to continue to the next trial</p>\n\t\t\t\t\t</div>\n\t\t\t\t","response":"w","trial_type":"html-keyboard-response","trial_index":21,"time_elapsed":98691,"internal_node_id":"0.0-3.0-3.3","prolific_id":"6109484d0714b6d80806c4f0","session_id":"64399a9a7396b0821a9a06e0","study_id":"64370a36d30bfa807bc7e43c"},{"rt":3795,"response":{"prediction":"34"},"trial_type":"survey-text","trial_index":22,"time_elapsed":102488,"internal_node_id":"0.0-3.0-0.4","prolific_id":"6109484d0714b6d80806c4f0","session_id":"64399a9a7396b0821a9a06e0","study_id":"64370a36d30bfa807bc7e43c"},{"rt":3650,"response":{"prior knowledge":0,"curiosity":0},"accuracy":[],"trial_type":"survey","trial_index":23,"time_elapsed":106157,"internal_node_id":"0.0-3.0-1.4","prolific_id":"6109484d0714b6d80806c4f0","session_id":"64399a9a7396b0821a9a06e0","study_id":"64370a36d30bfa807bc7e43c"},{"rt":null,"stimulus":"\n\t\t\t<div class=\"flip_card\">\n\t\t\t\t<div class=\"flip_card_inner\">\n\t\t\t\t\t<div class=\"flip_card_front\">\n\t\t\t\t\t\t<img src=img/10.png>\n\t\t\t\t\t</div>\n\t\t\t\t\t<div class=\"flip_card_back\">\n\t\t\t\t\t\t<h2>How many books has Stephen King published?</h2>\n\t\t\t\t\t\t<br>\n\t\t\t\t\t\t<p>Answer: <strong>65</strong></p>\n\t\t\t\t\t</div>\n\t\t\t\t</div>\n\t\t\t</div>\n\t\t\t","response":null,"trial_type":"html-keyboard-response","trial_index":24,"time_elapsed":111163,"internal_node_id":"0.0-3.0-2.4","prolific_id":"6109484d0714b6d80806c4f0","session_id":"64399a9a7396b0821a9a06e0","study_id":"64370a36d30bfa807bc7e43c"},{"rt":2400,"stimulus":"\n\t\t\t\t\t<div>\n\t\t\t\t\t<h2>Trial 5 is over</h2>\n\t\t\t\t\t<p>Press <span style=\"color: red\"><strong>any key</strong></span> to continue to the next trial</p>\n\t\t\t\t\t</div>\n\t\t\t\t","response":"j","trial_type":"html-keyboard-response","trial_index":25,"time_elapsed":113565,"internal_node_id":"0.0-3.0-3.4","prolific_id":"6109484d0714b6d80806c4f0","session_id":"64399a9a7396b0821a9a06e0","study_id":"64370a36d30bfa807bc7e43c"},{"rt":5737,"response":{"prediction":"3674"},"trial_type":"survey-text","trial_index":26,"time_elapsed":119304,"internal_node_id":"0.0-3.0-0.5","prolific_id":"6109484d0714b6d80806c4f0","session_id":"64399a9a7396b0821a9a06e0","study_id":"64370a36d30bfa807bc7e43c"},{"rt":4121,"response":{"prior knowledge":1,"curiosity":0},"accuracy":[],"trial_type":"survey","trial_index":27,"time_elapsed":123442,"internal_node_id":"0.0-3.0-1.5","prolific_id":"6109484d0714b6d80806c4f0","session_id":"64399a9a7396b0821a9a06e0","study_id":"64370a36d30bfa807bc7e43c"},{"rt":null,"stimulus":"\n\t\t\t<div class=\"flip_card\">\n\t\t\t\t<div class=\"flip_card_inner\">\n\t\t\t\t\t<div class=\"flip_card_front\">\n\t\t\t\t\t\t<img src=img/23.png>\n\t\t\t\t\t</div>\n\t\t\t\t\t<div class=\"flip_card_back\">\n\t\t\t\t\t\t<h2>How long is the Great Wall of China (in miles)?</h2>\n\t\t\t\t\t\t<br>\n\t\t\t\t\t\t<p>Answer: <strong>13171</strong></p>\n\t\t\t\t\t</div>\n\t\t\t\t</div>\n\t\t\t</div>\n\t\t\t","response":null,"trial_type":"html-keyboard-response","trial_index":28,"time_elapsed":128451,"internal_node_id":"0.0-3.0-2.5","prolific_id":"6109484d0714b6d80806c4f0","session_id":"64399a9a7396b0821a9a06e0","study_id":"64370a36d30bfa807bc7e43c"},{"rt":1456,"stimulus":"\n\t\t\t\t\t<div>\n\t\t\t\t\t<h2>Trial 6 is over</h2>\n\t\t\t\t\t<p>Press <span style=\"color: red\"><strong>any key</strong></span> to continue to the next trial</p>\n\t\t\t\t\t</div>\n\t\t\t\t","response":"i","trial_type":"html-keyboard-response","trial_index":29,"time_elapsed":129908,"internal_node_id":"0.0-3.0-3.5","prolific_id":"6109484d0714b6d80806c4f0","session_id":"64399a9a7396b0821a9a06e0","study_id":"64370a36d30bfa807bc7e43c"},{"rt":5384,"response":{"prediction":"72"},"trial_type":"survey-text","trial_index":30,"time_elapsed":135295,"internal_node_id":"0.0-3.0-0.6","prolific_id":"6109484d0714b6d80806c4f0","session_id":"64399a9a7396b0821a9a06e0","study_id":"64370a36d30bfa807bc7e43c"},{"rt":4246,"response":{"prior knowledge":0,"curiosity":0},"accuracy":[],"trial_type":"survey","trial_index":31,"time_elapsed":139559,"internal_node_id":"0.0-3.0-1.6","prolific_id":"6109484d0714b6d80806c4f0","session_id":"64399a9a7396b0821a9a06e0","study_id":"64370a36d30bfa807bc7e43c"},{"rt":null,"stimulus":"\n\t\t\t<div class=\"flip_card\">\n\t\t\t\t<div class=\"flip_card_inner\">\n\t\t\t\t\t<div class=\"flip_card_front\">\n\t\t\t\t\t\t<img src=img/11.png>\n\t\t\t\t\t</div>\n\t\t\t\t\t<div class=\"flip_card_back\">\n\t\t\t\t\t\t<h2>How many constellations are there?</h2>\n\t\t\t\t\t\t<br>\n\t\t\t\t\t\t<p>Answer: <strong>88</strong></p>\n\t\t\t\t\t</div>\n\t\t\t\t</div>\n\t\t\t</div>\n\t\t\t","response":null,"trial_type":"html-keyboard-response","trial_index":32,"time_elapsed":144562,"internal_node_id":"0.0-3.0-2.6","prolific_id":"6109484d0714b6d80806c4f0","session_id":"64399a9a7396b0821a9a06e0","study_id":"64370a36d30bfa807bc7e43c"},{"rt":942,"stimulus":"\n\t\t\t\t\t<div>\n\t\t\t\t\t<h2>Trial 7 is over</h2>\n\t\t\t\t\t<p>Press <span style=\"color: red\"><strong>any key</strong></span> to continue to the next trial</p>\n\t\t\t\t\t</div>\n\t\t\t\t","response":"n","trial_type":"html-keyboard-response","trial_index":33,"time_elapsed":145505,"internal_node_id":"0.0-3.0-3.6","prolific_id":"6109484d0714b6d80806c4f0","session_id":"64399a9a7396b0821a9a06e0","study_id":"64370a36d30bfa807bc7e43c"},{"rt":3628,"response":{"prediction":"106"},"trial_type":"survey-text","trial_index":34,"time_elapsed":149137,"internal_node_id":"0.0-3.0-0.7","prolific_id":"6109484d0714b6d80806c4f0","session_id":"64399a9a7396b0821a9a06e0","study_id":"64370a36d30bfa807bc7e43c"},{"rt":3987,"response":{"prior knowledge":3,"curiosity":2},"accuracy":[],"trial_type":"survey","trial_index":35,"time_elapsed":153142,"internal_node_id":"0.0-3.0-1.7","prolific_id":"6109484d0714b6d80806c4f0","session_id":"64399a9a7396b0821a9a06e0","study_id":"64370a36d30bfa807bc7e43c"},{"rt":null,"stimulus":"\n\t\t\t<div class=\"flip_card\">\n\t\t\t\t<div class=\"flip_card_inner\">\n\t\t\t\t\t<div class=\"flip_card_front\">\n\t\t\t\t\t\t<img src=img/27.png>\n\t\t\t\t\t</div>\n\t\t\t\t\t<div class=\"flip_card_back\">\n\t\t\t\t\t\t<h2>How many bones is a human baby born with?</h2>\n\t\t\t\t\t\t<br>\n\t\t\t\t\t\t<p>Answer: <strong>300</strong></p>\n\t\t\t\t\t</div>\n\t\t\t\t</div>\n\t\t\t</div>\n\t\t\t","response":null,"trial_type":"html-keyboard-response","trial_index":36,"time_elapsed":158147,"internal_node_id":"0.0-3.0-2.7","prolific_id":"6109484d0714b6d80806c4f0","session_id":"64399a9a7396b0821a9a06e0","study_id":"64370a36d30bfa807bc7e43c"},{"rt":3235,"stimulus":"\n\t\t\t\t\t<div>\n\t\t\t\t\t<h2>Trial 8 is over</h2>\n\t\t\t\t\t<p>Press <span style=\"color: red\"><strong>any key</strong></span> to continue to the next trial</p>\n\t\t\t\t\t</div>\n\t\t\t\t","response":"j","trial_type":"html-keyboard-response","trial_index":37,"time_elapsed":161383,"internal_node_id":"0.0-3.0-3.7","prolific_id":"6109484d0714b6d80806c4f0","session_id":"64399a9a7396b0821a9a06e0","study_id":"64370a36d30bfa807bc7e43c"},{"rt":3535,"response":{"prediction":"2"},"trial_type":"survey-text","trial_index":38,"time_elapsed":164921,"internal_node_id":"0.0-3.0-0.8","prolific_id":"6109484d0714b6d80806c4f0","session_id":"64399a9a7396b0821a9a06e0","study_id":"64370a36d30bfa807bc7e43c"},{"rt":3019,"response":{"prior knowledge":1,"curiosity":4},"accuracy":[],"trial_type":"survey","trial_index":39,"time_elapsed":167958,"internal_node_id":"0.0-3.0-1.8","prolific_id":"6109484d0714b6d80806c4f0","session_id":"64399a9a7396b0821a9a06e0","study_id":"64370a36d30bfa807bc7e43c"},{"rt":null,"stimulus":"\n\t\t\t<div class=\"flip_card\">\n\t\t\t\t<div class=\"flip_card_inner\">\n\t\t\t\t\t<div class=\"flip_card_front\">\n\t\t\t\t\t\t<img src=img/4.png>\n\t\t\t\t\t</div>\n\t\t\t\t\t<div class=\"flip_card_back\">\n\t\t\t\t\t\t<h2>How many times a day do Muslims pray?</h2>\n\t\t\t\t\t\t<br>\n\t\t\t\t\t\t<p>Answer: <strong>5</strong></p>\n\t\t\t\t\t</div>\n\t\t\t\t</div>\n\t\t\t</div>\n\t\t\t","response":null,"trial_type":"html-keyboard-response","trial_index":40,"time_elapsed":172961,"internal_node_id":"0.0-3.0-2.8","prolific_id":"6109484d0714b6d80806c4f0","session_id":"64399a9a7396b0821a9a06e0","study_id":"64370a36d30bfa807bc7e43c"},{"rt":1421,"stimulus":"\n\t\t\t\t\t<div>\n\t\t\t\t\t<h2>Trial 9 is over</h2>\n\t\t\t\t\t<p>Press <span style=\"color: red\"><strong>any key</strong></span> to continue to the next trial</p>\n\t\t\t\t\t</div>\n\t\t\t\t","response":"j","trial_type":"html-keyboard-response","trial_index":41,"time_elapsed":174383,"internal_node_id":"0.0-3.0-3.8","prolific_id":"6109484d0714b6d80806c4f0","session_id":"64399a9a7396b0821a9a06e0","study_id":"64370a36d30bfa807bc7e43c"},{"rt":5301,"response":{"prediction":"23"},"trial_type":"survey-text","trial_index":42,"time_elapsed":179687,"internal_node_id":"0.0-3.0-0.9","prolific_id":"6109484d0714b6d80806c4f0","session_id":"64399a9a7396b0821a9a06e0","study_id":"64370a36d30bfa807bc7e43c"},{"rt":3604,"response":{"prior knowledge":1,"curiosity":1},"accuracy":[],"trial_type":"survey","trial_index":43,"time_elapsed":183307,"internal_node_id":"0.0-3.0-1.9","prolific_id":"6109484d0714b6d80806c4f0","session_id":"64399a9a7396b0821a9a06e0","study_id":"64370a36d30bfa807bc7e43c"},{"rt":null,"stimulus":"\n\t\t\t<div class=\"flip_card\">\n\t\t\t\t<div class=\"flip_card_inner\">\n\t\t\t\t\t<div class=\"flip_card_front\">\n\t\t\t\t\t\t<img src=img/6.png>\n\t\t\t\t\t</div>\n\t\t\t\t\t<div class=\"flip_card_back\">\n\t\t\t\t\t\t<h2>How many countries in Africa have French as the official language?</h2>\n\t\t\t\t\t\t<br>\n\t\t\t\t\t\t<p>Answer: <strong>21</strong></p>\n\t\t\t\t\t</div>\n\t\t\t\t</div>\n\t\t\t</div>\n\t\t\t","response":null,"trial_type":"html-keyboard-response","trial_index":44,"time_elapsed":188313,"internal_node_id":"0.0-3.0-2.9","prolific_id":"6109484d0714b6d80806c4f0","session_id":"64399a9a7396b0821a9a06e0","study_id":"64370a36d30bfa807bc7e43c"},{"rt":1340,"stimulus":"\n\t\t\t\t\t<div>\n\t\t\t\t\t<h2>Trial 10 is over</h2>\n\t\t\t\t\t<p>Press <span style=\"color: red\"><strong>any key</strong></span> to continue to the next trial</p>\n\t\t\t\t\t</div>\n\t\t\t\t","response":" ","trial_type":"html-keyboard-response","trial_index":45,"time_elapsed":189655,"internal_node_id":"0.0-3.0-3.9","prolific_id":"6109484d0714b6d80806c4f0","session_id":"64399a9a7396b0821a9a06e0","study_id":"64370a36d30bfa807bc7e43c"},{"rt":9763,"response":{"prediction":"46"},"trial_type":"survey-text","trial_index":46,"time_elapsed":199420,"internal_node_id":"0.0-3.0-0.10","prolific_id":"6109484d0714b6d80806c4f0","session_id":"64399a9a7396b0821a9a06e0","study_id":"64370a36d30bfa807bc7e43c"},{"rt":3687,"response":{"prior knowledge":2,"curiosity":2},"accuracy":[],"trial_type":"survey","trial_index":47,"time_elapsed":203124,"internal_node_id":"0.0-3.0-1.10","prolific_id":"6109484d0714b6d80806c4f0","session_id":"64399a9a7396b0821a9a06e0","study_id":"64370a36d30bfa807bc7e43c"},{"rt":null,"stimulus":"\n\t\t\t<div class=\"flip_card\">\n\t\t\t\t<div class=\"flip_card_inner\">\n\t\t\t\t\t<div class=\"flip_card_front\">\n\t\t\t\t\t\t<img src=img/12.png>\n\t\t\t\t\t</div>\n\t\t\t\t\t<div class=\"flip_card_back\">\n\t\t\t\t\t\t<h2>How many people are vegan globally (in millions)?</h2>\n\t\t\t\t\t\t<br>\n\t\t\t\t\t\t<p>Answer: <strong>79</strong></p>\n\t\t\t\t\t</div>\n\t\t\t\t</div>\n\t\t\t</div>\n\t\t\t","response":null,"trial_type":"html-keyboard-response","trial_index":48,"time_elapsed":208128,"internal_node_id":"0.0-3.0-2.10","prolific_id":"6109484d0714b6d80806c4f0","session_id":"64399a9a7396b0821a9a06e0","study_id":"64370a36d30bfa807bc7e43c"},{"rt":1174,"stimulus":"\n\t\t\t\t\t<div>\n\t\t\t\t\t<h2>Trial 11 is over</h2>\n\t\t\t\t\t<p>Press <span style=\"color: red\"><strong>any key</strong></span> to continue to the next trial</p>\n\t\t\t\t\t</div>\n\t\t\t\t","response":"j","trial_type":"html-keyboard-response","trial_index":49,"time_elapsed":209303,"internal_node_id":"0.0-3.0-3.10","prolific_id":"6109484d0714b6d80806c4f0","session_id":"64399a9a7396b0821a9a06e0","study_id":"64370a36d30bfa807bc7e43c"},{"rt":2633,"response":{"prediction":"13"},"trial_type":"survey-text","trial_index":50,"time_elapsed":211938,"internal_node_id":"0.0-3.0-0.11","prolific_id":"6109484d0714b6d80806c4f0","session_id":"64399a9a7396b0821a9a06e0","study_id":"64370a36d30bfa807bc7e43c"},{"rt":3801,"response":{"prior knowledge":4,"curiosity":1},"accuracy":[],"trial_type":"survey","trial_index":51,"time_elapsed":215757,"internal_node_id":"0.0-3.0-1.11","prolific_id":"6109484d0714b6d80806c4f0","session_id":"64399a9a7396b0821a9a06e0","study_id":"64370a36d30bfa807bc7e43c"},{"rt":null,"stimulus":"\n\t\t\t<div class=\"flip_card\">\n\t\t\t\t<div class=\"flip_card_inner\">\n\t\t\t\t\t<div class=\"flip_card_front\">\n\t\t\t\t\t\t<img src=img/24.png>\n\t\t\t\t\t</div>\n\t\t\t\t\t<div class=\"flip_card_back\">\n\t\t\t\t\t\t<h2>How much is in a Baker's Dozen?</h2>\n\t\t\t\t\t\t<br>\n\t\t\t\t\t\t<p>Answer: <strong>13</strong></p>\n\t\t\t\t\t</div>\n\t\t\t\t</div>\n\t\t\t</div>\n\t\t\t","response":null,"trial_type":"html-keyboard-response","trial_index":52,"time_elapsed":220768,"internal_node_id":"0.0-3.0-2.11","prolific_id":"6109484d0714b6d80806c4f0","session_id":"64399a9a7396b0821a9a06e0","study_id":"64370a36d30bfa807bc7e43c"},{"rt":106,"stimulus":"\n\t\t\t\t\t<div>\n\t\t\t\t\t<h2>Trial 12 is over</h2>\n\t\t\t\t\t<p>Press <span style=\"color: red\"><strong>any key</strong></span> to continue to the next trial</p>\n\t\t\t\t\t</div>\n\t\t\t\t","response":" ","trial_type":"html-keyboard-response","trial_index":53,"time_elapsed":220875,"internal_node_id":"0.0-3.0-3.11","prolific_id":"6109484d0714b6d80806c4f0","session_id":"64399a9a7396b0821a9a06e0","study_id":"64370a36d30bfa807bc7e43c"},{"rt":4176,"response":{"prediction":"9"},"trial_type":"survey-text","trial_index":54,"time_elapsed":225053,"internal_node_id":"0.0-3.0-0.12","prolific_id":"6109484d0714b6d80806c4f0","session_id":"64399a9a7396b0821a9a06e0","study_id":"64370a36d30bfa807bc7e43c"},{"rt":3455,"response":{"prior knowledge":1,"curiosity":1},"accuracy":[],"trial_type":"survey","trial_index":55,"time_elapsed":228524,"internal_node_id":"0.0-3.0-1.12","prolific_id":"6109484d0714b6d80806c4f0","session_id":"64399a9a7396b0821a9a06e0","study_id":"64370a36d30bfa807bc7e43c"},{"rt":null,"stimulus":"\n\t\t\t<div class=\"flip_card\">\n\t\t\t\t<div class=\"flip_card_inner\">\n\t\t\t\t\t<div class=\"flip_card_front\">\n\t\t\t\t\t\t<img src=img/2.png>\n\t\t\t\t\t</div>\n\t\t\t\t\t<div class=\"flip_card_back\">\n\t\t\t\t\t\t<h2>How many main islands make up Japan?</h2>\n\t\t\t\t\t\t<br>\n\t\t\t\t\t\t<p>Answer: <strong>4</strong></p>\n\t\t\t\t\t</div>\n\t\t\t\t</div>\n\t\t\t</div>\n\t\t\t","response":null,"trial_type":"html-keyboard-response","trial_index":56,"time_elapsed":233528,"internal_node_id":"0.0-3.0-2.12","prolific_id":"6109484d0714b6d80806c4f0","session_id":"64399a9a7396b0821a9a06e0","study_id":"64370a36d30bfa807bc7e43c"},{"rt":900,"stimulus":"\n\t\t\t\t\t<div>\n\t\t\t\t\t<h2>Trial 13 is over</h2>\n\t\t\t\t\t<p>Press <span style=\"color: red\"><strong>any key</strong></span> to continue to the next trial</p>\n\t\t\t\t\t</div>\n\t\t\t\t","response":"j","trial_type":"html-keyboard-response","trial_index":57,"time_elapsed":234429,"internal_node_id":"0.0-3.0-3.12","prolific_id":"6109484d0714b6d80806c4f0","session_id":"64399a9a7396b0821a9a06e0","study_id":"64370a36d30bfa807bc7e43c"},{"rt":3438,"response":{"prediction":"16"},"trial_type":"survey-text","trial_index":58,"time_elapsed":237870,"internal_node_id":"0.0-3.0-0.13","prolific_id":"6109484d0714b6d80806c4f0","session_id":"64399a9a7396b0821a9a06e0","study_id":"64370a36d30bfa807bc7e43c"},{"rt":3424,"response":{"prior knowledge":0,"curiosity":1},"accuracy":[],"trial_type":"survey","trial_index":59,"time_elapsed":241307,"internal_node_id":"0.0-3.0-1.13","prolific_id":"6109484d0714b6d80806c4f0","session_id":"64399a9a7396b0821a9a06e0","study_id":"64370a36d30bfa807bc7e43c"},{"rt":null,"stimulus":"\n\t\t\t<div class=\"flip_card\">\n\t\t\t\t<div class=\"flip_card_inner\">\n\t\t\t\t\t<div class=\"flip_card_front\">\n\t\t\t\t\t\t<img src=img/29.png>\n\t\t\t\t\t</div>\n\t\t\t\t\t<div class=\"flip_card_back\">\n\t\t\t\t\t\t<h2>How many tones are in the Vietnamese language?</h2>\n\t\t\t\t\t\t<br>\n\t\t\t\t\t\t<p>Answer: <strong>6</strong></p>\n\t\t\t\t\t</div>\n\t\t\t\t</div>\n\t\t\t</div>\n\t\t\t","response":null,"trial_type":"html-keyboard-response","trial_index":60,"time_elapsed":246313,"internal_node_id":"0.0-3.0-2.13","prolific_id":"6109484d0714b6d80806c4f0","session_id":"64399a9a7396b0821a9a06e0","study_id":"64370a36d30bfa807bc7e43c"},{"rt":781,"stimulus":"\n\t\t\t\t\t<div>\n\t\t\t\t\t<h2>Trial 14 is over</h2>\n\t\t\t\t\t<p>Press <span style=\"color: red\"><strong>any key</strong></span> to continue to the next trial</p>\n\t\t\t\t\t</div>\n\t\t\t\t","response":" ","trial_type":"html-keyboard-response","trial_index":61,"time_elapsed":247094,"internal_node_id":"0.0-3.0-3.13","prolific_id":"6109484d0714b6d80806c4f0","session_id":"64399a9a7396b0821a9a06e0","study_id":"64370a36d30bfa807bc7e43c"},{"rt":13258,"response":{"prediction":"203"},"trial_type":"survey-text","trial_index":62,"time_elapsed":260353,"internal_node_id":"0.0-3.0-0.14","prolific_id":"6109484d0714b6d80806c4f0","session_id":"64399a9a7396b0821a9a06e0","study_id":"64370a36d30bfa807bc7e43c"},{"rt":4503,"response":{"prior knowledge":0,"curiosity":5},"accuracy":[],"trial_type":"survey","trial_index":63,"time_elapsed":264872,"internal_node_id":"0.0-3.0-1.14","prolific_id":"6109484d0714b6d80806c4f0","session_id":"64399a9a7396b0821a9a06e0","study_id":"64370a36d30bfa807bc7e43c"},{"rt":null,"stimulus":"\n\t\t\t<div class=\"flip_card\">\n\t\t\t\t<div class=\"flip_card_inner\">\n\t\t\t\t\t<div class=\"flip_card_front\">\n\t\t\t\t\t\t<img src=img/7.png>\n\t\t\t\t\t</div>\n\t\t\t\t\t<div class=\"flip_card_back\">\n\t\t\t\t\t\t<h2>How many floors are in the Burj Khalifa, the tallest building in the world?</h2>\n\t\t\t\t\t\t<br>\n\t\t\t\t\t\t<p>Answer: <strong>163</strong></p>\n\t\t\t\t\t</div>\n\t\t\t\t</div>\n\t\t\t</div>\n\t\t\t","response":null,"trial_type":"html-keyboard-response","trial_index":64,"time_elapsed":269881,"internal_node_id":"0.0-3.0-2.14","prolific_id":"6109484d0714b6d80806c4f0","session_id":"64399a9a7396b0821a9a06e0","study_id":"64370a36d30bfa807bc7e43c"},{"rt":853,"stimulus":"\n\t\t\t\t\t<div>\n\t\t\t\t\t<h2>Trial 15 is over</h2>\n\t\t\t\t\t<p>Press <span style=\"color: red\"><strong>any key</strong></span> to continue to the next trial</p>\n\t\t\t\t\t</div>\n\t\t\t\t","response":"j","trial_type":"html-keyboard-response","trial_index":65,"time_elapsed":270735,"internal_node_id":"0.0-3.0-3.14","prolific_id":"6109484d0714b6d80806c4f0","session_id":"64399a9a7396b0821a9a06e0","study_id":"64370a36d30bfa807bc7e43c"},{"rt":3766,"response":{"prediction":"26"},"trial_type":"survey-text","trial_index":66,"time_elapsed":274504,"internal_node_id":"0.0-3.0-0.15","prolific_id":"6109484d0714b6d80806c4f0","session_id":"64399a9a7396b0821a9a06e0","study_id":"64370a36d30bfa807bc7e43c"},{"rt":4554,"response":{"prior knowledge":1,"curiosity":2},"accuracy":[],"trial_type":"survey","trial_index":67,"time_elapsed":279074,"internal_node_id":"0.0-3.0-1.15","prolific_id":"6109484d0714b6d80806c4f0","session_id":"64399a9a7396b0821a9a06e0","study_id":"64370a36d30bfa807bc7e43c"},{"rt":null,"stimulus":"\n\t\t\t<div class=\"flip_card\">\n\t\t\t\t<div class=\"flip_card_inner\">\n\t\t\t\t\t<div class=\"flip_card_front\">\n\t\t\t\t\t\t<img src=img/14.png>\n\t\t\t\t\t</div>\n\t\t\t\t\t<div class=\"flip_card_back\">\n\t\t\t\t\t\t<h2>How old was King Tut when he died?</h2>\n\t\t\t\t\t\t<br>\n\t\t\t\t\t\t<p>Answer: <strong>19</strong></p>\n\t\t\t\t\t</div>\n\t\t\t\t</div>\n\t\t\t</div>\n\t\t\t","response":null,"trial_type":"html-keyboard-response","trial_index":68,"time_elapsed":284078,"internal_node_id":"0.0-3.0-2.15","prolific_id":"6109484d0714b6d80806c4f0","session_id":"64399a9a7396b0821a9a06e0","study_id":"64370a36d30bfa807bc7e43c"},{"rt":8352,"stimulus":"\n\t\t\t\t\t<div>\n\t\t\t\t\t<h2>Trial 16 is over</h2>\n\t\t\t\t\t<p>Press <span style=\"color: red\"><strong>any key</strong></span> to continue to the next trial</p>\n\t\t\t\t\t</div>\n\t\t\t\t","response":"n","trial_type":"html-keyboard-response","trial_index":69,"time_elapsed":292431,"internal_node_id":"0.0-3.0-3.15","prolific_id":"6109484d0714b6d80806c4f0","session_id":"64399a9a7396b0821a9a06e0","study_id":"64370a36d30bfa807bc7e43c"},{"rt":3636,"response":{"prediction":"16"},"trial_type":"survey-text","trial_index":70,"time_elapsed":296069,"internal_node_id":"0.0-3.0-0.16","prolific_id":"6109484d0714b6d80806c4f0","session_id":"64399a9a7396b0821a9a06e0","study_id":"64370a36d30bfa807bc7e43c"},{"rt":3654,"response":{"prior knowledge":1,"curiosity":4},"accuracy":[],"trial_type":"survey","trial_index":71,"time_elapsed":299740,"internal_node_id":"0.0-3.0-1.16","prolific_id":"6109484d0714b6d80806c4f0","session_id":"64399a9a7396b0821a9a06e0","study_id":"64370a36d30bfa807bc7e43c"},{"rt":null,"stimulus":"\n\t\t\t<div class=\"flip_card\">\n\t\t\t\t<div class=\"flip_card_inner\">\n\t\t\t\t\t<div class=\"flip_card_front\">\n\t\t\t\t\t\t<img src=img/3.png>\n\t\t\t\t\t</div>\n\t\t\t\t\t<div class=\"flip_card_back\">\n\t\t\t\t\t\t<h2>How many double stitches does a baseball have?</h2>\n\t\t\t\t\t\t<br>\n\t\t\t\t\t\t<p>Answer: <strong>108</strong></p>\n\t\t\t\t\t</div>\n\t\t\t\t</div>\n\t\t\t</div>\n\t\t\t","response":null,"trial_type":"html-keyboard-response","trial_index":72,"time_elapsed":304750,"internal_node_id":"0.0-3.0-2.16","prolific_id":"6109484d0714b6d80806c4f0","session_id":"64399a9a7396b0821a9a06e0","study_id":"64370a36d30bfa807bc7e43c"},{"rt":1939,"stimulus":"\n\t\t\t\t\t<div>\n\t\t\t\t\t<h2>Trial 17 is over</h2>\n\t\t\t\t\t<p>Press <span style=\"color: red\"><strong>any key</strong></span> to continue to the next trial</p>\n\t\t\t\t\t</div>\n\t\t\t\t","response":"j","trial_type":"html-keyboard-response","trial_index":73,"time_elapsed":306689,"internal_node_id":"0.0-3.0-3.16","prolific_id":"6109484d0714b6d80806c4f0","session_id":"64399a9a7396b0821a9a06e0","study_id":"64370a36d30bfa807bc7e43c"},{"rt":2807,"response":{"prediction":"9"},"trial_type":"survey-text","trial_index":74,"time_elapsed":309500,"internal_node_id":"0.0-3.0-0.17","prolific_id":"6109484d0714b6d80806c4f0","session_id":"64399a9a7396b0821a9a06e0","study_id":"64370a36d30bfa807bc7e43c"},{"rt":3840,"response":{"prior knowledge":1,"curiosity":2},"accuracy":[],"trial_type":"survey","trial_index":75,"time_elapsed":313354,"internal_node_id":"0.0-3.0-1.17","prolific_id":"6109484d0714b6d80806c4f0","session_id":"64399a9a7396b0821a9a06e0","study_id":"64370a36d30bfa807bc7e43c"},{"rt":null,"stimulus":"\n\t\t\t<div class=\"flip_card\">\n\t\t\t\t<div class=\"flip_card_inner\">\n\t\t\t\t\t<div class=\"flip_card_front\">\n\t\t\t\t\t\t<img src=img/5.png>\n\t\t\t\t\t</div>\n\t\t\t\t\t<div class=\"flip_card_back\">\n\t\t\t\t\t\t<h2>How many lines are in a sonnet?</h2>\n\t\t\t\t\t\t<br>\n\t\t\t\t\t\t<p>Answer: <strong>14</strong></p>\n\t\t\t\t\t</div>\n\t\t\t\t</div>\n\t\t\t</div>\n\t\t\t","response":null,"trial_type":"html-keyboard-response","trial_index":76,"time_elapsed":318357,"internal_node_id":"0.0-3.0-2.17","prolific_id":"6109484d0714b6d80806c4f0","session_id":"64399a9a7396b0821a9a06e0","study_id":"64370a36d30bfa807bc7e43c"},{"rt":3022,"stimulus":"\n\t\t\t\t\t<div>\n\t\t\t\t\t<h2>Trial 18 is over</h2>\n\t\t\t\t\t<p>Press <span style=\"color: red\"><strong>any key</strong></span> to continue to the next trial</p>\n\t\t\t\t\t</div>\n\t\t\t\t","response":" ","trial_type":"html-keyboard-response","trial_index":77,"time_elapsed":321379,"internal_node_id":"0.0-3.0-3.17","prolific_id":"6109484d0714b6d80806c4f0","session_id":"64399a9a7396b0821a9a06e0","study_id":"64370a36d30bfa807bc7e43c"},{"rt":10856,"response":{"prediction":"7"},"trial_type":"survey-text","trial_index":78,"time_elapsed":332237,"internal_node_id":"0.0-3.0-0.18","prolific_id":"6109484d0714b6d80806c4f0","session_id":"64399a9a7396b0821a9a06e0","study_id":"64370a36d30bfa807bc7e43c"},{"rt":3503,"response":{"prior knowledge":3,"curiosity":4},"accuracy":[],"trial_type":"survey","trial_index":79,"time_elapsed":335757,"internal_node_id":"0.0-3.0-1.18","prolific_id":"6109484d0714b6d80806c4f0","session_id":"64399a9a7396b0821a9a06e0","study_id":"64370a36d30bfa807bc7e43c"},{"rt":null,"stimulus":"\n\t\t\t<div class=\"flip_card\">\n\t\t\t\t<div class=\"flip_card_inner\">\n\t\t\t\t\t<div class=\"flip_card_front\">\n\t\t\t\t\t\t<img src=img/20.png>\n\t\t\t\t\t</div>\n\t\t\t\t\t<div class=\"flip_card_back\">\n\t\t\t\t\t\t<h2>How many moons does Neptune have?</h2>\n\t\t\t\t\t\t<br>\n\t\t\t\t\t\t<p>Answer: <strong>14</strong></p>\n\t\t\t\t\t</div>\n\t\t\t\t</div>\n\t\t\t</div>\n\t\t\t","response":null,"trial_type":"html-keyboard-response","trial_index":80,"time_elapsed":340765,"internal_node_id":"0.0-3.0-2.18","prolific_id":"6109484d0714b6d80806c4f0","session_id":"64399a9a7396b0821a9a06e0","study_id":"64370a36d30bfa807bc7e43c"},{"rt":2581,"stimulus":"\n\t\t\t\t\t<div>\n\t\t\t\t\t<h2>Trial 19 is over</h2>\n\t\t\t\t\t<p>Press <span style=\"color: red\"><strong>any key</strong></span> to continue to the next trial</p>\n\t\t\t\t\t</div>\n\t\t\t\t","response":" ","trial_type":"html-keyboard-response","trial_index":81,"time_elapsed":343347,"internal_node_id":"0.0-3.0-3.18","prolific_id":"6109484d0714b6d80806c4f0","session_id":"64399a9a7396b0821a9a06e0","study_id":"64370a36d30bfa807bc7e43c"},{"rt":4454,"response":{"prediction":"2009"},"trial_type":"survey-text","trial_index":82,"time_elapsed":347803,"internal_node_id":"0.0-3.0-0.19","prolific_id":"6109484d0714b6d80806c4f0","session_id":"64399a9a7396b0821a9a06e0","study_id":"64370a36d30bfa807bc7e43c"},{"rt":3485,"response":{"prior knowledge":3,"curiosity":2},"accuracy":[],"trial_type":"survey","trial_index":83,"time_elapsed":351306,"internal_node_id":"0.0-3.0-1.19","prolific_id":"6109484d0714b6d80806c4f0","session_id":"64399a9a7396b0821a9a06e0","study_id":"64370a36d30bfa807bc7e43c"},{"rt":null,"stimulus":"\n\t\t\t<div class=\"flip_card\">\n\t\t\t\t<div class=\"flip_card_inner\">\n\t\t\t\t\t<div class=\"flip_card_front\">\n\t\t\t\t\t\t<img src=img/16.png>\n\t\t\t\t\t</div>\n\t\t\t\t\t<div class=\"flip_card_back\">\n\t\t\t\t\t\t<h2>What year was the very first model of the iPhone released?</h2>\n\t\t\t\t\t\t<br>\n\t\t\t\t\t\t<p>Answer: <strong>2007</strong></p>\n\t\t\t\t\t</div>\n\t\t\t\t</div>\n\t\t\t</div>\n\t\t\t","response":null,"trial_type":"html-keyboard-response","trial_index":84,"time_elapsed":356308,"internal_node_id":"0.0-3.0-2.19","prolific_id":"6109484d0714b6d80806c4f0","session_id":"64399a9a7396b0821a9a06e0","study_id":"64370a36d30bfa807bc7e43c"},{"rt":758,"stimulus":"\n\t\t\t\t\t<div>\n\t\t\t\t\t<h2>Trial 20 is over</h2>\n\t\t\t\t\t<p>Press <span style=\"color: red\"><strong>any key</strong></span> to continue to the next trial</p>\n\t\t\t\t\t</div>\n\t\t\t\t","response":" ","trial_type":"html-keyboard-response","trial_index":85,"time_elapsed":357067,"internal_node_id":"0.0-3.0-3.19","prolific_id":"6109484d0714b6d80806c4f0","session_id":"64399a9a7396b0821a9a06e0","study_id":"64370a36d30bfa807bc7e43c"},{"rt":5267,"response":{"prediction":"13"},"trial_type":"survey-text","trial_index":86,"time_elapsed":362336,"internal_node_id":"0.0-3.0-0.20","prolific_id":"6109484d0714b6d80806c4f0","session_id":"64399a9a7396b0821a9a06e0","study_id":"64370a36d30bfa807bc7e43c"},{"rt":3504,"response":{"prior knowledge":3,"curiosity":4},"accuracy":[],"trial_type":"survey","trial_index":87,"time_elapsed":365857,"internal_node_id":"0.0-3.0-1.20","prolific_id":"6109484d0714b6d80806c4f0","session_id":"64399a9a7396b0821a9a06e0","study_id":"64370a36d30bfa807bc7e43c"},{"rt":null,"stimulus":"\n\t\t\t<div class=\"flip_card\">\n\t\t\t\t<div class=\"flip_card_inner\">\n\t\t\t\t\t<div class=\"flip_card_front\">\n\t\t\t\t\t\t<img src=img/26.png>\n\t\t\t\t\t</div>\n\t\t\t\t\t<div class=\"flip_card_back\">\n\t\t\t\t\t\t<h2>A bar mitzvah is traditionally celebrated when Jewish males turn what age?</h2>\n\t\t\t\t\t\t<br>\n\t\t\t\t\t\t<p>Answer: <strong>13</strong></p>\n\t\t\t\t\t</div>\n\t\t\t\t</div>\n\t\t\t</div>\n\t\t\t","response":null,"trial_type":"html-keyboard-response","trial_index":88,"time_elapsed":370860,"internal_node_id":"0.0-3.0-2.20","prolific_id":"6109484d0714b6d80806c4f0","session_id":"64399a9a7396b0821a9a06e0","study_id":"64370a36d30bfa807bc7e43c"},{"rt":890,"stimulus":"\n\t\t\t\t\t<div>\n\t\t\t\t\t<h2>Trial 21 is over</h2>\n\t\t\t\t\t<p>Press <span style=\"color: red\"><strong>any key</strong></span> to continue to the next trial</p>\n\t\t\t\t\t</div>\n\t\t\t\t","response":"j","trial_type":"html-keyboard-response","trial_index":89,"time_elapsed":371750,"internal_node_id":"0.0-3.0-3.20","prolific_id":"6109484d0714b6d80806c4f0","session_id":"64399a9a7396b0821a9a06e0","study_id":"64370a36d30bfa807bc7e43c"},{"rt":5050,"response":{"prediction":"23"},"trial_type":"survey-text","trial_index":90,"time_elapsed":376803,"internal_node_id":"0.0-3.0-0.21","prolific_id":"6109484d0714b6d80806c4f0","session_id":"64399a9a7396b0821a9a06e0","study_id":"64370a36d30bfa807bc7e43c"},{"rt":3736,"response":{"prior knowledge":0,"curiosity":3},"accuracy":[],"trial_type":"survey","trial_index":91,"time_elapsed":380556,"internal_node_id":"0.0-3.0-1.21","prolific_id":"6109484d0714b6d80806c4f0","session_id":"64399a9a7396b0821a9a06e0","study_id":"64370a36d30bfa807bc7e43c"},{"rt":null,"stimulus":"\n\t\t\t<div class=\"flip_card\">\n\t\t\t\t<div class=\"flip_card_inner\">\n\t\t\t\t\t<div class=\"flip_card_front\">\n\t\t\t\t\t\t<img src=img/21.png>\n\t\t\t\t\t</div>\n\t\t\t\t\t<div class=\"flip_card_back\">\n\t\t\t\t\t\t<h2>How many single hand gestures, or mudras, are used in Indian classical dance?</h2>\n\t\t\t\t\t\t<br>\n\t\t\t\t\t\t<p>Answer: <strong>28</strong></p>\n\t\t\t\t\t</div>\n\t\t\t\t</div>\n\t\t\t</div>\n\t\t\t","response":null,"trial_type":"html-keyboard-response","trial_index":92,"time_elapsed":385563,"internal_node_id":"0.0-3.0-2.21","prolific_id":"6109484d0714b6d80806c4f0","session_id":"64399a9a7396b0821a9a06e0","study_id":"64370a36d30bfa807bc7e43c"},{"rt":2581,"stimulus":"\n\t\t\t\t\t<div>\n\t\t\t\t\t<h2>Trial 22 is over</h2>\n\t\t\t\t\t<p>Press <span style=\"color: red\"><strong>any key</strong></span> to continue to the next trial</p>\n\t\t\t\t\t</div>\n\t\t\t\t","response":"j","trial_type":"html-keyboard-response","trial_index":93,"time_elapsed":388145,"internal_node_id":"0.0-3.0-3.21","prolific_id":"6109484d0714b6d80806c4f0","session_id":"64399a9a7396b0821a9a06e0","study_id":"64370a36d30bfa807bc7e43c"},{"rt":4823,"response":{"prediction":"1908"},"trial_type":"survey-text","trial_index":94,"time_elapsed":392970,"internal_node_id":"0.0-3.0-0.22","prolific_id":"6109484d0714b6d80806c4f0","session_id":"64399a9a7396b0821a9a06e0","study_id":"64370a36d30bfa807bc7e43c"},{"rt":3918,"response":{"prior knowledge":2,"curiosity":1},"accuracy":[],"trial_type":"survey","trial_index":95,"time_elapsed":396906,"internal_node_id":"0.0-3.0-1.22","prolific_id":"6109484d0714b6d80806c4f0","session_id":"64399a9a7396b0821a9a06e0","study_id":"64370a36d30bfa807bc7e43c"},{"rt":null,"stimulus":"\n\t\t\t<div class=\"flip_card\">\n\t\t\t\t<div class=\"flip_card_inner\">\n\t\t\t\t\t<div class=\"flip_card_front\">\n\t\t\t\t\t\t<img src=img/9.png>\n\t\t\t\t\t</div>\n\t\t\t\t\t<div class=\"flip_card_back\">\n\t\t\t\t\t\t<h2>In what year did the first Modern Olympic Games take place?</h2>\n\t\t\t\t\t\t<br>\n\t\t\t\t\t\t<p>Answer: <strong>1896</strong></p>\n\t\t\t\t\t</div>\n\t\t\t\t</div>\n\t\t\t</div>\n\t\t\t","response":null,"trial_type":"html-keyboard-response","trial_index":96,"time_elapsed":401915,"internal_node_id":"0.0-3.0-2.22","prolific_id":"6109484d0714b6d80806c4f0","session_id":"64399a9a7396b0821a9a06e0","study_id":"64370a36d30bfa807bc7e43c"},{"rt":16454,"stimulus":"\n\t\t\t\t\t<div>\n\t\t\t\t\t<h2>Trial 23 is over</h2>\n\t\t\t\t\t<p>Press <span style=\"color: red\"><strong>any key</strong></span> to continue to the next trial</p>\n\t\t\t\t\t</div>\n\t\t\t\t","response":" ","trial_type":"html-keyboard-response","trial_index":97,"time_elapsed":418369,"internal_node_id":"0.0-3.0-3.22","prolific_id":"6109484d0714b6d80806c4f0","session_id":"64399a9a7396b0821a9a06e0","study_id":"64370a36d30bfa807bc7e43c"},{"rt":4680,"response":{"prediction":"1929"},"trial_type":"survey-text","trial_index":98,"time_elapsed":423053,"internal_node_id":"0.0-3.0-0.23","prolific_id":"6109484d0714b6d80806c4f0","session_id":"64399a9a7396b0821a9a06e0","study_id":"64370a36d30bfa807bc7e43c"},{"rt":4437,"response":{"prior knowledge":1,"curiosity":4},"accuracy":[],"trial_type":"survey","trial_index":99,"time_elapsed":427507,"internal_node_id":"0.0-3.0-1.23","prolific_id":"6109484d0714b6d80806c4f0","session_id":"64399a9a7396b0821a9a06e0","study_id":"64370a36d30bfa807bc7e43c"},{"rt":null,"stimulus":"\n\t\t\t<div class=\"flip_card\">\n\t\t\t\t<div class=\"flip_card_inner\">\n\t\t\t\t\t<div class=\"flip_card_front\">\n\t\t\t\t\t\t<img src=img/17.png>\n\t\t\t\t\t</div>\n\t\t\t\t\t<div class=\"flip_card_back\">\n\t\t\t\t\t\t<h2>In what year was the first Nobel Prize awarded?</h2>\n\t\t\t\t\t\t<br>\n\t\t\t\t\t\t<p>Answer: <strong>1901</strong></p>\n\t\t\t\t\t</div>\n\t\t\t\t</div>\n\t\t\t</div>\n\t\t\t","response":null,"trial_type":"html-keyboard-response","trial_index":100,"time_elapsed":432514,"internal_node_id":"0.0-3.0-2.23","prolific_id":"6109484d0714b6d80806c4f0","session_id":"64399a9a7396b0821a9a06e0","study_id":"64370a36d30bfa807bc7e43c"},{"rt":4092,"stimulus":"\n\t\t\t\t\t<div>\n\t\t\t\t\t<h2>Trial 24 is over</h2>\n\t\t\t\t\t<p>Press <span style=\"color: red\"><strong>any key</strong></span> to continue to the next trial</p>\n\t\t\t\t\t</div>\n\t\t\t\t","response":" ","trial_type":"html-keyboard-response","trial_index":101,"time_elapsed":436607,"internal_node_id":"0.0-3.0-3.23","prolific_id":"6109484d0714b6d80806c4f0","session_id":"64399a9a7396b0821a9a06e0","study_id":"64370a36d30bfa807bc7e43c"},{"rt":26510,"response":{"prediction":"37"},"trial_type":"survey-text","trial_index":102,"time_elapsed":463119,"internal_node_id":"0.0-3.0-0.24","prolific_id":"6109484d0714b6d80806c4f0","session_id":"64399a9a7396b0821a9a06e0","study_id":"64370a36d30bfa807bc7e43c"},{"rt":4686,"response":{"prior knowledge":3,"curiosity":1},"accuracy":[],"trial_type":"survey","trial_index":103,"time_elapsed":467822,"internal_node_id":"0.0-3.0-1.24","prolific_id":"6109484d0714b6d80806c4f0","session_id":"64399a9a7396b0821a9a06e0","study_id":"64370a36d30bfa807bc7e43c"},{"rt":null,"stimulus":"\n\t\t\t<div class=\"flip_card\">\n\t\t\t\t<div class=\"flip_card_inner\">\n\t\t\t\t\t<div class=\"flip_card_front\">\n\t\t\t\t\t\t<img src=img/15.png>\n\t\t\t\t\t</div>\n\t\t\t\t\t<div class=\"flip_card_back\">\n\t\t\t\t\t\t<h2>How many books are in the Catholic Bible?</h2>\n\t\t\t\t\t\t<br>\n\t\t\t\t\t\t<p>Answer: <strong>73</strong></p>\n\t\t\t\t\t</div>\n\t\t\t\t</div>\n\t\t\t</div>\n\t\t\t","response":null,"trial_type":"html-keyboard-response","trial_index":104,"time_elapsed":472829,"internal_node_id":"0.0-3.0-2.24","prolific_id":"6109484d0714b6d80806c4f0","session_id":"64399a9a7396b0821a9a06e0","study_id":"64370a36d30bfa807bc7e43c"},{"rt":1996,"stimulus":"\n\t\t\t\t\t<div>\n\t\t\t\t\t<h2>Trial 25 is over</h2>\n\t\t\t\t\t<p>Press <span style=\"color: red\"><strong>any key</strong></span> to continue to the next trial</p>\n\t\t\t\t\t</div>\n\t\t\t\t","response":"j","trial_type":"html-keyboard-response","trial_index":105,"time_elapsed":474826,"internal_node_id":"0.0-3.0-3.24","prolific_id":"6109484d0714b6d80806c4f0","session_id":"64399a9a7396b0821a9a06e0","study_id":"64370a36d30bfa807bc7e43c"},{"rt":24357,"response":{"prediction":"11"},"trial_type":"survey-text","trial_index":106,"time_elapsed":499185,"internal_node_id":"0.0-3.0-0.25","prolific_id":"6109484d0714b6d80806c4f0","session_id":"64399a9a7396b0821a9a06e0","study_id":"64370a36d30bfa807bc7e43c"},{"rt":4173,"response":{"prior knowledge":0,"curiosity":3},"accuracy":[],"trial_type":"survey","trial_index":107,"time_elapsed":503374,"internal_node_id":"0.0-3.0-1.25","prolific_id":"6109484d0714b6d80806c4f0","session_id":"64399a9a7396b0821a9a06e0","study_id":"64370a36d30bfa807bc7e43c"},{"rt":null,"stimulus":"\n\t\t\t<div class=\"flip_card\">\n\t\t\t\t<div class=\"flip_card_inner\">\n\t\t\t\t\t<div class=\"flip_card_front\">\n\t\t\t\t\t\t<img src=img/18.png>\n\t\t\t\t\t</div>\n\t\t\t\t\t<div class=\"flip_card_back\">\n\t\t\t\t\t\t<h2>How many different animals (real or imaginary) are represented in the Chinese calendar?</h2>\n\t\t\t\t\t\t<br>\n\t\t\t\t\t\t<p>Answer: <strong>12</strong></p>\n\t\t\t\t\t</div>\n\t\t\t\t</div>\n\t\t\t</div>\n\t\t\t","response":null,"trial_type":"html-keyboard-response","trial_index":108,"time_elapsed":508378,"internal_node_id":"0.0-3.0-2.25","prolific_id":"6109484d0714b6d80806c4f0","session_id":"64399a9a7396b0821a9a06e0","study_id":"64370a36d30bfa807bc7e43c"},{"rt":2590,"stimulus":"\n\t\t\t\t\t<div>\n\t\t\t\t\t<h2>Trial 26 is over</h2>\n\t\t\t\t\t<p>Press <span style=\"color: red\"><strong>any key</strong></span> to continue to the next trial</p>\n\t\t\t\t\t</div>\n\t\t\t\t","response":" ","trial_type":"html-keyboard-response","trial_index":109,"time_elapsed":510969,"internal_node_id":"0.0-3.0-3.25","prolific_id":"6109484d0714b6d80806c4f0","session_id":"64399a9a7396b0821a9a06e0","study_id":"64370a36d30bfa807bc7e43c"},{"rt":16663,"response":{"prediction":"893655"},"trial_type":"survey-text","trial_index":110,"time_elapsed":527635,"internal_node_id":"0.0-3.0-0.26","prolific_id":"6109484d0714b6d80806c4f0","session_id":"64399a9a7396b0821a9a06e0","study_id":"64370a36d30bfa807bc7e43c"},{"rt":4222,"response":{"prior knowledge":0,"curiosity":4},"accuracy":[],"trial_type":"survey","trial_index":111,"time_elapsed":531872,"internal_node_id":"0.0-3.0-1.26","prolific_id":"6109484d0714b6d80806c4f0","session_id":"64399a9a7396b0821a9a06e0","study_id":"64370a36d30bfa807bc7e43c"},{"rt":null,"stimulus":"\n\t\t\t<div class=\"flip_card\">\n\t\t\t\t<div class=\"flip_card_inner\">\n\t\t\t\t\t<div class=\"flip_card_front\">\n\t\t\t\t\t\t<img src=img/30.png>\n\t\t\t\t\t</div>\n\t\t\t\t\t<div class=\"flip_card_back\">\n\t\t\t\t\t\t<h2>What is the diameter of Earth in miles?</h2>\n\t\t\t\t\t\t<br>\n\t\t\t\t\t\t<p>Answer: <strong>7917.5</strong></p>\n\t\t\t\t\t</div>\n\t\t\t\t</div>\n\t\t\t</div>\n\t\t\t","response":null,"trial_type":"html-keyboard-response","trial_index":112,"time_elapsed":536878,"internal_node_id":"0.0-3.0-2.26","prolific_id":"6109484d0714b6d80806c4f0","session_id":"64399a9a7396b0821a9a06e0","study_id":"64370a36d30bfa807bc7e43c"},{"rt":1556,"stimulus":"\n\t\t\t\t\t<div>\n\t\t\t\t\t<h2>Trial 27 is over</h2>\n\t\t\t\t\t<p>Press <span style=\"color: red\"><strong>any key</strong></span> to continue to the next trial</p>\n\t\t\t\t\t</div>\n\t\t\t\t","response":"n","trial_type":"html-keyboard-response","trial_index":113,"time_elapsed":538435,"internal_node_id":"0.0-3.0-3.26","prolific_id":"6109484d0714b6d80806c4f0","session_id":"64399a9a7396b0821a9a06e0","study_id":"64370a36d30bfa807bc7e43c"},{"rt":9549,"response":{"prediction":"11"},"trial_type":"survey-text","trial_index":114,"time_elapsed":547986,"internal_node_id":"0.0-3.0-0.27","prolific_id":"6109484d0714b6d80806c4f0","session_id":"64399a9a7396b0821a9a06e0","study_id":"64370a36d30bfa807bc7e43c"},{"rt":6120,"response":{"prior knowledge":5,"curiosity":3},"accuracy":[],"trial_type":"survey","trial_index":115,"time_elapsed":554122,"internal_node_id":"0.0-3.0-1.27","prolific_id":"6109484d0714b6d80806c4f0","session_id":"64399a9a7396b0821a9a06e0","study_id":"64370a36d30bfa807bc7e43c"},{"rt":null,"stimulus":"\n\t\t\t<div class=\"flip_card\">\n\t\t\t\t<div class=\"flip_card_inner\">\n\t\t\t\t\t<div class=\"flip_card_front\">\n\t\t\t\t\t\t<img src=img/25.png>\n\t\t\t\t\t</div>\n\t\t\t\t\t<div class=\"flip_card_back\">\n\t\t\t\t\t\t<h2>How many soccer players should each team have on the field at the start of each match?</h2>\n\t\t\t\t\t\t<br>\n\t\t\t\t\t\t<p>Answer: <strong>11</strong></p>\n\t\t\t\t\t</div>\n\t\t\t\t</div>\n\t\t\t</div>\n\t\t\t","response":null,"trial_type":"html-keyboard-response","trial_index":116,"time_elapsed":559128,"internal_node_id":"0.0-3.0-2.27","prolific_id":"6109484d0714b6d80806c4f0","session_id":"64399a9a7396b0821a9a06e0","study_id":"64370a36d30bfa807bc7e43c"},{"rt":1922,"stimulus":"\n\t\t\t\t\t<div>\n\t\t\t\t\t<h2>Trial 28 is over</h2>\n\t\t\t\t\t<p>Press <span style=\"color: red\"><strong>any key</strong></span> to continue to the next trial</p>\n\t\t\t\t\t</div>\n\t\t\t\t","response":" ","trial_type":"html-keyboard-response","trial_index":117,"time_elapsed":561051,"internal_node_id":"0.0-3.0-3.27","prolific_id":"6109484d0714b6d80806c4f0","session_id":"64399a9a7396b0821a9a06e0","study_id":"64370a36d30bfa807bc7e43c"},{"rt":5715,"response":{"prediction":"1908"},"trial_type":"survey-text","trial_index":118,"time_elapsed":566768,"internal_node_id":"0.0-3.0-0.28","prolific_id":"6109484d0714b6d80806c4f0","session_id":"64399a9a7396b0821a9a06e0","study_id":"64370a36d30bfa807bc7e43c"},{"rt":2602,"response":{"prior knowledge":4,"curiosity":3},"accuracy":[],"trial_type":"survey","trial_index":119,"time_elapsed":569388,"internal_node_id":"0.0-3.0-1.28","prolific_id":"6109484d0714b6d80806c4f0","session_id":"64399a9a7396b0821a9a06e0","study_id":"64370a36d30bfa807bc7e43c"},{"rt":null,"stimulus":"\n\t\t\t<div class=\"flip_card\">\n\t\t\t\t<div class=\"flip_card_inner\">\n\t\t\t\t\t<div class=\"flip_card_front\">\n\t\t\t\t\t\t<img src=img/1.png>\n\t\t\t\t\t</div>\n\t\t\t\t\t<div class=\"flip_card_back\">\n\t\t\t\t\t\t<h2>What year did the titanic sink?</h2>\n\t\t\t\t\t\t<br>\n\t\t\t\t\t\t<p>Answer: <strong>1912</strong></p>\n\t\t\t\t\t</div>\n\t\t\t\t</div>\n\t\t\t</div>\n\t\t\t","response":null,"trial_type":"html-keyboard-response","trial_index":120,"time_elapsed":574390,"internal_node_id":"0.0-3.0-2.28","prolific_id":"6109484d0714b6d80806c4f0","session_id":"64399a9a7396b0821a9a06e0","study_id":"64370a36d30bfa807bc7e43c"},{"rt":1017,"stimulus":"\n\t\t\t\t\t<div>\n\t\t\t\t\t<h2>Trial 29 is over</h2>\n\t\t\t\t\t<p>Press <span style=\"color: red\"><strong>any key</strong></span> to continue to the next trial</p>\n\t\t\t\t\t</div>\n\t\t\t\t","response":"k","trial_type":"html-keyboard-response","trial_index":121,"time_elapsed":575409,"internal_node_id":"0.0-3.0-3.28","prolific_id":"6109484d0714b6d80806c4f0","session_id":"64399a9a7396b0821a9a06e0","study_id":"64370a36d30bfa807bc7e43c"},{"rt":3790,"response":{"prediction":"6"},"trial_type":"survey-text","trial_index":122,"time_elapsed":579201,"internal_node_id":"0.0-3.0-0.29","prolific_id":"6109484d0714b6d80806c4f0","session_id":"64399a9a7396b0821a9a06e0","study_id":"64370a36d30bfa807bc7e43c"},{"rt":3856,"response":{"prior knowledge":0,"curiosity":0},"accuracy":[],"trial_type":"survey","trial_index":123,"time_elapsed":583073,"internal_node_id":"0.0-3.0-1.29","prolific_id":"6109484d0714b6d80806c4f0","session_id":"64399a9a7396b0821a9a06e0","study_id":"64370a36d30bfa807bc7e43c"},{"rt":null,"stimulus":"\n\t\t\t<div class=\"flip_card\">\n\t\t\t\t<div class=\"flip_card_inner\">\n\t\t\t\t\t<div class=\"flip_card_front\">\n\t\t\t\t\t\t<img src=img/8.png>\n\t\t\t\t\t</div>\n\t\t\t\t\t<div class=\"flip_card_back\">\n\t\t\t\t\t\t<h2>How many native species of kangaroos are found in Australia?</h2>\n\t\t\t\t\t\t<br>\n\t\t\t\t\t\t<p>Answer: <strong>4</strong></p>\n\t\t\t\t\t</div>\n\t\t\t\t</div>\n\t\t\t</div>\n\t\t\t","response":null,"trial_type":"html-keyboard-response","trial_index":124,"time_elapsed":588078,"internal_node_id":"0.0-3.0-2.29","prolific_id":"6109484d0714b6d80806c4f0","session_id":"64399a9a7396b0821a9a06e0","study_id":"64370a36d30bfa807bc7e43c"},{"rt":1456,"stimulus":"\n\t\t\t\t\t<div>\n\t\t\t\t\t<h2>Trial 30 is over</h2>\n\t\t\t\t\t<p>Press <span style=\"color: red\"><strong>any key</strong></span> to continue to the next trial</p>\n\t\t\t\t\t</div>\n\t\t\t\t","response":"k","trial_type":"html-keyboard-response","trial_index":125,"time_elapsed":589535,"internal_node_id":"0.0-3.0-3.29","prolific_id":"6109484d0714b6d80806c4f0","session_id":"64399a9a7396b0821a9a06e0","study_id":"64370a36d30bfa807bc7e43c"},{"rt":null,"stimulus":"\n\t\t\t<h2>Good job! You've finished the 30 trials:p</h2>\n\t\t\t<p>In the next session, you will see two cards on the screen in each trial.</p>\n\t\t\t<p>On one card is a pattern that you have seen before in the experiment,\n\t\t\t\tand on the other card is one you have not seen.</p><br>\n\t\t\t<p>Your task is to choose the one you think you <em>have</em> seen before for every trial.</p>\n\t\t\t<p>Press '<span style=\"color: red;\"><strong>F</strong></span>' to choose the card on the left,\n\t\t\t\tand '<span style=\"color: red;\"><strong>J</strong></span>' to choose the card on the right.</p>\n\t\t\t<p>Have fun!</p>\n\t\t\t<br>\n\t\t\t<p>The trials will begin in 30 seconds</p>\n\t\t\t","response":null,"trial_type":"html-keyboard-response","trial_index":126,"time_elapsed":619541,"internal_node_id":"0.0-4.0","prolific_id":"6109484d0714b6d80806c4f0","session_id":"64399a9a7396b0821a9a06e0","study_id":"64370a36d30bfa807bc7e43c"},{"rt":1473,"stimulus":"\n\t\t\t\t\t\t<div class=\"two_card_container\">\n\t\t\t\t\t\t<div class=\"card_container\">\n\t\t\t\t\t\t<img src=img/10.png>\n\t\t\t\t\t\t</div>\n\n\t\t\t\t\t\t<div class=\"card_container\">\n\t\t\t\t\t\t<img src=img/33.png>\n\t\t\t\t\t\t</div>","response":"f","task":"response","correct_response":"f","trial_type":"html-keyboard-response","trial_index":127,"time_elapsed":621017,"internal_node_id":"0.0-5.0-0.0","prolific_id":"6109484d0714b6d80806c4f0","session_id":"64399a9a7396b0821a9a06e0","study_id":"64370a36d30bfa807bc7e43c","correct":true},{"rt":null,"stimulus":"\n\t\t\t\t\t<p>Correct!</p>\n\t\t\t\t\t","response":null,"trial_type":"html-keyboard-response","trial_index":128,"time_elapsed":622021,"internal_node_id":"0.0-5.0-1.0","prolific_id":"6109484d0714b6d80806c4f0","session_id":"64399a9a7396b0821a9a06e0","study_id":"64370a36d30bfa807bc7e43c"},{"rt":1220,"stimulus":"\n\t\t\t\t\t\t<div class=\"two_card_container\">\n\t\t\t\t\t\t<div class=\"card_container\">\n\t\t\t\t\t\t<img src=img/34.png>\n\t\t\t\t\t\t</div>\n\n\t\t\t\t\t\t<div class=\"card_container\">\n\t\t\t\t\t\t<img src=img/18.png>\n\t\t\t\t\t\t</div>","response":"j","task":"response","correct_response":"j","trial_type":"html-keyboard-response","trial_index":129,"time_elapsed":623243,"internal_node_id":"0.0-5.0-0.1","prolific_id":"6109484d0714b6d80806c4f0","session_id":"64399a9a7396b0821a9a06e0","study_id":"64370a36d30bfa807bc7e43c","correct":true},{"rt":null,"stimulus":"\n\t\t\t\t\t<p>Correct!</p>\n\t\t\t\t\t","response":null,"trial_type":"html-keyboard-response","trial_index":130,"time_elapsed":624253,"internal_node_id":"0.0-5.0-1.1","prolific_id":"6109484d0714b6d80806c4f0","session_id":"64399a9a7396b0821a9a06e0","study_id":"64370a36d30bfa807bc7e43c"},{"rt":1408,"stimulus":"\n\t\t\t\t\t\t<div class=\"two_card_container\">\n\t\t\t\t\t\t<div class=\"card_container\">\n\t\t\t\t\t\t<img src=img/17.png>\n\t\t\t\t\t\t</div>\n\n\t\t\t\t\t\t<div class=\"card_container\">\n\t\t\t\t\t\t<img src=img/40.png>\n\t\t\t\t\t\t</div>","response":"j","task":"response","correct_response":"f","trial_type":"html-keyboard-response","trial_index":131,"time_elapsed":625662,"internal_node_id":"0.0-5.0-0.2","prolific_id":"6109484d0714b6d80806c4f0","session_id":"64399a9a7396b0821a9a06e0","study_id":"64370a36d30bfa807bc7e43c","correct":false},{"rt":null,"stimulus":"\n\t\t\t\t\t<p>Wrong answer</p>\n\t\t\t\t\t","response":null,"trial_type":"html-keyboard-response","trial_index":132,"time_elapsed":626669,"internal_node_id":"0.0-5.0-1.2","prolific_id":"6109484d0714b6d80806c4f0","session_id":"64399a9a7396b0821a9a06e0","study_id":"64370a36d30bfa807bc7e43c"},{"rt":1404,"stimulus":"\n\t\t\t\t\t\t<div class=\"two_card_container\">\n\t\t\t\t\t\t<div class=\"card_container\">\n\t\t\t\t\t\t<img src=img/4.png>\n\t\t\t\t\t\t</div>\n\n\t\t\t\t\t\t<div class=\"card_container\">\n\t\t\t\t\t\t<img src=img/31.png>\n\t\t\t\t\t\t</div>","response":"f","task":"response","correct_response":"f","trial_type":"html-keyboard-response","trial_index":133,"time_elapsed":628074,"internal_node_id":"0.0-5.0-0.3","prolific_id":"6109484d0714b6d80806c4f0","session_id":"64399a9a7396b0821a9a06e0","study_id":"64370a36d30bfa807bc7e43c","correct":true},{"rt":null,"stimulus":"\n\t\t\t\t\t<p>Correct!</p>\n\t\t\t\t\t","response":null,"trial_type":"html-keyboard-response","trial_index":134,"time_elapsed":629077,"internal_node_id":"0.0-5.0-1.3","prolific_id":"6109484d0714b6d80806c4f0","session_id":"64399a9a7396b0821a9a06e0","study_id":"64370a36d30bfa807bc7e43c"},{"rt":827,"stimulus":"\n\t\t\t\t\t\t<div class=\"two_card_container\">\n\t\t\t\t\t\t<div class=\"card_container\">\n\t\t\t\t\t\t<img src=img/36.png>\n\t\t\t\t\t\t</div>\n\n\t\t\t\t\t\t<div class=\"card_container\">\n\t\t\t\t\t\t<img src=img/22.png>\n\t\t\t\t\t\t</div>","response":"j","task":"response","correct_response":"j","trial_type":"html-keyboard-response","trial_index":135,"time_elapsed":629905,"internal_node_id":"0.0-5.0-0.4","prolific_id":"6109484d0714b6d80806c4f0","session_id":"64399a9a7396b0821a9a06e0","study_id":"64370a36d30bfa807bc7e43c","correct":true},{"rt":null,"stimulus":"\n\t\t\t\t\t<p>Correct!</p>\n\t\t\t\t\t","response":null,"trial_type":"html-keyboard-response","trial_index":136,"time_elapsed":630909,"internal_node_id":"0.0-5.0-1.4","prolific_id":"6109484d0714b6d80806c4f0","session_id":"64399a9a7396b0821a9a06e0","study_id":"64370a36d30bfa807bc7e43c"},{"rt":1052,"stimulus":"\n\t\t\t\t\t\t<div class=\"two_card_container\">\n\t\t\t\t\t\t<div class=\"card_container\">\n\t\t\t\t\t\t<img src=img/35.png>\n\t\t\t\t\t\t</div>\n\n\t\t\t\t\t\t<div class=\"card_container\">\n\t\t\t\t\t\t<img src=img/13.png>\n\t\t\t\t\t\t</div>","response":"j","task":"response","correct_response":"j","trial_type":"html-keyboard-response","trial_index":137,"time_elapsed":631962,"internal_node_id":"0.0-5.0-0.5","prolific_id":"6109484d0714b6d80806c4f0","session_id":"64399a9a7396b0821a9a06e0","study_id":"64370a36d30bfa807bc7e43c","correct":true},{"rt":null,"stimulus":"\n\t\t\t\t\t<p>Correct!</p>\n\t\t\t\t\t","response":null,"trial_type":"html-keyboard-response","trial_index":138,"time_elapsed":632965,"internal_node_id":"0.0-5.0-1.5","prolific_id":"6109484d0714b6d80806c4f0","session_id":"64399a9a7396b0821a9a06e0","study_id":"64370a36d30bfa807bc7e43c"},{"rt":738,"stimulus":"\n\t\t\t\t\t\t<div class=\"two_card_container\">\n\t\t\t\t\t\t<div class=\"card_container\">\n\t\t\t\t\t\t<img src=img/7.png>\n\t\t\t\t\t\t</div>\n\n\t\t\t\t\t\t<div class=\"card_container\">\n\t\t\t\t\t\t<img src=img/32.png>\n\t\t\t\t\t\t</div>","response":"f","task":"response","correct_response":"f","trial_type":"html-keyboard-response","trial_index":139,"time_elapsed":633705,"internal_node_id":"0.0-5.0-0.6","prolific_id":"6109484d0714b6d80806c4f0","session_id":"64399a9a7396b0821a9a06e0","study_id":"64370a36d30bfa807bc7e43c","correct":true},{"rt":null,"stimulus":"\n\t\t\t\t\t<p>Correct!</p>\n\t\t\t\t\t","response":null,"trial_type":"html-keyboard-response","trial_index":140,"time_elapsed":634709,"internal_node_id":"0.0-5.0-1.6","prolific_id":"6109484d0714b6d80806c4f0","session_id":"64399a9a7396b0821a9a06e0","study_id":"64370a36d30bfa807bc7e43c"},{"rt":1353,"stimulus":"\n\t\t\t\t\t\t<div class=\"two_card_container\">\n\t\t\t\t\t\t<div class=\"card_container\">\n\t\t\t\t\t\t<img src=img/37.png>\n\t\t\t\t\t\t</div>\n\n\t\t\t\t\t\t<div class=\"card_container\">\n\t\t\t\t\t\t<img src=img/14.png>\n\t\t\t\t\t\t</div>","response":"j","task":"response","correct_response":"j","trial_type":"html-keyboard-response","trial_index":141,"time_elapsed":636064,"internal_node_id":"0.0-5.0-0.7","prolific_id":"6109484d0714b6d80806c4f0","session_id":"64399a9a7396b0821a9a06e0","study_id":"64370a36d30bfa807bc7e43c","correct":true},{"rt":null,"stimulus":"\n\t\t\t\t\t<p>Correct!</p>\n\t\t\t\t\t","response":null,"trial_type":"html-keyboard-response","trial_index":142,"time_elapsed":637068,"internal_node_id":"0.0-5.0-1.7","prolific_id":"6109484d0714b6d80806c4f0","session_id":"64399a9a7396b0821a9a06e0","study_id":"64370a36d30bfa807bc7e43c"},{"rt":686,"stimulus":"\n\t\t\t\t\t\t<div class=\"two_card_container\">\n\t\t\t\t\t\t<div class=\"card_container\">\n\t\t\t\t\t\t<img src=img/28.png>\n\t\t\t\t\t\t</div>\n\n\t\t\t\t\t\t<div class=\"card_container\">\n\t\t\t\t\t\t<img src=img/38.png>\n\t\t\t\t\t\t</div>","response":"f","task":"response","correct_response":"f","trial_type":"html-keyboard-response","trial_index":143,"time_elapsed":637756,"internal_node_id":"0.0-5.0-0.8","prolific_id":"6109484d0714b6d80806c4f0","session_id":"64399a9a7396b0821a9a06e0","study_id":"64370a36d30bfa807bc7e43c","correct":true},{"rt":null,"stimulus":"\n\t\t\t\t\t<p>Correct!</p>\n\t\t\t\t\t","response":null,"trial_type":"html-keyboard-response","trial_index":144,"time_elapsed":638765,"internal_node_id":"0.0-5.0-1.8","prolific_id":"6109484d0714b6d80806c4f0","session_id":"64399a9a7396b0821a9a06e0","study_id":"64370a36d30bfa807bc7e43c"},{"rt":1181,"stimulus":"\n\t\t\t\t\t\t<div class=\"two_card_container\">\n\t\t\t\t\t\t<div class=\"card_container\">\n\t\t\t\t\t\t<img src=img/39.png>\n\t\t\t\t\t\t</div>\n\n\t\t\t\t\t\t<div class=\"card_container\">\n\t\t\t\t\t\t<img src=img/15.png>\n\t\t\t\t\t\t</div>","response":"j","task":"response","correct_response":"j","trial_type":"html-keyboard-response","trial_index":145,"time_elapsed":639946,"internal_node_id":"0.0-5.0-0.9","prolific_id":"6109484d0714b6d80806c4f0","session_id":"64399a9a7396b0821a9a06e0","study_id":"64370a36d30bfa807bc7e43c","correct":true},{"rt":null,"stimulus":"\n\t\t\t\t\t<p>Correct!</p>\n\t\t\t\t\t","response":null,"trial_type":"html-keyboard-response","trial_index":146,"time_elapsed":640948,"internal_node_id":"0.0-5.0-1.9","prolific_id":"6109484d0714b6d80806c4f0","session_id":"64399a9a7396b0821a9a06e0","study_id":"64370a36d30bfa807bc7e43c"},{"rt":null,"stimulus":"\n\t\t\t<h2>Good job :p</h2>\n\t\t\t<p>In the next session, you will see a trivia question on the screen in each trial.</p>\n\t\t\t<p>Each of these trivia questions is chosen from the questions you have already seen in the first session of the experiment.</p><br>\n\t\t\t<p>Your task is to answer the trivia question based on what you remember as accurately as you can.</p>\n\t\t\t<p>Have fun!</p>\n\t\t\t<br>\n\t\t\t<p>The trials will begin in 30 seconds</p>\n\t\t\t","response":null,"trial_type":"html-keyboard-response","trial_index":147,"time_elapsed":670955,"internal_node_id":"0.0-6.0","prolific_id":"6109484d0714b6d80806c4f0","session_id":"64399a9a7396b0821a9a06e0","study_id":"64370a36d30bfa807bc7e43c"},{"rt":5492,"response":{"answer":"70"},"task":"response","correct_response":"79","trial_type":"survey-text","trial_index":148,"time_elapsed":676450,"internal_node_id":"0.0-7.0-0.0","prolific_id":"6109484d0714b6d80806c4f0","session_id":"64399a9a7396b0821a9a06e0","study_id":"64370a36d30bfa807bc7e43c","difference":11},{"rt":null,"stimulus":"<h2>The correct answer is 79.</h2><p>Your answer was different from the answer by 9.</p><p>A pretty good job indeed.</p>","response":null,"trial_type":"html-keyboard-response","trial_index":149,"time_elapsed":678956,"internal_node_id":"0.0-7.0-1.0","prolific_id":"6109484d0714b6d80806c4f0","session_id":"64399a9a7396b0821a9a06e0","study_id":"64370a36d30bfa807bc7e43c"},{"rt":2463,"response":{"answer":"300"},"task":"response","correct_response":"300","trial_type":"survey-text","trial_index":150,"time_elapsed":681422,"internal_node_id":"0.0-7.0-0.1","prolific_id":"6109484d0714b6d80806c4f0","session_id":"64399a9a7396b0821a9a06e0","study_id":"64370a36d30bfa807bc7e43c","difference":0},{"rt":null,"stimulus":"<h2>The correct answer is 300.</h2><p>Your answer was different from the answer by 0.</p><p>You got the right answer. Amazing work!</p>","response":null,"trial_type":"html-keyboard-response","trial_index":151,"time_elapsed":683931,"internal_node_id":"0.0-7.0-1.1","prolific_id":"6109484d0714b6d80806c4f0","session_id":"64399a9a7396b0821a9a06e0","study_id":"64370a36d30bfa807bc7e43c"},{"rt":1740,"response":{"answer":"5"},"task":"response","correct_response":"5","trial_type":"survey-text","trial_index":152,"time_elapsed":685675,"internal_node_id":"0.0-7.0-0.2","prolific_id":"6109484d0714b6d80806c4f0","session_id":"64399a9a7396b0821a9a06e0","study_id":"64370a36d30bfa807bc7e43c","difference":0},{"rt":null,"stimulus":"<h2>The correct answer is 5.</h2><p>Your answer was different from the answer by 0.</p><p>You got the right answer. Amazing work!</p>","response":null,"trial_type":"html-keyboard-response","trial_index":153,"time_elapsed":688179,"internal_node_id":"0.0-7.0-1.2","prolific_id":"6109484d0714b6d80806c4f0","session_id":"64399a9a7396b0821a9a06e0","study_id":"64370a36d30bfa807bc7e43c"},{"rt":2450,"response":{"answer":"88"},"task":"response","correct_response":"88","trial_type":"survey-text","trial_index":154,"time_elapsed":690632,"internal_node_id":"0.0-7.0-0.3","prolific_id":"6109484d0714b6d80806c4f0","session_id":"64399a9a7396b0821a9a06e0","study_id":"64370a36d30bfa807bc7e43c","difference":0},{"rt":null,"stimulus":"<h2>The correct answer is 88.</h2><p>Your answer was different from the answer by 0.</p><p>You got the right answer. Amazing work!</p>","response":null,"trial_type":"html-keyboard-response","trial_index":155,"time_elapsed":693139,"internal_node_id":"0.0-7.0-1.3","prolific_id":"6109484d0714b6d80806c4f0","session_id":"64399a9a7396b0821a9a06e0","study_id":"64370a36d30bfa807bc7e43c"},{"rt":4665,"response":{"answer":"33"},"task":"response","correct_response":"28","trial_type":"survey-text","trial_index":156,"time_elapsed":697807,"internal_node_id":"0.0-7.0-0.4","prolific_id":"6109484d0714b6d80806c4f0","session_id":"64399a9a7396b0821a9a06e0","study_id":"64370a36d30bfa807bc7e43c","difference":18},{"rt":null,"stimulus":"<h2>The correct answer is 28.</h2><p>Your answer was different from the answer by 5.</p><p>A pretty good job indeed.</p>","response":null,"trial_type":"html-keyboard-response","trial_index":157,"time_elapsed":700315,"internal_node_id":"0.0-7.0-1.4","prolific_id":"6109484d0714b6d80806c4f0","session_id":"64399a9a7396b0821a9a06e0","study_id":"64370a36d30bfa807bc7e43c"},{"rt":4144,"response":{"answer":"13126"},"task":"response","correct_response":"13171","trial_type":"survey-text","trial_index":158,"time_elapsed":704462,"internal_node_id":"0.0-7.0-0.5","prolific_id":"6109484d0714b6d80806c4f0","session_id":"64399a9a7396b0821a9a06e0","study_id":"64370a36d30bfa807bc7e43c","difference":0},{"rt":null,"stimulus":"<h2>The correct answer is 13171.</h2><p>Your answer was different from the answer by 45.</p><p>Excellent. Kudos to you!</p>","response":null,"trial_type":"html-keyboard-response","trial_index":159,"time_elapsed":706969,"internal_node_id":"0.0-7.0-1.5","prolific_id":"6109484d0714b6d80806c4f0","session_id":"64399a9a7396b0821a9a06e0","study_id":"64370a36d30bfa807bc7e43c"},{"rt":2555,"response":{"answer":"7"},"task":"response","correct_response":"6","trial_type":"survey-text","trial_index":160,"time_elapsed":709528,"internal_node_id":"0.0-7.0-0.6","prolific_id":"6109484d0714b6d80806c4f0","session_id":"64399a9a7396b0821a9a06e0","study_id":"64370a36d30bfa807bc7e43c","difference":17},{"rt":null,"stimulus":"<h2>The correct answer is 6.</h2><p>Your answer was different from the answer by 1.</p><p>A pretty good job indeed.</p>","response":null,"trial_type":"html-keyboard-response","trial_index":161,"time_elapsed":712034,"internal_node_id":"0.0-7.0-1.6","prolific_id":"6109484d0714b6d80806c4f0","session_id":"64399a9a7396b0821a9a06e0","study_id":"64370a36d30bfa807bc7e43c"},{"rt":1890,"response":{"answer":"73"},"task":"response","correct_response":"73","trial_type":"survey-text","trial_index":162,"time_elapsed":713928,"internal_node_id":"0.0-7.0-0.7","prolific_id":"6109484d0714b6d80806c4f0","session_id":"64399a9a7396b0821a9a06e0","study_id":"64370a36d30bfa807bc7e43c","difference":0},{"rt":null,"stimulus":"<h2>The correct answer is 73.</h2><p>Your answer was different from the answer by 0.</p><p>You got the right answer. Amazing work!</p>","response":null,"trial_type":"html-keyboard-response","trial_index":163,"time_elapsed":716434,"internal_node_id":"0.0-7.0-1.7","prolific_id":"6109484d0714b6d80806c4f0","session_id":"64399a9a7396b0821a9a06e0","study_id":"64370a36d30bfa807bc7e43c"},{"rt":1395,"response":{"answer":"4"},"task":"response","correct_response":"4","trial_type":"survey-text","trial_index":164,"time_elapsed":717832,"internal_node_id":"0.0-7.0-0.8","prolific_id":"6109484d0714b6d80806c4f0","session_id":"64399a9a7396b0821a9a06e0","study_id":"64370a36d30bfa807bc7e43c","difference":0},{"rt":null,"stimulus":"<h2>The correct answer is 4.</h2><p>Your answer was different from the answer by 0.</p><p>You got the right answer. Amazing work!</p>","response":null,"trial_type":"html-keyboard-response","trial_index":165,"time_elapsed":720337,"internal_node_id":"0.0-7.0-1.8","prolific_id":"6109484d0714b6d80806c4f0","session_id":"64399a9a7396b0821a9a06e0","study_id":"64370a36d30bfa807bc7e43c"},{"rt":1656,"response":{"answer":"14"},"task":"response","correct_response":"14","trial_type":"survey-text","trial_index":166,"time_elapsed":721996,"internal_node_id":"0.0-7.0-0.9","prolific_id":"6109484d0714b6d80806c4f0","session_id":"64399a9a7396b0821a9a06e0","study_id":"64370a36d30bfa807bc7e43c","difference":0},{"rt":null,"stimulus":"<h2>The correct answer is 14.</h2><p>Your answer was different from the answer by 0.</p><p>You got the right answer. Amazing work!</p>","response":null,"trial_type":"html-keyboard-response","trial_index":167,"time_elapsed":724506,"internal_node_id":"0.0-7.0-1.9","prolific_id":"6109484d0714b6d80806c4f0","session_id":"64399a9a7396b0821a9a06e0","study_id":"64370a36d30bfa807bc7e43c"}]