[{"success":true,"timeout":false,"failed_images":[],"failed_audio":[],"failed_video":[],"trial_type":"preload","trial_index":0,"time_elapsed":5821,"internal_node_id":"0.0-0.0","prolific_id":"6116a5715df1ce8da68a0ad1","session_id":"643c24fe680a9a5093512dc4","study_id":"64370a36d30bfa807bc7e43c"},{"rt":36691,"stimulus":"\n\t\t\t\t\t<p>Welcome and thank you for participating in this study!</p>\n\t\t\t\t\t<p>In each trial, you will be given a trivia question and then be asked to:</p><br>\n\t\t\t\t\t<div class=\"list\">\n\t\t\t\t\t<p>1) Predict the answer</p>\n\t\t\t\t\t<p>2) Rate how much you already know about the topic</p>\n\t\t\t\t\t<p>3) Rate how much you want to know the answer</p>\n\t\t\t\t\t</div>\n\t\t\t\t\t<br>\n\t\t\t\t\t<p>Then, you will see a card that flips over to reveal the answer.</p>\n\t\t\t\t\t<br>\n\t\t\t\t\t<p>Let's try a practice round. Press <span style=\"color: red\"><strong>any key</strong></span> to move to the next slide</p>\n\t\t\t\t\t","response":" ","trial_type":"html-keyboard-response","trial_index":1,"time_elapsed":42513,"internal_node_id":"0.0-1.0","prolific_id":"6116a5715df1ce8da68a0ad1","session_id":"643c24fe680a9a5093512dc4","study_id":"64370a36d30bfa807bc7e43c"},{"rt":6962,"response":{"practice prediction":"6"},"task":"practice","trial_type":"survey-text","trial_index":2,"time_elapsed":49489,"internal_node_id":"0.0-2.0-0.0","prolific_id":"6116a5715df1ce8da68a0ad1","session_id":"643c24fe680a9a5093512dc4","study_id":"64370a36d30bfa807bc7e43c"},{"rt":9769,"response":{"practice":4},"accuracy":[],"trial_type":"survey","trial_index":3,"time_elapsed":59283,"internal_node_id":"0.0-2.0-1.0","prolific_id":"6116a5715df1ce8da68a0ad1","session_id":"643c24fe680a9a5093512dc4","study_id":"64370a36d30bfa807bc7e43c"},{"rt":null,"stimulus":"\n\t\t\t\t<div class=\"flip_card\">\n\t\t\t\t\t<div class=\"flip_card_inner\">\n\t\t\t\t\t\t<div class=\"flip_card_front\">\n\t\t\t\t\t\t\t<img src=img/practice.png>\n\t\t\t\t\t\t</div>\n\t\t\t\t\t\t<div class=\"flip_card_back\">\n\t\t\t\t\t\t\t<h2>\"How many legs does a lobster have?\"</h2>\n\t\t\t\t\t\t    <br>\n\t\t\t\t\t\t    <p>Answer: <strong>\"10\"</strong></p>\n\t\t\t\t\t    </div>\n\t\t\t\t    </div>\n\t\t\t    </div>\n\t\t\t\t","response":null,"trial_type":"html-keyboard-response","trial_index":4,"time_elapsed":64290,"internal_node_id":"0.0-2.0-2.0","prolific_id":"6116a5715df1ce8da68a0ad1","session_id":"643c24fe680a9a5093512dc4","study_id":"64370a36d30bfa807bc7e43c"},{"rt":1506,"stimulus":"\n\t\t\t\t\t<div>\n\t\t\t\t\t<h2>The practice round is over</h2>\n\t\t\t\t\t<p>Press <span style=\"color: red\"><strong>any key</strong></span> to continue to the actual trials</p>\n\t\t\t\t\t<p>Good Luck!</p>\n\t\t\t\t\t</div>\n\t\t\t\t\t","response":" ","trial_type":"html-keyboard-response","trial_index":5,"time_elapsed":65798,"internal_node_id":"0.0-2.0-3.0","prolific_id":"6116a5715df1ce8da68a0ad1","session_id":"643c24fe680a9a5093512dc4","study_id":"64370a36d30bfa807bc7e43c"},{"rt":20420,"response":{"prediction":"1500"},"trial_type":"survey-text","trial_index":6,"time_elapsed":86221,"internal_node_id":"0.0-3.0-0.0","prolific_id":"6116a5715df1ce8da68a0ad1","session_id":"643c24fe680a9a5093512dc4","study_id":"64370a36d30bfa807bc7e43c"},{"rt":5727,"response":{"prior knowledge":0,"curiosity":5},"accuracy":[],"trial_type":"survey","trial_index":7,"time_elapsed":91960,"internal_node_id":"0.0-3.0-1.0","prolific_id":"6116a5715df1ce8da68a0ad1","session_id":"643c24fe680a9a5093512dc4","study_id":"64370a36d30bfa807bc7e43c"},{"rt":null,"stimulus":"\n\t\t\t<div class=\"flip_card\">\n\t\t\t\t<div class=\"flip_card_inner\">\n\t\t\t\t\t<div class=\"flip_card_front\">\n\t\t\t\t\t\t<img src=img/30.png>\n\t\t\t\t\t</div>\n\t\t\t\t\t<div class=\"flip_card_back\">\n\t\t\t\t\t\t<h2>In what year did the first Modern Olympic Games take place?</h2>\n\t\t\t\t\t\t<br>\n\t\t\t\t\t\t<p>Answer: <strong>1896</strong></p>\n\t\t\t\t\t</div>\n\t\t\t\t</div>\n\t\t\t</div>\n\t\t\t","response":null,"trial_type":"html-keyboard-response","trial_index":8,"time_elapsed":96969,"internal_node_id":"0.0-3.0-2.0","prolific_id":"6116a5715df1ce8da68a0ad1","session_id":"643c24fe680a9a5093512dc4","study_id":"64370a36d30bfa807bc7e43c"},{"rt":1622,"stimulus":"\n\t\t\t\t\t<div>\n\t\t\t\t\t<h2>Trial 1 is over</h2>\n\t\t\t\t\t<p>Press <span style=\"color: red\"><strong>any key</strong></span> to continue to the next trial</p>\n\t\t\t\t\t</div>\n\t\t\t\t","response":" ","trial_type":"html-keyboard-response","trial_index":9,"time_elapsed":98593,"internal_node_id":"0.0-3.0-3.0","prolific_id":"6116a5715df1ce8da68a0ad1","session_id":"643c24fe680a9a5093512dc4","study_id":"64370a36d30bfa807bc7e43c"},{"rt":3124,"response":{"prediction":"8"},"trial_type":"survey-text","trial_index":10,"time_elapsed":101721,"internal_node_id":"0.0-3.0-0.1","prolific_id":"6116a5715df1ce8da68a0ad1","session_id":"643c24fe680a9a5093512dc4","study_id":"64370a36d30bfa807bc7e43c"},{"rt":6962,"response":{"prior knowledge":0,"curiosity":3},"accuracy":[],"trial_type":"survey","trial_index":11,"time_elapsed":108693,"internal_node_id":"0.0-3.0-1.1","prolific_id":"6116a5715df1ce8da68a0ad1","session_id":"643c24fe680a9a5093512dc4","study_id":"64370a36d30bfa807bc7e43c"},{"rt":null,"stimulus":"\n\t\t\t<div class=\"flip_card\">\n\t\t\t\t<div class=\"flip_card_inner\">\n\t\t\t\t\t<div class=\"flip_card_front\">\n\t\t\t\t\t\t<img src=img/11.png>\n\t\t\t\t\t</div>\n\t\t\t\t\t<div class=\"flip_card_back\">\n\t\t\t\t\t\t<h2>How many moons does Neptune have?</h2>\n\t\t\t\t\t\t<br>\n\t\t\t\t\t\t<p>Answer: <strong>14</strong></p>\n\t\t\t\t\t</div>\n\t\t\t\t</div>\n\t\t\t</div>\n\t\t\t","response":null,"trial_type":"html-keyboard-response","trial_index":12,"time_elapsed":113698,"internal_node_id":"0.0-3.0-2.1","prolific_id":"6116a5715df1ce8da68a0ad1","session_id":"643c24fe680a9a5093512dc4","study_id":"64370a36d30bfa807bc7e43c"},{"rt":1022,"stimulus":"\n\t\t\t\t\t<div>\n\t\t\t\t\t<h2>Trial 2 is over</h2>\n\t\t\t\t\t<p>Press <span style=\"color: red\"><strong>any key</strong></span> to continue to the next trial</p>\n\t\t\t\t\t</div>\n\t\t\t\t","response":" ","trial_type":"html-keyboard-response","trial_index":13,"time_elapsed":114721,"internal_node_id":"0.0-3.0-3.1","prolific_id":"6116a5715df1ce8da68a0ad1","session_id":"643c24fe680a9a5093512dc4","study_id":"64370a36d30bfa807bc7e43c"},{"rt":6284,"response":{"prediction":"1866"},"trial_type":"survey-text","trial_index":14,"time_elapsed":121008,"internal_node_id":"0.0-3.0-0.2","prolific_id":"6116a5715df1ce8da68a0ad1","session_id":"643c24fe680a9a5093512dc4","study_id":"64370a36d30bfa807bc7e43c"},{"rt":6822,"response":{"prior knowledge":0,"curiosity":2},"accuracy":[],"trial_type":"survey","trial_index":15,"time_elapsed":127840,"internal_node_id":"0.0-3.0-1.2","prolific_id":"6116a5715df1ce8da68a0ad1","session_id":"643c24fe680a9a5093512dc4","study_id":"64370a36d30bfa807bc7e43c"},{"rt":null,"stimulus":"\n\t\t\t<div class=\"flip_card\">\n\t\t\t\t<div class=\"flip_card_inner\">\n\t\t\t\t\t<div class=\"flip_card_front\">\n\t\t\t\t\t\t<img src=img/7.png>\n\t\t\t\t\t</div>\n\t\t\t\t\t<div class=\"flip_card_back\">\n\t\t\t\t\t\t<h2>In what year was the first Nobel Prize awarded?</h2>\n\t\t\t\t\t\t<br>\n\t\t\t\t\t\t<p>Answer: <strong>1901</strong></p>\n\t\t\t\t\t</div>\n\t\t\t\t</div>\n\t\t\t</div>\n\t\t\t","response":null,"trial_type":"html-keyboard-response","trial_index":16,"time_elapsed":132849,"internal_node_id":"0.0-3.0-2.2","prolific_id":"6116a5715df1ce8da68a0ad1","session_id":"643c24fe680a9a5093512dc4","study_id":"64370a36d30bfa807bc7e43c"},{"rt":857,"stimulus":"\n\t\t\t\t\t<div>\n\t\t\t\t\t<h2>Trial 3 is over</h2>\n\t\t\t\t\t<p>Press <span style=\"color: red\"><strong>any key</strong></span> to continue to the next trial</p>\n\t\t\t\t\t</div>\n\t\t\t\t","response":" ","trial_type":"html-keyboard-response","trial_index":17,"time_elapsed":133707,"internal_node_id":"0.0-3.0-3.2","prolific_id":"6116a5715df1ce8da68a0ad1","session_id":"643c24fe680a9a5093512dc4","study_id":"64370a36d30bfa807bc7e43c"},{"rt":5979,"response":{"prediction":"6"},"trial_type":"survey-text","trial_index":18,"time_elapsed":139689,"internal_node_id":"0.0-3.0-0.3","prolific_id":"6116a5715df1ce8da68a0ad1","session_id":"643c24fe680a9a5093512dc4","study_id":"64370a36d30bfa807bc7e43c"},{"rt":11441,"response":{"prior knowledge":0,"curiosity":3},"accuracy":[],"trial_type":"survey","trial_index":19,"time_elapsed":151141,"internal_node_id":"0.0-3.0-1.3","prolific_id":"6116a5715df1ce8da68a0ad1","session_id":"643c24fe680a9a5093512dc4","study_id":"64370a36d30bfa807bc7e43c"},{"rt":null,"stimulus":"\n\t\t\t<div class=\"flip_card\">\n\t\t\t\t<div class=\"flip_card_inner\">\n\t\t\t\t\t<div class=\"flip_card_front\">\n\t\t\t\t\t\t<img src=img/25.png>\n\t\t\t\t\t</div>\n\t\t\t\t\t<div class=\"flip_card_back\">\n\t\t\t\t\t\t<h2>How many single hand gestures, or mudras, are used in Indian classical dance?</h2>\n\t\t\t\t\t\t<br>\n\t\t\t\t\t\t<p>Answer: <strong>28</strong></p>\n\t\t\t\t\t</div>\n\t\t\t\t</div>\n\t\t\t</div>\n\t\t\t","response":null,"trial_type":"html-keyboard-response","trial_index":20,"time_elapsed":156148,"internal_node_id":"0.0-3.0-2.3","prolific_id":"6116a5715df1ce8da68a0ad1","session_id":"643c24fe680a9a5093512dc4","study_id":"64370a36d30bfa807bc7e43c"},{"rt":1581,"stimulus":"\n\t\t\t\t\t<div>\n\t\t\t\t\t<h2>Trial 4 is over</h2>\n\t\t\t\t\t<p>Press <span style=\"color: red\"><strong>any key</strong></span> to continue to the next trial</p>\n\t\t\t\t\t</div>\n\t\t\t\t","response":" ","trial_type":"html-keyboard-response","trial_index":21,"time_elapsed":157730,"internal_node_id":"0.0-3.0-3.3","prolific_id":"6116a5715df1ce8da68a0ad1","session_id":"643c24fe680a9a5093512dc4","study_id":"64370a36d30bfa807bc7e43c"},{"rt":3956,"response":{"prediction":"12"},"trial_type":"survey-text","trial_index":22,"time_elapsed":161688,"internal_node_id":"0.0-3.0-0.4","prolific_id":"6116a5715df1ce8da68a0ad1","session_id":"643c24fe680a9a5093512dc4","study_id":"64370a36d30bfa807bc7e43c"},{"rt":9542,"response":{"prior knowledge":1,"curiosity":2},"accuracy":[],"trial_type":"survey","trial_index":23,"time_elapsed":171241,"internal_node_id":"0.0-3.0-1.4","prolific_id":"6116a5715df1ce8da68a0ad1","session_id":"643c24fe680a9a5093512dc4","study_id":"64370a36d30bfa807bc7e43c"},{"rt":null,"stimulus":"\n\t\t\t<div class=\"flip_card\">\n\t\t\t\t<div class=\"flip_card_inner\">\n\t\t\t\t\t<div class=\"flip_card_front\">\n\t\t\t\t\t\t<img src=img/8.png>\n\t\t\t\t\t</div>\n\t\t\t\t\t<div class=\"flip_card_back\">\n\t\t\t\t\t\t<h2>How old was King Tut when he died?</h2>\n\t\t\t\t\t\t<br>\n\t\t\t\t\t\t<p>Answer: <strong>19</strong></p>\n\t\t\t\t\t</div>\n\t\t\t\t</div>\n\t\t\t</div>\n\t\t\t","response":null,"trial_type":"html-keyboard-response","trial_index":24,"time_elapsed":176248,"internal_node_id":"0.0-3.0-2.4","prolific_id":"6116a5715df1ce8da68a0ad1","session_id":"643c24fe680a9a5093512dc4","study_id":"64370a36d30bfa807bc7e43c"},{"rt":742,"stimulus":"\n\t\t\t\t\t<div>\n\t\t\t\t\t<h2>Trial 5 is over</h2>\n\t\t\t\t\t<p>Press <span style=\"color: red\"><strong>any key</strong></span> to continue to the next trial</p>\n\t\t\t\t\t</div>\n\t\t\t\t","response":" ","trial_type":"html-keyboard-response","trial_index":25,"time_elapsed":176991,"internal_node_id":"0.0-3.0-3.4","prolific_id":"6116a5715df1ce8da68a0ad1","session_id":"643c24fe680a9a5093512dc4","study_id":"64370a36d30bfa807bc7e43c"},{"rt":8128,"response":{"prediction":"105"},"trial_type":"survey-text","trial_index":26,"time_elapsed":185122,"internal_node_id":"0.0-3.0-0.5","prolific_id":"6116a5715df1ce8da68a0ad1","session_id":"643c24fe680a9a5093512dc4","study_id":"64370a36d30bfa807bc7e43c"},{"rt":6592,"response":{"prior knowledge":1,"curiosity":5},"accuracy":[],"trial_type":"survey","trial_index":27,"time_elapsed":191723,"internal_node_id":"0.0-3.0-1.5","prolific_id":"6116a5715df1ce8da68a0ad1","session_id":"643c24fe680a9a5093512dc4","study_id":"64370a36d30bfa807bc7e43c"},{"rt":null,"stimulus":"\n\t\t\t<div class=\"flip_card\">\n\t\t\t\t<div class=\"flip_card_inner\">\n\t\t\t\t\t<div class=\"flip_card_front\">\n\t\t\t\t\t\t<img src=img/2.png>\n\t\t\t\t\t</div>\n\t\t\t\t\t<div class=\"flip_card_back\">\n\t\t\t\t\t\t<h2>How many countries are in Africa?</h2>\n\t\t\t\t\t\t<br>\n\t\t\t\t\t\t<p>Answer: <strong>54</strong></p>\n\t\t\t\t\t</div>\n\t\t\t\t</div>\n\t\t\t</div>\n\t\t\t","response":null,"trial_type":"html-keyboard-response","trial_index":28,"time_elapsed":196727,"internal_node_id":"0.0-3.0-2.5","prolific_id":"6116a5715df1ce8da68a0ad1","session_id":"643c24fe680a9a5093512dc4","study_id":"64370a36d30bfa807bc7e43c"},{"rt":900,"stimulus":"\n\t\t\t\t\t<div>\n\t\t\t\t\t<h2>Trial 6 is over</h2>\n\t\t\t\t\t<p>Press <span style=\"color: red\"><strong>any key</strong></span> to continue to the next trial</p>\n\t\t\t\t\t</div>\n\t\t\t\t","response":" ","trial_type":"html-keyboard-response","trial_index":29,"time_elapsed":197628,"internal_node_id":"0.0-3.0-3.5","prolific_id":"6116a5715df1ce8da68a0ad1","session_id":"643c24fe680a9a5093512dc4","study_id":"64370a36d30bfa807bc7e43c"},{"rt":4910,"response":{"prediction":"3"},"trial_type":"survey-text","trial_index":30,"time_elapsed":202540,"internal_node_id":"0.0-3.0-0.6","prolific_id":"6116a5715df1ce8da68a0ad1","session_id":"643c24fe680a9a5093512dc4","study_id":"64370a36d30bfa807bc7e43c"},{"rt":4993,"response":{"prior knowledge":0,"curiosity":3},"accuracy":[],"trial_type":"survey","trial_index":31,"time_elapsed":207541,"internal_node_id":"0.0-3.0-1.6","prolific_id":"6116a5715df1ce8da68a0ad1","session_id":"643c24fe680a9a5093512dc4","study_id":"64370a36d30bfa807bc7e43c"},{"rt":null,"stimulus":"\n\t\t\t<div class=\"flip_card\">\n\t\t\t\t<div class=\"flip_card_inner\">\n\t\t\t\t\t<div class=\"flip_card_front\">\n\t\t\t\t\t\t<img src=img/16.png>\n\t\t\t\t\t</div>\n\t\t\t\t\t<div class=\"flip_card_back\">\n\t\t\t\t\t\t<h2>How many times a day do Muslims pray?</h2>\n\t\t\t\t\t\t<br>\n\t\t\t\t\t\t<p>Answer: <strong>5</strong></p>\n\t\t\t\t\t</div>\n\t\t\t\t</div>\n\t\t\t</div>\n\t\t\t","response":null,"trial_type":"html-keyboard-response","trial_index":32,"time_elapsed":212543,"internal_node_id":"0.0-3.0-2.6","prolific_id":"6116a5715df1ce8da68a0ad1","session_id":"643c24fe680a9a5093512dc4","study_id":"64370a36d30bfa807bc7e43c"},{"rt":1052,"stimulus":"\n\t\t\t\t\t<div>\n\t\t\t\t\t<h2>Trial 7 is over</h2>\n\t\t\t\t\t<p>Press <span style=\"color: red\"><strong>any key</strong></span> to continue to the next trial</p>\n\t\t\t\t\t</div>\n\t\t\t\t","response":" ","trial_type":"html-keyboard-response","trial_index":33,"time_elapsed":213596,"internal_node_id":"0.0-3.0-3.6","prolific_id":"6116a5715df1ce8da68a0ad1","session_id":"643c24fe680a9a5093512dc4","study_id":"64370a36d30bfa807bc7e43c"},{"rt":6605,"response":{"prediction":"120"},"trial_type":"survey-text","trial_index":34,"time_elapsed":220205,"internal_node_id":"0.0-3.0-0.7","prolific_id":"6116a5715df1ce8da68a0ad1","session_id":"643c24fe680a9a5093512dc4","study_id":"64370a36d30bfa807bc7e43c"},{"rt":12395,"response":{"prior knowledge":2,"curiosity":5},"accuracy":[],"trial_type":"survey","trial_index":35,"time_elapsed":232609,"internal_node_id":"0.0-3.0-1.7","prolific_id":"6116a5715df1ce8da68a0ad1","session_id":"643c24fe680a9a5093512dc4","study_id":"64370a36d30bfa807bc7e43c"},{"rt":null,"stimulus":"\n\t\t\t<div class=\"flip_card\">\n\t\t\t\t<div class=\"flip_card_inner\">\n\t\t\t\t\t<div class=\"flip_card_front\">\n\t\t\t\t\t\t<img src=img/15.png>\n\t\t\t\t\t</div>\n\t\t\t\t\t<div class=\"flip_card_back\">\n\t\t\t\t\t\t<h2>How many bones is a human baby born with?</h2>\n\t\t\t\t\t\t<br>\n\t\t\t\t\t\t<p>Answer: <strong>300</strong></p>\n\t\t\t\t\t</div>\n\t\t\t\t</div>\n\t\t\t</div>\n\t\t\t","response":null,"trial_type":"html-keyboard-response","trial_index":36,"time_elapsed":237616,"internal_node_id":"0.0-3.0-2.7","prolific_id":"6116a5715df1ce8da68a0ad1","session_id":"643c24fe680a9a5093512dc4","study_id":"64370a36d30bfa807bc7e43c"},{"rt":948,"stimulus":"\n\t\t\t\t\t<div>\n\t\t\t\t\t<h2>Trial 8 is over</h2>\n\t\t\t\t\t<p>Press <span style=\"color: red\"><strong>any key</strong></span> to continue to the next trial</p>\n\t\t\t\t\t</div>\n\t\t\t\t","response":" ","trial_type":"html-keyboard-response","trial_index":37,"time_elapsed":238565,"internal_node_id":"0.0-3.0-3.7","prolific_id":"6116a5715df1ce8da68a0ad1","session_id":"643c24fe680a9a5093512dc4","study_id":"64370a36d30bfa807bc7e43c"},{"rt":6657,"response":{"prediction":"13"},"trial_type":"survey-text","trial_index":38,"time_elapsed":245223,"internal_node_id":"0.0-3.0-0.8","prolific_id":"6116a5715df1ce8da68a0ad1","session_id":"643c24fe680a9a5093512dc4","study_id":"64370a36d30bfa807bc7e43c"},{"rt":4741,"response":{"prior knowledge":2,"curiosity":3},"accuracy":[],"trial_type":"survey","trial_index":39,"time_elapsed":249974,"internal_node_id":"0.0-3.0-1.8","prolific_id":"6116a5715df1ce8da68a0ad1","session_id":"643c24fe680a9a5093512dc4","study_id":"64370a36d30bfa807bc7e43c"},{"rt":null,"stimulus":"\n\t\t\t<div class=\"flip_card\">\n\t\t\t\t<div class=\"flip_card_inner\">\n\t\t\t\t\t<div class=\"flip_card_front\">\n\t\t\t\t\t\t<img src=img/14.png>\n\t\t\t\t\t</div>\n\t\t\t\t\t<div class=\"flip_card_back\">\n\t\t\t\t\t\t<h2>A bar mitzvah is traditionally celebrated when Jewish males turn what age?</h2>\n\t\t\t\t\t\t<br>\n\t\t\t\t\t\t<p>Answer: <strong>13</strong></p>\n\t\t\t\t\t</div>\n\t\t\t\t</div>\n\t\t\t</div>\n\t\t\t","response":null,"trial_type":"html-keyboard-response","trial_index":40,"time_elapsed":254982,"internal_node_id":"0.0-3.0-2.8","prolific_id":"6116a5715df1ce8da68a0ad1","session_id":"643c24fe680a9a5093512dc4","study_id":"64370a36d30bfa807bc7e43c"},{"rt":1048,"stimulus":"\n\t\t\t\t\t<div>\n\t\t\t\t\t<h2>Trial 9 is over</h2>\n\t\t\t\t\t<p>Press <span style=\"color: red\"><strong>any key</strong></span> to continue to the next trial</p>\n\t\t\t\t\t</div>\n\t\t\t\t","response":" ","trial_type":"html-keyboard-response","trial_index":41,"time_elapsed":256030,"internal_node_id":"0.0-3.0-3.8","prolific_id":"6116a5715df1ce8da68a0ad1","session_id":"643c24fe680a9a5093512dc4","study_id":"64370a36d30bfa807bc7e43c"},{"rt":6549,"response":{"prediction":"1921"},"trial_type":"survey-text","trial_index":42,"time_elapsed":262581,"internal_node_id":"0.0-3.0-0.9","prolific_id":"6116a5715df1ce8da68a0ad1","session_id":"643c24fe680a9a5093512dc4","study_id":"64370a36d30bfa807bc7e43c"},{"rt":4490,"response":{"prior knowledge":2,"curiosity":4},"accuracy":[],"trial_type":"survey","trial_index":43,"time_elapsed":267080,"internal_node_id":"0.0-3.0-1.9","prolific_id":"6116a5715df1ce8da68a0ad1","session_id":"643c24fe680a9a5093512dc4","study_id":"64370a36d30bfa807bc7e43c"},{"rt":null,"stimulus":"\n\t\t\t<div class=\"flip_card\">\n\t\t\t\t<div class=\"flip_card_inner\">\n\t\t\t\t\t<div class=\"flip_card_front\">\n\t\t\t\t\t\t<img src=img/6.png>\n\t\t\t\t\t</div>\n\t\t\t\t\t<div class=\"flip_card_back\">\n\t\t\t\t\t\t<h2>What year did the titanic sink?</h2>\n\t\t\t\t\t\t<br>\n\t\t\t\t\t\t<p>Answer: <strong>1912</strong></p>\n\t\t\t\t\t</div>\n\t\t\t\t</div>\n\t\t\t</div>\n\t\t\t","response":null,"trial_type":"html-keyboard-response","trial_index":44,"time_elapsed":272091,"internal_node_id":"0.0-3.0-2.9","prolific_id":"6116a5715df1ce8da68a0ad1","session_id":"643c24fe680a9a5093512dc4","study_id":"64370a36d30bfa807bc7e43c"},{"rt":621,"stimulus":"\n\t\t\t\t\t<div>\n\t\t\t\t\t<h2>Trial 10 is over</h2>\n\t\t\t\t\t<p>Press <span style=\"color: red\"><strong>any key</strong></span> to continue to the next trial</p>\n\t\t\t\t\t</div>\n\t\t\t\t","response":" ","trial_type":"html-keyboard-response","trial_index":45,"time_elapsed":272713,"internal_node_id":"0.0-3.0-3.9","prolific_id":"6116a5715df1ce8da68a0ad1","session_id":"643c24fe680a9a5093512dc4","study_id":"64370a36d30bfa807bc7e43c"},{"rt":7440,"response":{"prediction":"200"},"trial_type":"survey-text","trial_index":46,"time_elapsed":280155,"internal_node_id":"0.0-3.0-0.10","prolific_id":"6116a5715df1ce8da68a0ad1","session_id":"643c24fe680a9a5093512dc4","study_id":"64370a36d30bfa807bc7e43c"},{"rt":10511,"response":{"prior knowledge":0,"curiosity":2},"accuracy":[],"trial_type":"survey","trial_index":47,"time_elapsed":290676,"internal_node_id":"0.0-3.0-1.10","prolific_id":"6116a5715df1ce8da68a0ad1","session_id":"643c24fe680a9a5093512dc4","study_id":"64370a36d30bfa807bc7e43c"},{"rt":null,"stimulus":"\n\t\t\t<div class=\"flip_card\">\n\t\t\t\t<div class=\"flip_card_inner\">\n\t\t\t\t\t<div class=\"flip_card_front\">\n\t\t\t\t\t\t<img src=img/27.png>\n\t\t\t\t\t</div>\n\t\t\t\t\t<div class=\"flip_card_back\">\n\t\t\t\t\t\t<h2>How long is the Great Wall of China (in miles)?</h2>\n\t\t\t\t\t\t<br>\n\t\t\t\t\t\t<p>Answer: <strong>13171</strong></p>\n\t\t\t\t\t</div>\n\t\t\t\t</div>\n\t\t\t</div>\n\t\t\t","response":null,"trial_type":"html-keyboard-response","trial_index":48,"time_elapsed":295682,"internal_node_id":"0.0-3.0-2.10","prolific_id":"6116a5715df1ce8da68a0ad1","session_id":"643c24fe680a9a5093512dc4","study_id":"64370a36d30bfa807bc7e43c"},{"rt":1015,"stimulus":"\n\t\t\t\t\t<div>\n\t\t\t\t\t<h2>Trial 11 is over</h2>\n\t\t\t\t\t<p>Press <span style=\"color: red\"><strong>any key</strong></span> to continue to the next trial</p>\n\t\t\t\t\t</div>\n\t\t\t\t","response":" ","trial_type":"html-keyboard-response","trial_index":49,"time_elapsed":296698,"internal_node_id":"0.0-3.0-3.10","prolific_id":"6116a5715df1ce8da68a0ad1","session_id":"643c24fe680a9a5093512dc4","study_id":"64370a36d30bfa807bc7e43c"},{"rt":8756,"response":{"prediction":"1984"},"trial_type":"survey-text","trial_index":50,"time_elapsed":305455,"internal_node_id":"0.0-3.0-0.11","prolific_id":"6116a5715df1ce8da68a0ad1","session_id":"643c24fe680a9a5093512dc4","study_id":"64370a36d30bfa807bc7e43c"},{"rt":5261,"response":{"prior knowledge":1,"curiosity":3},"accuracy":[],"trial_type":"survey","trial_index":51,"time_elapsed":310725,"internal_node_id":"0.0-3.0-1.11","prolific_id":"6116a5715df1ce8da68a0ad1","session_id":"643c24fe680a9a5093512dc4","study_id":"64370a36d30bfa807bc7e43c"},{"rt":null,"stimulus":"\n\t\t\t<div class=\"flip_card\">\n\t\t\t\t<div class=\"flip_card_inner\">\n\t\t\t\t\t<div class=\"flip_card_front\">\n\t\t\t\t\t\t<img src=img/21.png>\n\t\t\t\t\t</div>\n\t\t\t\t\t<div class=\"flip_card_back\">\n\t\t\t\t\t\t<h2>What year did the Berlin Wall fall?</h2>\n\t\t\t\t\t\t<br>\n\t\t\t\t\t\t<p>Answer: <strong>1989</strong></p>\n\t\t\t\t\t</div>\n\t\t\t\t</div>\n\t\t\t</div>\n\t\t\t","response":null,"trial_type":"html-keyboard-response","trial_index":52,"time_elapsed":315737,"internal_node_id":"0.0-3.0-2.11","prolific_id":"6116a5715df1ce8da68a0ad1","session_id":"643c24fe680a9a5093512dc4","study_id":"64370a36d30bfa807bc7e43c"},{"rt":717,"stimulus":"\n\t\t\t\t\t<div>\n\t\t\t\t\t<h2>Trial 12 is over</h2>\n\t\t\t\t\t<p>Press <span style=\"color: red\"><strong>any key</strong></span> to continue to the next trial</p>\n\t\t\t\t\t</div>\n\t\t\t\t","response":" ","trial_type":"html-keyboard-response","trial_index":53,"time_elapsed":316455,"internal_node_id":"0.0-3.0-3.11","prolific_id":"6116a5715df1ce8da68a0ad1","session_id":"643c24fe680a9a5093512dc4","study_id":"64370a36d30bfa807bc7e43c"},{"rt":5548,"response":{"prediction":"42"},"trial_type":"survey-text","trial_index":54,"time_elapsed":322005,"internal_node_id":"0.0-3.0-0.12","prolific_id":"6116a5715df1ce8da68a0ad1","session_id":"643c24fe680a9a5093512dc4","study_id":"64370a36d30bfa807bc7e43c"},{"rt":5912,"response":{"prior knowledge":0,"curiosity":2},"accuracy":[],"trial_type":"survey","trial_index":55,"time_elapsed":327926,"internal_node_id":"0.0-3.0-1.12","prolific_id":"6116a5715df1ce8da68a0ad1","session_id":"643c24fe680a9a5093512dc4","study_id":"64370a36d30bfa807bc7e43c"},{"rt":null,"stimulus":"\n\t\t\t<div class=\"flip_card\">\n\t\t\t\t<div class=\"flip_card_inner\">\n\t\t\t\t\t<div class=\"flip_card_front\">\n\t\t\t\t\t\t<img src=img/26.png>\n\t\t\t\t\t</div>\n\t\t\t\t\t<div class=\"flip_card_back\">\n\t\t\t\t\t\t<h2>How many double stitches does a baseball have?</h2>\n\t\t\t\t\t\t<br>\n\t\t\t\t\t\t<p>Answer: <strong>108</strong></p>\n\t\t\t\t\t</div>\n\t\t\t\t</div>\n\t\t\t</div>\n\t\t\t","response":null,"trial_type":"html-keyboard-response","trial_index":56,"time_elapsed":332936,"internal_node_id":"0.0-3.0-2.12","prolific_id":"6116a5715df1ce8da68a0ad1","session_id":"643c24fe680a9a5093512dc4","study_id":"64370a36d30bfa807bc7e43c"},{"rt":1832,"stimulus":"\n\t\t\t\t\t<div>\n\t\t\t\t\t<h2>Trial 13 is over</h2>\n\t\t\t\t\t<p>Press <span style=\"color: red\"><strong>any key</strong></span> to continue to the next trial</p>\n\t\t\t\t\t</div>\n\t\t\t\t","response":" ","trial_type":"html-keyboard-response","trial_index":57,"time_elapsed":334768,"internal_node_id":"0.0-3.0-3.12","prolific_id":"6116a5715df1ce8da68a0ad1","session_id":"643c24fe680a9a5093512dc4","study_id":"64370a36d30bfa807bc7e43c"},{"rt":15938,"response":{"prediction":"1256"},"trial_type":"survey-text","trial_index":58,"time_elapsed":350709,"internal_node_id":"0.0-3.0-0.13","prolific_id":"6116a5715df1ce8da68a0ad1","session_id":"643c24fe680a9a5093512dc4","study_id":"64370a36d30bfa807bc7e43c"},{"rt":6891,"response":{"prior knowledge":0,"curiosity":1},"accuracy":[],"trial_type":"survey","trial_index":59,"time_elapsed":357608,"internal_node_id":"0.0-3.0-1.13","prolific_id":"6116a5715df1ce8da68a0ad1","session_id":"643c24fe680a9a5093512dc4","study_id":"64370a36d30bfa807bc7e43c"},{"rt":null,"stimulus":"\n\t\t\t<div class=\"flip_card\">\n\t\t\t\t<div class=\"flip_card_inner\">\n\t\t\t\t\t<div class=\"flip_card_front\">\n\t\t\t\t\t\t<img src=img/1.png>\n\t\t\t\t\t</div>\n\t\t\t\t\t<div class=\"flip_card_back\">\n\t\t\t\t\t\t<h2>What is the diameter of Earth in miles?</h2>\n\t\t\t\t\t\t<br>\n\t\t\t\t\t\t<p>Answer: <strong>7917.5</strong></p>\n\t\t\t\t\t</div>\n\t\t\t\t</div>\n\t\t\t</div>\n\t\t\t","response":null,"trial_type":"html-keyboard-response","trial_index":60,"time_elapsed":362616,"internal_node_id":"0.0-3.0-2.13","prolific_id":"6116a5715df1ce8da68a0ad1","session_id":"643c24fe680a9a5093512dc4","study_id":"64370a36d30bfa807bc7e43c"},{"rt":801,"stimulus":"\n\t\t\t\t\t<div>\n\t\t\t\t\t<h2>Trial 14 is over</h2>\n\t\t\t\t\t<p>Press <span style=\"color: red\"><strong>any key</strong></span> to continue to the next trial</p>\n\t\t\t\t\t</div>\n\t\t\t\t","response":" ","trial_type":"html-keyboard-response","trial_index":61,"time_elapsed":363419,"internal_node_id":"0.0-3.0-3.13","prolific_id":"6116a5715df1ce8da68a0ad1","session_id":"643c24fe680a9a5093512dc4","study_id":"64370a36d30bfa807bc7e43c"},{"rt":6884,"response":{"prediction":"18"},"trial_type":"survey-text","trial_index":62,"time_elapsed":370305,"internal_node_id":"0.0-3.0-0.14","prolific_id":"6116a5715df1ce8da68a0ad1","session_id":"643c24fe680a9a5093512dc4","study_id":"64370a36d30bfa807bc7e43c"},{"rt":4810,"response":{"prior knowledge":0,"curiosity":1},"accuracy":[],"trial_type":"survey","trial_index":63,"time_elapsed":375125,"internal_node_id":"0.0-3.0-1.14","prolific_id":"6116a5715df1ce8da68a0ad1","session_id":"643c24fe680a9a5093512dc4","study_id":"64370a36d30bfa807bc7e43c"},{"rt":null,"stimulus":"\n\t\t\t<div class=\"flip_card\">\n\t\t\t\t<div class=\"flip_card_inner\">\n\t\t\t\t\t<div class=\"flip_card_front\">\n\t\t\t\t\t\t<img src=img/22.png>\n\t\t\t\t\t</div>\n\t\t\t\t\t<div class=\"flip_card_back\">\n\t\t\t\t\t\t<h2>How many people are vegan globally (in millions)?</h2>\n\t\t\t\t\t\t<br>\n\t\t\t\t\t\t<p>Answer: <strong>79</strong></p>\n\t\t\t\t\t</div>\n\t\t\t\t</div>\n\t\t\t</div>\n\t\t\t","response":null,"trial_type":"html-keyboard-response","trial_index":64,"time_elapsed":380133,"internal_node_id":"0.0-3.0-2.14","prolific_id":"6116a5715df1ce8da68a0ad1","session_id":"643c24fe680a9a5093512dc4","study_id":"64370a36d30bfa807bc7e43c"},{"rt":1584,"stimulus":"\n\t\t\t\t\t<div>\n\t\t\t\t\t<h2>Trial 15 is over</h2>\n\t\t\t\t\t<p>Press <span style=\"color: red\"><strong>any key</strong></span> to continue to the next trial</p>\n\t\t\t\t\t</div>\n\t\t\t\t","response":" ","trial_type":"html-keyboard-response","trial_index":65,"time_elapsed":381718,"internal_node_id":"0.0-3.0-3.14","prolific_id":"6116a5715df1ce8da68a0ad1","session_id":"643c24fe680a9a5093512dc4","study_id":"64370a36d30bfa807bc7e43c"},{"rt":9968,"response":{"prediction":"45"},"trial_type":"survey-text","trial_index":66,"time_elapsed":391689,"internal_node_id":"0.0-3.0-0.15","prolific_id":"6116a5715df1ce8da68a0ad1","session_id":"643c24fe680a9a5093512dc4","study_id":"64370a36d30bfa807bc7e43c"},{"rt":5183,"response":{"prior knowledge":1,"curiosity":1},"accuracy":[],"trial_type":"survey","trial_index":67,"time_elapsed":396881,"internal_node_id":"0.0-3.0-1.15","prolific_id":"6116a5715df1ce8da68a0ad1","session_id":"643c24fe680a9a5093512dc4","study_id":"64370a36d30bfa807bc7e43c"},{"rt":null,"stimulus":"\n\t\t\t<div class=\"flip_card\">\n\t\t\t\t<div class=\"flip_card_inner\">\n\t\t\t\t\t<div class=\"flip_card_front\">\n\t\t\t\t\t\t<img src=img/24.png>\n\t\t\t\t\t</div>\n\t\t\t\t\t<div class=\"flip_card_back\">\n\t\t\t\t\t\t<h2>How many main islands make up Japan?</h2>\n\t\t\t\t\t\t<br>\n\t\t\t\t\t\t<p>Answer: <strong>4</strong></p>\n\t\t\t\t\t</div>\n\t\t\t\t</div>\n\t\t\t</div>\n\t\t\t","response":null,"trial_type":"html-keyboard-response","trial_index":68,"time_elapsed":401884,"internal_node_id":"0.0-3.0-2.15","prolific_id":"6116a5715df1ce8da68a0ad1","session_id":"643c24fe680a9a5093512dc4","study_id":"64370a36d30bfa807bc7e43c"},{"rt":983,"stimulus":"\n\t\t\t\t\t<div>\n\t\t\t\t\t<h2>Trial 16 is over</h2>\n\t\t\t\t\t<p>Press <span style=\"color: red\"><strong>any key</strong></span> to continue to the next trial</p>\n\t\t\t\t\t</div>\n\t\t\t\t","response":" ","trial_type":"html-keyboard-response","trial_index":69,"time_elapsed":402867,"internal_node_id":"0.0-3.0-3.15","prolific_id":"6116a5715df1ce8da68a0ad1","session_id":"643c24fe680a9a5093512dc4","study_id":"64370a36d30bfa807bc7e43c"},{"rt":13503,"response":{"prediction":"94"},"trial_type":"survey-text","trial_index":70,"time_elapsed":416373,"internal_node_id":"0.0-3.0-0.16","prolific_id":"6116a5715df1ce8da68a0ad1","session_id":"643c24fe680a9a5093512dc4","study_id":"64370a36d30bfa807bc7e43c"},{"rt":5726,"response":{"prior knowledge":3,"curiosity":5},"accuracy":[],"trial_type":"survey","trial_index":71,"time_elapsed":422108,"internal_node_id":"0.0-3.0-1.16","prolific_id":"6116a5715df1ce8da68a0ad1","session_id":"643c24fe680a9a5093512dc4","study_id":"64370a36d30bfa807bc7e43c"},{"rt":null,"stimulus":"\n\t\t\t<div class=\"flip_card\">\n\t\t\t\t<div class=\"flip_card_inner\">\n\t\t\t\t\t<div class=\"flip_card_front\">\n\t\t\t\t\t\t<img src=img/29.png>\n\t\t\t\t\t</div>\n\t\t\t\t\t<div class=\"flip_card_back\">\n\t\t\t\t\t\t<h2>How many books are in the Catholic Bible?</h2>\n\t\t\t\t\t\t<br>\n\t\t\t\t\t\t<p>Answer: <strong>73</strong></p>\n\t\t\t\t\t</div>\n\t\t\t\t</div>\n\t\t\t</div>\n\t\t\t","response":null,"trial_type":"html-keyboard-response","trial_index":72,"time_elapsed":427116,"internal_node_id":"0.0-3.0-2.16","prolific_id":"6116a5715df1ce8da68a0ad1","session_id":"643c24fe680a9a5093512dc4","study_id":"64370a36d30bfa807bc7e43c"},{"rt":1001,"stimulus":"\n\t\t\t\t\t<div>\n\t\t\t\t\t<h2>Trial 17 is over</h2>\n\t\t\t\t\t<p>Press <span style=\"color: red\"><strong>any key</strong></span> to continue to the next trial</p>\n\t\t\t\t\t</div>\n\t\t\t\t","response":" ","trial_type":"html-keyboard-response","trial_index":73,"time_elapsed":428118,"internal_node_id":"0.0-3.0-3.16","prolific_id":"6116a5715df1ce8da68a0ad1","session_id":"643c24fe680a9a5093512dc4","study_id":"64370a36d30bfa807bc7e43c"},{"rt":3751,"response":{"prediction":"2007"},"trial_type":"survey-text","trial_index":74,"time_elapsed":431872,"internal_node_id":"0.0-3.0-0.17","prolific_id":"6116a5715df1ce8da68a0ad1","session_id":"643c24fe680a9a5093512dc4","study_id":"64370a36d30bfa807bc7e43c"},{"rt":3995,"response":{"prior knowledge":5,"curiosity":5},"accuracy":[],"trial_type":"survey","trial_index":75,"time_elapsed":435874,"internal_node_id":"0.0-3.0-1.17","prolific_id":"6116a5715df1ce8da68a0ad1","session_id":"643c24fe680a9a5093512dc4","study_id":"64370a36d30bfa807bc7e43c"},{"rt":null,"stimulus":"\n\t\t\t<div class=\"flip_card\">\n\t\t\t\t<div class=\"flip_card_inner\">\n\t\t\t\t\t<div class=\"flip_card_front\">\n\t\t\t\t\t\t<img src=img/5.png>\n\t\t\t\t\t</div>\n\t\t\t\t\t<div class=\"flip_card_back\">\n\t\t\t\t\t\t<h2>What year was the very first model of the iPhone released?</h2>\n\t\t\t\t\t\t<br>\n\t\t\t\t\t\t<p>Answer: <strong>2007</strong></p>\n\t\t\t\t\t</div>\n\t\t\t\t</div>\n\t\t\t</div>\n\t\t\t","response":null,"trial_type":"html-keyboard-response","trial_index":76,"time_elapsed":440879,"internal_node_id":"0.0-3.0-2.17","prolific_id":"6116a5715df1ce8da68a0ad1","session_id":"643c24fe680a9a5093512dc4","study_id":"64370a36d30bfa807bc7e43c"},{"rt":5352,"stimulus":"\n\t\t\t\t\t<div>\n\t\t\t\t\t<h2>Trial 18 is over</h2>\n\t\t\t\t\t<p>Press <span style=\"color: red\"><strong>any key</strong></span> to continue to the next trial</p>\n\t\t\t\t\t</div>\n\t\t\t\t","response":" ","trial_type":"html-keyboard-response","trial_index":77,"time_elapsed":446232,"internal_node_id":"0.0-3.0-3.17","prolific_id":"6116a5715df1ce8da68a0ad1","session_id":"643c24fe680a9a5093512dc4","study_id":"64370a36d30bfa807bc7e43c"},{"rt":7190,"response":{"prediction":"300"},"trial_type":"survey-text","trial_index":78,"time_elapsed":453424,"internal_node_id":"0.0-3.0-0.18","prolific_id":"6116a5715df1ce8da68a0ad1","session_id":"643c24fe680a9a5093512dc4","study_id":"64370a36d30bfa807bc7e43c"},{"rt":7291,"response":{"prior knowledge":1,"curiosity":4},"accuracy":[],"trial_type":"survey","trial_index":79,"time_elapsed":460724,"internal_node_id":"0.0-3.0-1.18","prolific_id":"6116a5715df1ce8da68a0ad1","session_id":"643c24fe680a9a5093512dc4","study_id":"64370a36d30bfa807bc7e43c"},{"rt":null,"stimulus":"\n\t\t\t<div class=\"flip_card\">\n\t\t\t\t<div class=\"flip_card_inner\">\n\t\t\t\t\t<div class=\"flip_card_front\">\n\t\t\t\t\t\t<img src=img/18.png>\n\t\t\t\t\t</div>\n\t\t\t\t\t<div class=\"flip_card_back\">\n\t\t\t\t\t\t<h2>How many floors are in the Burj Khalifa, the tallest building in the world?</h2>\n\t\t\t\t\t\t<br>\n\t\t\t\t\t\t<p>Answer: <strong>163</strong></p>\n\t\t\t\t\t</div>\n\t\t\t\t</div>\n\t\t\t</div>\n\t\t\t","response":null,"trial_type":"html-keyboard-response","trial_index":80,"time_elapsed":465733,"internal_node_id":"0.0-3.0-2.18","prolific_id":"6116a5715df1ce8da68a0ad1","session_id":"643c24fe680a9a5093512dc4","study_id":"64370a36d30bfa807bc7e43c"},{"rt":2158,"stimulus":"\n\t\t\t\t\t<div>\n\t\t\t\t\t<h2>Trial 19 is over</h2>\n\t\t\t\t\t<p>Press <span style=\"color: red\"><strong>any key</strong></span> to continue to the next trial</p>\n\t\t\t\t\t</div>\n\t\t\t\t","response":" ","trial_type":"html-keyboard-response","trial_index":81,"time_elapsed":467891,"internal_node_id":"0.0-3.0-3.18","prolific_id":"6116a5715df1ce8da68a0ad1","session_id":"643c24fe680a9a5093512dc4","study_id":"64370a36d30bfa807bc7e43c"},{"rt":10562,"response":{"prediction":"15"},"trial_type":"survey-text","trial_index":82,"time_elapsed":478456,"internal_node_id":"0.0-3.0-0.19","prolific_id":"6116a5715df1ce8da68a0ad1","session_id":"643c24fe680a9a5093512dc4","study_id":"64370a36d30bfa807bc7e43c"},{"rt":10676,"response":{"prior knowledge":0,"curiosity":3},"accuracy":[],"trial_type":"survey","trial_index":83,"time_elapsed":489141,"internal_node_id":"0.0-3.0-1.19","prolific_id":"6116a5715df1ce8da68a0ad1","session_id":"643c24fe680a9a5093512dc4","study_id":"64370a36d30bfa807bc7e43c"},{"rt":null,"stimulus":"\n\t\t\t<div class=\"flip_card\">\n\t\t\t\t<div class=\"flip_card_inner\">\n\t\t\t\t\t<div class=\"flip_card_front\">\n\t\t\t\t\t\t<img src=img/3.png>\n\t\t\t\t\t</div>\n\t\t\t\t\t<div class=\"flip_card_back\">\n\t\t\t\t\t\t<h2>How many countries in Africa have French as the official language?</h2>\n\t\t\t\t\t\t<br>\n\t\t\t\t\t\t<p>Answer: <strong>21</strong></p>\n\t\t\t\t\t</div>\n\t\t\t\t</div>\n\t\t\t</div>\n\t\t\t","response":null,"trial_type":"html-keyboard-response","trial_index":84,"time_elapsed":494150,"internal_node_id":"0.0-3.0-2.19","prolific_id":"6116a5715df1ce8da68a0ad1","session_id":"643c24fe680a9a5093512dc4","study_id":"64370a36d30bfa807bc7e43c"},{"rt":1210,"stimulus":"\n\t\t\t\t\t<div>\n\t\t\t\t\t<h2>Trial 20 is over</h2>\n\t\t\t\t\t<p>Press <span style=\"color: red\"><strong>any key</strong></span> to continue to the next trial</p>\n\t\t\t\t\t</div>\n\t\t\t\t","response":" ","trial_type":"html-keyboard-response","trial_index":85,"time_elapsed":495361,"internal_node_id":"0.0-3.0-3.19","prolific_id":"6116a5715df1ce8da68a0ad1","session_id":"643c24fe680a9a5093512dc4","study_id":"64370a36d30bfa807bc7e43c"},{"rt":14012,"response":{"prediction":"4"},"trial_type":"survey-text","trial_index":86,"time_elapsed":509375,"internal_node_id":"0.0-3.0-0.20","prolific_id":"6116a5715df1ce8da68a0ad1","session_id":"643c24fe680a9a5093512dc4","study_id":"64370a36d30bfa807bc7e43c"},{"rt":8207,"response":{"prior knowledge":2,"curiosity":1},"accuracy":[],"trial_type":"survey","trial_index":87,"time_elapsed":517592,"internal_node_id":"0.0-3.0-1.20","prolific_id":"6116a5715df1ce8da68a0ad1","session_id":"643c24fe680a9a5093512dc4","study_id":"64370a36d30bfa807bc7e43c"},{"rt":null,"stimulus":"\n\t\t\t<div class=\"flip_card\">\n\t\t\t\t<div class=\"flip_card_inner\">\n\t\t\t\t\t<div class=\"flip_card_front\">\n\t\t\t\t\t\t<img src=img/9.png>\n\t\t\t\t\t</div>\n\t\t\t\t\t<div class=\"flip_card_back\">\n\t\t\t\t\t\t<h2>How many tones are in the Vietnamese language?</h2>\n\t\t\t\t\t\t<br>\n\t\t\t\t\t\t<p>Answer: <strong>6</strong></p>\n\t\t\t\t\t</div>\n\t\t\t\t</div>\n\t\t\t</div>\n\t\t\t","response":null,"trial_type":"html-keyboard-response","trial_index":88,"time_elapsed":522598,"internal_node_id":"0.0-3.0-2.20","prolific_id":"6116a5715df1ce8da68a0ad1","session_id":"643c24fe680a9a5093512dc4","study_id":"64370a36d30bfa807bc7e43c"},{"rt":1459,"stimulus":"\n\t\t\t\t\t<div>\n\t\t\t\t\t<h2>Trial 21 is over</h2>\n\t\t\t\t\t<p>Press <span style=\"color: red\"><strong>any key</strong></span> to continue to the next trial</p>\n\t\t\t\t\t</div>\n\t\t\t\t","response":" ","trial_type":"html-keyboard-response","trial_index":89,"time_elapsed":524058,"internal_node_id":"0.0-3.0-3.20","prolific_id":"6116a5715df1ce8da68a0ad1","session_id":"643c24fe680a9a5093512dc4","study_id":"64370a36d30bfa807bc7e43c"},{"rt":4912,"response":{"prediction":"24"},"trial_type":"survey-text","trial_index":90,"time_elapsed":528973,"internal_node_id":"0.0-3.0-0.21","prolific_id":"6116a5715df1ce8da68a0ad1","session_id":"643c24fe680a9a5093512dc4","study_id":"64370a36d30bfa807bc7e43c"},{"rt":4826,"response":{"prior knowledge":2,"curiosity":5},"accuracy":[],"trial_type":"survey","trial_index":91,"time_elapsed":533809,"internal_node_id":"0.0-3.0-1.21","prolific_id":"6116a5715df1ce8da68a0ad1","session_id":"643c24fe680a9a5093512dc4","study_id":"64370a36d30bfa807bc7e43c"},{"rt":null,"stimulus":"\n\t\t\t<div class=\"flip_card\">\n\t\t\t\t<div class=\"flip_card_inner\">\n\t\t\t\t\t<div class=\"flip_card_front\">\n\t\t\t\t\t\t<img src=img/20.png>\n\t\t\t\t\t</div>\n\t\t\t\t\t<div class=\"flip_card_back\">\n\t\t\t\t\t\t<h2>How many lines are in a sonnet?</h2>\n\t\t\t\t\t\t<br>\n\t\t\t\t\t\t<p>Answer: <strong>14</strong></p>\n\t\t\t\t\t</div>\n\t\t\t\t</div>\n\t\t\t</div>\n\t\t\t","response":null,"trial_type":"html-keyboard-response","trial_index":92,"time_elapsed":538815,"internal_node_id":"0.0-3.0-2.21","prolific_id":"6116a5715df1ce8da68a0ad1","session_id":"643c24fe680a9a5093512dc4","study_id":"64370a36d30bfa807bc7e43c"},{"rt":1225,"stimulus":"\n\t\t\t\t\t<div>\n\t\t\t\t\t<h2>Trial 22 is over</h2>\n\t\t\t\t\t<p>Press <span style=\"color: red\"><strong>any key</strong></span> to continue to the next trial</p>\n\t\t\t\t\t</div>\n\t\t\t\t","response":" ","trial_type":"html-keyboard-response","trial_index":93,"time_elapsed":540042,"internal_node_id":"0.0-3.0-3.21","prolific_id":"6116a5715df1ce8da68a0ad1","session_id":"643c24fe680a9a5093512dc4","study_id":"64370a36d30bfa807bc7e43c"},{"rt":7830,"response":{"prediction":"7"},"trial_type":"survey-text","trial_index":94,"time_elapsed":547873,"internal_node_id":"0.0-3.0-0.22","prolific_id":"6116a5715df1ce8da68a0ad1","session_id":"643c24fe680a9a5093512dc4","study_id":"64370a36d30bfa807bc7e43c"},{"rt":4623,"response":{"prior knowledge":0,"curiosity":5},"accuracy":[],"trial_type":"survey","trial_index":95,"time_elapsed":552508,"internal_node_id":"0.0-3.0-1.22","prolific_id":"6116a5715df1ce8da68a0ad1","session_id":"643c24fe680a9a5093512dc4","study_id":"64370a36d30bfa807bc7e43c"},{"rt":null,"stimulus":"\n\t\t\t<div class=\"flip_card\">\n\t\t\t\t<div class=\"flip_card_inner\">\n\t\t\t\t\t<div class=\"flip_card_front\">\n\t\t\t\t\t\t<img src=img/12.png>\n\t\t\t\t\t</div>\n\t\t\t\t\t<div class=\"flip_card_back\">\n\t\t\t\t\t\t<h2>How many countries have territory in the Arctic Circle?</h2>\n\t\t\t\t\t\t<br>\n\t\t\t\t\t\t<p>Answer: <strong>8</strong></p>\n\t\t\t\t\t</div>\n\t\t\t\t</div>\n\t\t\t</div>\n\t\t\t","response":null,"trial_type":"html-keyboard-response","trial_index":96,"time_elapsed":557517,"internal_node_id":"0.0-3.0-2.22","prolific_id":"6116a5715df1ce8da68a0ad1","session_id":"643c24fe680a9a5093512dc4","study_id":"64370a36d30bfa807bc7e43c"},{"rt":917,"stimulus":"\n\t\t\t\t\t<div>\n\t\t\t\t\t<h2>Trial 23 is over</h2>\n\t\t\t\t\t<p>Press <span style=\"color: red\"><strong>any key</strong></span> to continue to the next trial</p>\n\t\t\t\t\t</div>\n\t\t\t\t","response":" ","trial_type":"html-keyboard-response","trial_index":97,"time_elapsed":558434,"internal_node_id":"0.0-3.0-3.22","prolific_id":"6116a5715df1ce8da68a0ad1","session_id":"643c24fe680a9a5093512dc4","study_id":"64370a36d30bfa807bc7e43c"},{"rt":5607,"response":{"prediction":"8"},"trial_type":"survey-text","trial_index":98,"time_elapsed":564044,"internal_node_id":"0.0-3.0-0.23","prolific_id":"6116a5715df1ce8da68a0ad1","session_id":"643c24fe680a9a5093512dc4","study_id":"64370a36d30bfa807bc7e43c"},{"rt":13006,"response":{"prior knowledge":0,"curiosity":1},"accuracy":[],"trial_type":"survey","trial_index":99,"time_elapsed":577058,"internal_node_id":"0.0-3.0-1.23","prolific_id":"6116a5715df1ce8da68a0ad1","session_id":"643c24fe680a9a5093512dc4","study_id":"64370a36d30bfa807bc7e43c"},{"rt":null,"stimulus":"\n\t\t\t<div class=\"flip_card\">\n\t\t\t\t<div class=\"flip_card_inner\">\n\t\t\t\t\t<div class=\"flip_card_front\">\n\t\t\t\t\t\t<img src=img/19.png>\n\t\t\t\t\t</div>\n\t\t\t\t\t<div class=\"flip_card_back\">\n\t\t\t\t\t\t<h2>How many soccer players should each team have on the field at the start of each match?</h2>\n\t\t\t\t\t\t<br>\n\t\t\t\t\t\t<p>Answer: <strong>11</strong></p>\n\t\t\t\t\t</div>\n\t\t\t\t</div>\n\t\t\t</div>\n\t\t\t","response":null,"trial_type":"html-keyboard-response","trial_index":100,"time_elapsed":582066,"internal_node_id":"0.0-3.0-2.23","prolific_id":"6116a5715df1ce8da68a0ad1","session_id":"643c24fe680a9a5093512dc4","study_id":"64370a36d30bfa807bc7e43c"},{"rt":2836,"stimulus":"\n\t\t\t\t\t<div>\n\t\t\t\t\t<h2>Trial 24 is over</h2>\n\t\t\t\t\t<p>Press <span style=\"color: red\"><strong>any key</strong></span> to continue to the next trial</p>\n\t\t\t\t\t</div>\n\t\t\t\t","response":" ","trial_type":"html-keyboard-response","trial_index":101,"time_elapsed":584904,"internal_node_id":"0.0-3.0-3.23","prolific_id":"6116a5715df1ce8da68a0ad1","session_id":"643c24fe680a9a5093512dc4","study_id":"64370a36d30bfa807bc7e43c"},{"rt":7434,"response":{"prediction":"12"},"trial_type":"survey-text","trial_index":102,"time_elapsed":592339,"internal_node_id":"0.0-3.0-0.24","prolific_id":"6116a5715df1ce8da68a0ad1","session_id":"643c24fe680a9a5093512dc4","study_id":"64370a36d30bfa807bc7e43c"},{"rt":5194,"response":{"prior knowledge":0,"curiosity":5},"accuracy":[],"trial_type":"survey","trial_index":103,"time_elapsed":597542,"internal_node_id":"0.0-3.0-1.24","prolific_id":"6116a5715df1ce8da68a0ad1","session_id":"643c24fe680a9a5093512dc4","study_id":"64370a36d30bfa807bc7e43c"},{"rt":null,"stimulus":"\n\t\t\t<div class=\"flip_card\">\n\t\t\t\t<div class=\"flip_card_inner\">\n\t\t\t\t\t<div class=\"flip_card_front\">\n\t\t\t\t\t\t<img src=img/23.png>\n\t\t\t\t\t</div>\n\t\t\t\t\t<div class=\"flip_card_back\">\n\t\t\t\t\t\t<h2>How many different animals (real or imaginary) are represented in the Chinese calendar?</h2>\n\t\t\t\t\t\t<br>\n\t\t\t\t\t\t<p>Answer: <strong>12</strong></p>\n\t\t\t\t\t</div>\n\t\t\t\t</div>\n\t\t\t</div>\n\t\t\t","response":null,"trial_type":"html-keyboard-response","trial_index":104,"time_elapsed":602550,"internal_node_id":"0.0-3.0-2.24","prolific_id":"6116a5715df1ce8da68a0ad1","session_id":"643c24fe680a9a5093512dc4","study_id":"64370a36d30bfa807bc7e43c"},{"rt":855,"stimulus":"\n\t\t\t\t\t<div>\n\t\t\t\t\t<h2>Trial 25 is over</h2>\n\t\t\t\t\t<p>Press <span style=\"color: red\"><strong>any key</strong></span> to continue to the next trial</p>\n\t\t\t\t\t</div>\n\t\t\t\t","response":" ","trial_type":"html-keyboard-response","trial_index":105,"time_elapsed":603406,"internal_node_id":"0.0-3.0-3.24","prolific_id":"6116a5715df1ce8da68a0ad1","session_id":"643c24fe680a9a5093512dc4","study_id":"64370a36d30bfa807bc7e43c"},{"rt":4815,"response":{"prediction":"1911"},"trial_type":"survey-text","trial_index":106,"time_elapsed":608222,"internal_node_id":"0.0-3.0-0.25","prolific_id":"6116a5715df1ce8da68a0ad1","session_id":"643c24fe680a9a5093512dc4","study_id":"64370a36d30bfa807bc7e43c"},{"rt":4348,"response":{"prior knowledge":0,"curiosity":5},"accuracy":[],"trial_type":"survey","trial_index":107,"time_elapsed":612580,"internal_node_id":"0.0-3.0-1.25","prolific_id":"6116a5715df1ce8da68a0ad1","session_id":"643c24fe680a9a5093512dc4","study_id":"64370a36d30bfa807bc7e43c"},{"rt":null,"stimulus":"\n\t\t\t<div class=\"flip_card\">\n\t\t\t\t<div class=\"flip_card_inner\">\n\t\t\t\t\t<div class=\"flip_card_front\">\n\t\t\t\t\t\t<img src=img/13.png>\n\t\t\t\t\t</div>\n\t\t\t\t\t<div class=\"flip_card_back\">\n\t\t\t\t\t\t<h2>In what year was the Mexican artist Frida Kahlo born?</h2>\n\t\t\t\t\t\t<br>\n\t\t\t\t\t\t<p>Answer: <strong>1907</strong></p>\n\t\t\t\t\t</div>\n\t\t\t\t</div>\n\t\t\t</div>\n\t\t\t","response":null,"trial_type":"html-keyboard-response","trial_index":108,"time_elapsed":617588,"internal_node_id":"0.0-3.0-2.25","prolific_id":"6116a5715df1ce8da68a0ad1","session_id":"643c24fe680a9a5093512dc4","study_id":"64370a36d30bfa807bc7e43c"},{"rt":1319,"stimulus":"\n\t\t\t\t\t<div>\n\t\t\t\t\t<h2>Trial 26 is over</h2>\n\t\t\t\t\t<p>Press <span style=\"color: red\"><strong>any key</strong></span> to continue to the next trial</p>\n\t\t\t\t\t</div>\n\t\t\t\t","response":" ","trial_type":"html-keyboard-response","trial_index":109,"time_elapsed":618908,"internal_node_id":"0.0-3.0-3.25","prolific_id":"6116a5715df1ce8da68a0ad1","session_id":"643c24fe680a9a5093512dc4","study_id":"64370a36d30bfa807bc7e43c"},{"rt":6085,"response":{"prediction":"12"},"trial_type":"survey-text","trial_index":110,"time_elapsed":624994,"internal_node_id":"0.0-3.0-0.26","prolific_id":"6116a5715df1ce8da68a0ad1","session_id":"643c24fe680a9a5093512dc4","study_id":"64370a36d30bfa807bc7e43c"},{"rt":5323,"response":{"prior knowledge":0,"curiosity":0},"accuracy":[],"trial_type":"survey","trial_index":111,"time_elapsed":630327,"internal_node_id":"0.0-3.0-1.26","prolific_id":"6116a5715df1ce8da68a0ad1","session_id":"643c24fe680a9a5093512dc4","study_id":"64370a36d30bfa807bc7e43c"},{"rt":null,"stimulus":"\n\t\t\t<div class=\"flip_card\">\n\t\t\t\t<div class=\"flip_card_inner\">\n\t\t\t\t\t<div class=\"flip_card_front\">\n\t\t\t\t\t\t<img src=img/4.png>\n\t\t\t\t\t</div>\n\t\t\t\t\t<div class=\"flip_card_back\">\n\t\t\t\t\t\t<h2>How many native species of kangaroos are found in Australia?</h2>\n\t\t\t\t\t\t<br>\n\t\t\t\t\t\t<p>Answer: <strong>4</strong></p>\n\t\t\t\t\t</div>\n\t\t\t\t</div>\n\t\t\t</div>\n\t\t\t","response":null,"trial_type":"html-keyboard-response","trial_index":112,"time_elapsed":635333,"internal_node_id":"0.0-3.0-2.26","prolific_id":"6116a5715df1ce8da68a0ad1","session_id":"643c24fe680a9a5093512dc4","study_id":"64370a36d30bfa807bc7e43c"},{"rt":1170,"stimulus":"\n\t\t\t\t\t<div>\n\t\t\t\t\t<h2>Trial 27 is over</h2>\n\t\t\t\t\t<p>Press <span style=\"color: red\"><strong>any key</strong></span> to continue to the next trial</p>\n\t\t\t\t\t</div>\n\t\t\t\t","response":" ","trial_type":"html-keyboard-response","trial_index":113,"time_elapsed":636504,"internal_node_id":"0.0-3.0-3.26","prolific_id":"6116a5715df1ce8da68a0ad1","session_id":"643c24fe680a9a5093512dc4","study_id":"64370a36d30bfa807bc7e43c"},{"rt":4550,"response":{"prediction":"13"},"trial_type":"survey-text","trial_index":114,"time_elapsed":641056,"internal_node_id":"0.0-3.0-0.27","prolific_id":"6116a5715df1ce8da68a0ad1","session_id":"643c24fe680a9a5093512dc4","study_id":"64370a36d30bfa807bc7e43c"},{"rt":3995,"response":{"prior knowledge":4,"curiosity":5},"accuracy":[],"trial_type":"survey","trial_index":115,"time_elapsed":645058,"internal_node_id":"0.0-3.0-1.27","prolific_id":"6116a5715df1ce8da68a0ad1","session_id":"643c24fe680a9a5093512dc4","study_id":"64370a36d30bfa807bc7e43c"},{"rt":null,"stimulus":"\n\t\t\t<div class=\"flip_card\">\n\t\t\t\t<div class=\"flip_card_inner\">\n\t\t\t\t\t<div class=\"flip_card_front\">\n\t\t\t\t\t\t<img src=img/17.png>\n\t\t\t\t\t</div>\n\t\t\t\t\t<div class=\"flip_card_back\">\n\t\t\t\t\t\t<h2>How much is in a Baker's Dozen?</h2>\n\t\t\t\t\t\t<br>\n\t\t\t\t\t\t<p>Answer: <strong>13</strong></p>\n\t\t\t\t\t</div>\n\t\t\t\t</div>\n\t\t\t</div>\n\t\t\t","response":null,"trial_type":"html-keyboard-response","trial_index":116,"time_elapsed":650067,"internal_node_id":"0.0-3.0-2.27","prolific_id":"6116a5715df1ce8da68a0ad1","session_id":"643c24fe680a9a5093512dc4","study_id":"64370a36d30bfa807bc7e43c"},{"rt":2653,"stimulus":"\n\t\t\t\t\t<div>\n\t\t\t\t\t<h2>Trial 28 is over</h2>\n\t\t\t\t\t<p>Press <span style=\"color: red\"><strong>any key</strong></span> to continue to the next trial</p>\n\t\t\t\t\t</div>\n\t\t\t\t","response":" ","trial_type":"html-keyboard-response","trial_index":117,"time_elapsed":652722,"internal_node_id":"0.0-3.0-3.27","prolific_id":"6116a5715df1ce8da68a0ad1","session_id":"643c24fe680a9a5093512dc4","study_id":"64370a36d30bfa807bc7e43c"},{"rt":9283,"response":{"prediction":"25"},"trial_type":"survey-text","trial_index":118,"time_elapsed":662006,"internal_node_id":"0.0-3.0-0.28","prolific_id":"6116a5715df1ce8da68a0ad1","session_id":"643c24fe680a9a5093512dc4","study_id":"64370a36d30bfa807bc7e43c"},{"rt":3027,"response":{"prior knowledge":0,"curiosity":5},"accuracy":[],"trial_type":"survey","trial_index":119,"time_elapsed":665042,"internal_node_id":"0.0-3.0-1.28","prolific_id":"6116a5715df1ce8da68a0ad1","session_id":"643c24fe680a9a5093512dc4","study_id":"64370a36d30bfa807bc7e43c"},{"rt":null,"stimulus":"\n\t\t\t<div class=\"flip_card\">\n\t\t\t\t<div class=\"flip_card_inner\">\n\t\t\t\t\t<div class=\"flip_card_front\">\n\t\t\t\t\t\t<img src=img/10.png>\n\t\t\t\t\t</div>\n\t\t\t\t\t<div class=\"flip_card_back\">\n\t\t\t\t\t\t<h2>How many books has Stephen King published?</h2>\n\t\t\t\t\t\t<br>\n\t\t\t\t\t\t<p>Answer: <strong>65</strong></p>\n\t\t\t\t\t</div>\n\t\t\t\t</div>\n\t\t\t</div>\n\t\t\t","response":null,"trial_type":"html-keyboard-response","trial_index":120,"time_elapsed":670050,"internal_node_id":"0.0-3.0-2.28","prolific_id":"6116a5715df1ce8da68a0ad1","session_id":"643c24fe680a9a5093512dc4","study_id":"64370a36d30bfa807bc7e43c"},{"rt":720,"stimulus":"\n\t\t\t\t\t<div>\n\t\t\t\t\t<h2>Trial 29 is over</h2>\n\t\t\t\t\t<p>Press <span style=\"color: red\"><strong>any key</strong></span> to continue to the next trial</p>\n\t\t\t\t\t</div>\n\t\t\t\t","response":" ","trial_type":"html-keyboard-response","trial_index":121,"time_elapsed":670771,"internal_node_id":"0.0-3.0-3.28","prolific_id":"6116a5715df1ce8da68a0ad1","session_id":"643c24fe680a9a5093512dc4","study_id":"64370a36d30bfa807bc7e43c"},{"rt":5453,"response":{"prediction":"104"},"trial_type":"survey-text","trial_index":122,"time_elapsed":676226,"internal_node_id":"0.0-3.0-0.29","prolific_id":"6116a5715df1ce8da68a0ad1","session_id":"643c24fe680a9a5093512dc4","study_id":"64370a36d30bfa807bc7e43c"},{"rt":24574,"response":{"prior knowledge":0,"curiosity":5},"accuracy":[],"trial_type":"survey","trial_index":123,"time_elapsed":700809,"internal_node_id":"0.0-3.0-1.29","prolific_id":"6116a5715df1ce8da68a0ad1","session_id":"643c24fe680a9a5093512dc4","study_id":"64370a36d30bfa807bc7e43c"},{"rt":null,"stimulus":"\n\t\t\t<div class=\"flip_card\">\n\t\t\t\t<div class=\"flip_card_inner\">\n\t\t\t\t\t<div class=\"flip_card_front\">\n\t\t\t\t\t\t<img src=img/28.png>\n\t\t\t\t\t</div>\n\t\t\t\t\t<div class=\"flip_card_back\">\n\t\t\t\t\t\t<h2>How many constellations are there?</h2>\n\t\t\t\t\t\t<br>\n\t\t\t\t\t\t<p>Answer: <strong>88</strong></p>\n\t\t\t\t\t</div>\n\t\t\t\t</div>\n\t\t\t</div>\n\t\t\t","response":null,"trial_type":"html-keyboard-response","trial_index":124,"time_elapsed":705817,"internal_node_id":"0.0-3.0-2.29","prolific_id":"6116a5715df1ce8da68a0ad1","session_id":"643c24fe680a9a5093512dc4","study_id":"64370a36d30bfa807bc7e43c"},{"rt":1473,"stimulus":"\n\t\t\t\t\t<div>\n\t\t\t\t\t<h2>Trial 30 is over</h2>\n\t\t\t\t\t<p>Press <span style=\"color: red\"><strong>any key</strong></span> to continue to the next trial</p>\n\t\t\t\t\t</div>\n\t\t\t\t","response":" ","trial_type":"html-keyboard-response","trial_index":125,"time_elapsed":707290,"internal_node_id":"0.0-3.0-3.29","prolific_id":"6116a5715df1ce8da68a0ad1","session_id":"643c24fe680a9a5093512dc4","study_id":"64370a36d30bfa807bc7e43c"},{"rt":21799,"stimulus":"\n\t\t\t<h2>Good job! You've finished the 30 trials:p</h2>\n\t\t\t<p>In the next session, you will see two cards on the screen in each trial.</p>\n\t\t\t<p>On one card is a pattern that you have seen before in the experiment,\n\t\t\t\tand on the other card is one you have not seen.</p><br>\n\t\t\t<p>Your task is to choose the one you think you <em>have</em> seen before for every trial.</p>\n\t\t\t<p>Press '<span style=\"color: red;\"><strong>F</strong></span>' to choose the card on the left,\n\t\t\t\tand '<span style=\"color: red;\"><strong>J</strong></span>' to choose the card on the right.</p>\n\t\t\t<p>Have fun!</p>\n\t\t\t<br>\n\t\t\t<p>The trials will begin in 30 seconds</p>\n\t\t\t","response":" ","trial_type":"html-keyboard-response","trial_index":126,"time_elapsed":729090,"internal_node_id":"0.0-4.0","prolific_id":"6116a5715df1ce8da68a0ad1","session_id":"643c24fe680a9a5093512dc4","study_id":"64370a36d30bfa807bc7e43c"},{"rt":1452,"stimulus":"\n\t\t\t\t\t\t<div class=\"two_card_container\">\n\t\t\t\t\t\t<div class=\"card_container\">\n\t\t\t\t\t\t<img src=img/9.png>\n\t\t\t\t\t\t</div>\n\n\t\t\t\t\t\t<div class=\"card_container\">\n\t\t\t\t\t\t<img src=img/34.png>\n\t\t\t\t\t\t</div>","response":"f","task":"response","correct_response":"f","trial_type":"html-keyboard-response","trial_index":127,"time_elapsed":730546,"internal_node_id":"0.0-5.0-0.0","prolific_id":"6116a5715df1ce8da68a0ad1","session_id":"643c24fe680a9a5093512dc4","study_id":"64370a36d30bfa807bc7e43c","correct":true},{"rt":null,"stimulus":"\n\t\t\t\t\t<p>Correct!</p>\n\t\t\t\t\t","response":null,"trial_type":"html-keyboard-response","trial_index":128,"time_elapsed":731552,"internal_node_id":"0.0-5.0-1.0","prolific_id":"6116a5715df1ce8da68a0ad1","session_id":"643c24fe680a9a5093512dc4","study_id":"64370a36d30bfa807bc7e43c"},{"rt":1961,"stimulus":"\n\t\t\t\t\t\t<div class=\"two_card_container\">\n\t\t\t\t\t\t<div class=\"card_container\">\n\t\t\t\t\t\t<img src=img/31.png>\n\t\t\t\t\t\t</div>\n\n\t\t\t\t\t\t<div class=\"card_container\">\n\t\t\t\t\t\t<img src=img/25.png>\n\t\t\t\t\t\t</div>","response":"j","task":"response","correct_response":"j","trial_type":"html-keyboard-response","trial_index":129,"time_elapsed":733514,"internal_node_id":"0.0-5.0-0.1","prolific_id":"6116a5715df1ce8da68a0ad1","session_id":"643c24fe680a9a5093512dc4","study_id":"64370a36d30bfa807bc7e43c","correct":true},{"rt":null,"stimulus":"\n\t\t\t\t\t<p>Correct!</p>\n\t\t\t\t\t","response":null,"trial_type":"html-keyboard-response","trial_index":130,"time_elapsed":734520,"internal_node_id":"0.0-5.0-1.1","prolific_id":"6116a5715df1ce8da68a0ad1","session_id":"643c24fe680a9a5093512dc4","study_id":"64370a36d30bfa807bc7e43c"},{"rt":1138,"stimulus":"\n\t\t\t\t\t\t<div class=\"two_card_container\">\n\t\t\t\t\t\t<div class=\"card_container\">\n\t\t\t\t\t\t<img src=img/40.png>\n\t\t\t\t\t\t</div>\n\n\t\t\t\t\t\t<div class=\"card_container\">\n\t\t\t\t\t\t<img src=img/15.png>\n\t\t\t\t\t\t</div>","response":"j","task":"response","correct_response":"j","trial_type":"html-keyboard-response","trial_index":131,"time_elapsed":735659,"internal_node_id":"0.0-5.0-0.2","prolific_id":"6116a5715df1ce8da68a0ad1","session_id":"643c24fe680a9a5093512dc4","study_id":"64370a36d30bfa807bc7e43c","correct":true},{"rt":null,"stimulus":"\n\t\t\t\t\t<p>Correct!</p>\n\t\t\t\t\t","response":null,"trial_type":"html-keyboard-response","trial_index":132,"time_elapsed":736667,"internal_node_id":"0.0-5.0-1.2","prolific_id":"6116a5715df1ce8da68a0ad1","session_id":"643c24fe680a9a5093512dc4","study_id":"64370a36d30bfa807bc7e43c"},{"rt":934,"stimulus":"\n\t\t\t\t\t\t<div class=\"two_card_container\">\n\t\t\t\t\t\t<div class=\"card_container\">\n\t\t\t\t\t\t<img src=img/20.png>\n\t\t\t\t\t\t</div>\n\n\t\t\t\t\t\t<div class=\"card_container\">\n\t\t\t\t\t\t<img src=img/35.png>\n\t\t\t\t\t\t</div>","response":"f","task":"response","correct_response":"f","trial_type":"html-keyboard-response","trial_index":133,"time_elapsed":737602,"internal_node_id":"0.0-5.0-0.3","prolific_id":"6116a5715df1ce8da68a0ad1","session_id":"643c24fe680a9a5093512dc4","study_id":"64370a36d30bfa807bc7e43c","correct":true},{"rt":null,"stimulus":"\n\t\t\t\t\t<p>Correct!</p>\n\t\t\t\t\t","response":null,"trial_type":"html-keyboard-response","trial_index":134,"time_elapsed":738608,"internal_node_id":"0.0-5.0-1.3","prolific_id":"6116a5715df1ce8da68a0ad1","session_id":"643c24fe680a9a5093512dc4","study_id":"64370a36d30bfa807bc7e43c"},{"rt":1217,"stimulus":"\n\t\t\t\t\t\t<div class=\"two_card_container\">\n\t\t\t\t\t\t<div class=\"card_container\">\n\t\t\t\t\t\t<img src=img/11.png>\n\t\t\t\t\t\t</div>\n\n\t\t\t\t\t\t<div class=\"card_container\">\n\t\t\t\t\t\t<img src=img/38.png>\n\t\t\t\t\t\t</div>","response":"j","task":"response","correct_response":"f","trial_type":"html-keyboard-response","trial_index":135,"time_elapsed":739826,"internal_node_id":"0.0-5.0-0.4","prolific_id":"6116a5715df1ce8da68a0ad1","session_id":"643c24fe680a9a5093512dc4","study_id":"64370a36d30bfa807bc7e43c","correct":false},{"rt":null,"stimulus":"\n\t\t\t\t\t<p>Wrong answer</p>\n\t\t\t\t\t","response":null,"trial_type":"html-keyboard-response","trial_index":136,"time_elapsed":740836,"internal_node_id":"0.0-5.0-1.4","prolific_id":"6116a5715df1ce8da68a0ad1","session_id":"643c24fe680a9a5093512dc4","study_id":"64370a36d30bfa807bc7e43c"},{"rt":1380,"stimulus":"\n\t\t\t\t\t\t<div class=\"two_card_container\">\n\t\t\t\t\t\t<div class=\"card_container\">\n\t\t\t\t\t\t<img src=img/7.png>\n\t\t\t\t\t\t</div>\n\n\t\t\t\t\t\t<div class=\"card_container\">\n\t\t\t\t\t\t<img src=img/39.png>\n\t\t\t\t\t\t</div>","response":"f","task":"response","correct_response":"f","trial_type":"html-keyboard-response","trial_index":137,"time_elapsed":742217,"internal_node_id":"0.0-5.0-0.5","prolific_id":"6116a5715df1ce8da68a0ad1","session_id":"643c24fe680a9a5093512dc4","study_id":"64370a36d30bfa807bc7e43c","correct":true},{"rt":null,"stimulus":"\n\t\t\t\t\t<p>Correct!</p>\n\t\t\t\t\t","response":null,"trial_type":"html-keyboard-response","trial_index":138,"time_elapsed":743225,"internal_node_id":"0.0-5.0-1.5","prolific_id":"6116a5715df1ce8da68a0ad1","session_id":"643c24fe680a9a5093512dc4","study_id":"64370a36d30bfa807bc7e43c"},{"rt":1115,"stimulus":"\n\t\t\t\t\t\t<div class=\"two_card_container\">\n\t\t\t\t\t\t<div class=\"card_container\">\n\t\t\t\t\t\t<img src=img/27.png>\n\t\t\t\t\t\t</div>\n\n\t\t\t\t\t\t<div class=\"card_container\">\n\t\t\t\t\t\t<img src=img/36.png>\n\t\t\t\t\t\t</div>","response":"f","task":"response","correct_response":"f","trial_type":"html-keyboard-response","trial_index":139,"time_elapsed":744341,"internal_node_id":"0.0-5.0-0.6","prolific_id":"6116a5715df1ce8da68a0ad1","session_id":"643c24fe680a9a5093512dc4","study_id":"64370a36d30bfa807bc7e43c","correct":true},{"rt":null,"stimulus":"\n\t\t\t\t\t<p>Correct!</p>\n\t\t\t\t\t","response":null,"trial_type":"html-keyboard-response","trial_index":140,"time_elapsed":745345,"internal_node_id":"0.0-5.0-1.6","prolific_id":"6116a5715df1ce8da68a0ad1","session_id":"643c24fe680a9a5093512dc4","study_id":"64370a36d30bfa807bc7e43c"},{"rt":1153,"stimulus":"\n\t\t\t\t\t\t<div class=\"two_card_container\">\n\t\t\t\t\t\t<div class=\"card_container\">\n\t\t\t\t\t\t<img src=img/32.png>\n\t\t\t\t\t\t</div>\n\n\t\t\t\t\t\t<div class=\"card_container\">\n\t\t\t\t\t\t<img src=img/6.png>\n\t\t\t\t\t\t</div>","response":"j","task":"response","correct_response":"j","trial_type":"html-keyboard-response","trial_index":141,"time_elapsed":746499,"internal_node_id":"0.0-5.0-0.7","prolific_id":"6116a5715df1ce8da68a0ad1","session_id":"643c24fe680a9a5093512dc4","study_id":"64370a36d30bfa807bc7e43c","correct":true},{"rt":null,"stimulus":"\n\t\t\t\t\t<p>Correct!</p>\n\t\t\t\t\t","response":null,"trial_type":"html-keyboard-response","trial_index":142,"time_elapsed":747508,"internal_node_id":"0.0-5.0-1.7","prolific_id":"6116a5715df1ce8da68a0ad1","session_id":"643c24fe680a9a5093512dc4","study_id":"64370a36d30bfa807bc7e43c"},{"rt":966,"stimulus":"\n\t\t\t\t\t\t<div class=\"two_card_container\">\n\t\t\t\t\t\t<div class=\"card_container\">\n\t\t\t\t\t\t<img src=img/33.png>\n\t\t\t\t\t\t</div>\n\n\t\t\t\t\t\t<div class=\"card_container\">\n\t\t\t\t\t\t<img src=img/28.png>\n\t\t\t\t\t\t</div>","response":"j","task":"response","correct_response":"j","trial_type":"html-keyboard-response","trial_index":143,"time_elapsed":748475,"internal_node_id":"0.0-5.0-0.8","prolific_id":"6116a5715df1ce8da68a0ad1","session_id":"643c24fe680a9a5093512dc4","study_id":"64370a36d30bfa807bc7e43c","correct":true},{"rt":null,"stimulus":"\n\t\t\t\t\t<p>Correct!</p>\n\t\t\t\t\t","response":null,"trial_type":"html-keyboard-response","trial_index":144,"time_elapsed":749484,"internal_node_id":"0.0-5.0-1.8","prolific_id":"6116a5715df1ce8da68a0ad1","session_id":"643c24fe680a9a5093512dc4","study_id":"64370a36d30bfa807bc7e43c"},{"rt":1817,"stimulus":"\n\t\t\t\t\t\t<div class=\"two_card_container\">\n\t\t\t\t\t\t<div class=\"card_container\">\n\t\t\t\t\t\t<img src=img/37.png>\n\t\t\t\t\t\t</div>\n\n\t\t\t\t\t\t<div class=\"card_container\">\n\t\t\t\t\t\t<img src=img/3.png>\n\t\t\t\t\t\t</div>","response":"j","task":"response","correct_response":"j","trial_type":"html-keyboard-response","trial_index":145,"time_elapsed":751302,"internal_node_id":"0.0-5.0-0.9","prolific_id":"6116a5715df1ce8da68a0ad1","session_id":"643c24fe680a9a5093512dc4","study_id":"64370a36d30bfa807bc7e43c","correct":true},{"rt":null,"stimulus":"\n\t\t\t\t\t<p>Correct!</p>\n\t\t\t\t\t","response":null,"trial_type":"html-keyboard-response","trial_index":146,"time_elapsed":752304,"internal_node_id":"0.0-5.0-1.9","prolific_id":"6116a5715df1ce8da68a0ad1","session_id":"643c24fe680a9a5093512dc4","study_id":"64370a36d30bfa807bc7e43c"},{"rt":13926,"stimulus":"\n\t\t\t<h2>Good job :p</h2>\n\t\t\t<p>In the next session, you will see a trivia question on the screen in each trial.</p>\n\t\t\t<p>Each of these trivia questions is chosen from the questions you have already seen in the first session of the experiment.</p><br>\n\t\t\t<p>Your task is to answer the trivia question based on what you remember as accurately as you can.</p>\n\t\t\t<p>Have fun!</p>\n\t\t\t<br>\n\t\t\t<p>The trials will begin in 30 seconds</p>\n\t\t\t","response":" ","trial_type":"html-keyboard-response","trial_index":147,"time_elapsed":766231,"internal_node_id":"0.0-6.0","prolific_id":"6116a5715df1ce8da68a0ad1","session_id":"643c24fe680a9a5093512dc4","study_id":"64370a36d30bfa807bc7e43c"},{"rt":3553,"response":{"answer":"4"},"task":"response","correct_response":"21","trial_type":"survey-text","trial_index":148,"time_elapsed":769791,"internal_node_id":"0.0-7.0-0.0","prolific_id":"6116a5715df1ce8da68a0ad1","session_id":"643c24fe680a9a5093512dc4","study_id":"64370a36d30bfa807bc7e43c","difference":81},{"rt":null,"stimulus":"<h2>The correct answer is 21.</h2><p>Your answer was different from the answer by 17.</p><p>Not even close... do better next time!</p>","response":null,"trial_type":"html-keyboard-response","trial_index":149,"time_elapsed":772300,"internal_node_id":"0.0-7.0-1.0","prolific_id":"6116a5715df1ce8da68a0ad1","session_id":"643c24fe680a9a5093512dc4","study_id":"64370a36d30bfa807bc7e43c"},{"rt":3203,"response":{"answer":"14"},"task":"response","correct_response":"14","trial_type":"survey-text","trial_index":150,"time_elapsed":775506,"internal_node_id":"0.0-7.0-0.1","prolific_id":"6116a5715df1ce8da68a0ad1","session_id":"643c24fe680a9a5093512dc4","study_id":"64370a36d30bfa807bc7e43c","difference":0},{"rt":null,"stimulus":"<h2>The correct answer is 14.</h2><p>Your answer was different from the answer by 0.</p><p>You got the right answer. Amazing work!</p>","response":null,"trial_type":"html-keyboard-response","trial_index":151,"time_elapsed":778008,"internal_node_id":"0.0-7.0-1.1","prolific_id":"6116a5715df1ce8da68a0ad1","session_id":"643c24fe680a9a5093512dc4","study_id":"64370a36d30bfa807bc7e43c"},{"rt":3961,"response":{"answer":"1989"},"task":"response","correct_response":"1989","trial_type":"survey-text","trial_index":152,"time_elapsed":781973,"internal_node_id":"0.0-7.0-0.2","prolific_id":"6116a5715df1ce8da68a0ad1","session_id":"643c24fe680a9a5093512dc4","study_id":"64370a36d30bfa807bc7e43c","difference":0},{"rt":null,"stimulus":"<h2>The correct answer is 1989.</h2><p>Your answer was different from the answer by 0.</p><p>You got the right answer. Amazing work!</p>","response":null,"trial_type":"html-keyboard-response","trial_index":153,"time_elapsed":784483,"internal_node_id":"0.0-7.0-1.2","prolific_id":"6116a5715df1ce8da68a0ad1","session_id":"643c24fe680a9a5093512dc4","study_id":"64370a36d30bfa807bc7e43c"},{"rt":3455,"response":{"answer":"300"},"task":"response","correct_response":"300","trial_type":"survey-text","trial_index":154,"time_elapsed":787940,"internal_node_id":"0.0-7.0-0.3","prolific_id":"6116a5715df1ce8da68a0ad1","session_id":"643c24fe680a9a5093512dc4","study_id":"64370a36d30bfa807bc7e43c","difference":0},{"rt":null,"stimulus":"<h2>The correct answer is 300.</h2><p>Your answer was different from the answer by 0.</p><p>You got the right answer. Amazing work!</p>","response":null,"trial_type":"html-keyboard-response","trial_index":155,"time_elapsed":790450,"internal_node_id":"0.0-7.0-1.3","prolific_id":"6116a5715df1ce8da68a0ad1","session_id":"643c24fe680a9a5093512dc4","study_id":"64370a36d30bfa807bc7e43c"},{"rt":2536,"response":{"answer":"11"},"task":"response","correct_response":"11","trial_type":"survey-text","trial_index":156,"time_elapsed":792989,"internal_node_id":"0.0-7.0-0.4","prolific_id":"6116a5715df1ce8da68a0ad1","session_id":"643c24fe680a9a5093512dc4","study_id":"64370a36d30bfa807bc7e43c","difference":0},{"rt":null,"stimulus":"<h2>The correct answer is 11.</h2><p>Your answer was different from the answer by 0.</p><p>You got the right answer. Amazing work!</p>","response":null,"trial_type":"html-keyboard-response","trial_index":157,"time_elapsed":795500,"internal_node_id":"0.0-7.0-1.4","prolific_id":"6116a5715df1ce8da68a0ad1","session_id":"643c24fe680a9a5093512dc4","study_id":"64370a36d30bfa807bc7e43c"},{"rt":4554,"response":{"answer":"73"},"task":"response","correct_response":"54","trial_type":"survey-text","trial_index":158,"time_elapsed":800056,"internal_node_id":"0.0-7.0-0.5","prolific_id":"6116a5715df1ce8da68a0ad1","session_id":"643c24fe680a9a5093512dc4","study_id":"64370a36d30bfa807bc7e43c","difference":35},{"rt":null,"stimulus":"<h2>The correct answer is 54.</h2><p>Your answer was different from the answer by 19.</p><p>Not the worst. Can you do better on the next?</p>","response":null,"trial_type":"html-keyboard-response","trial_index":159,"time_elapsed":802564,"internal_node_id":"0.0-7.0-1.5","prolific_id":"6116a5715df1ce8da68a0ad1","session_id":"643c24fe680a9a5093512dc4","study_id":"64370a36d30bfa807bc7e43c"},{"rt":6208,"response":{"answer":"3142"},"task":"response","correct_response":"13171","trial_type":"survey-text","trial_index":160,"time_elapsed":808775,"internal_node_id":"0.0-7.0-0.6","prolific_id":"6116a5715df1ce8da68a0ad1","session_id":"643c24fe680a9a5093512dc4","study_id":"64370a36d30bfa807bc7e43c","difference":76},{"rt":null,"stimulus":"<h2>The correct answer is 13171.</h2><p>Your answer was different from the answer by 10029.</p><p>Not even close... do better next time!</p>","response":null,"trial_type":"html-keyboard-response","trial_index":161,"time_elapsed":811284,"internal_node_id":"0.0-7.0-1.6","prolific_id":"6116a5715df1ce8da68a0ad1","session_id":"643c24fe680a9a5093512dc4","study_id":"64370a36d30bfa807bc7e43c"},{"rt":2871,"response":{"answer":"65"},"task":"response","correct_response":"65","trial_type":"survey-text","trial_index":162,"time_elapsed":814157,"internal_node_id":"0.0-7.0-0.7","prolific_id":"6116a5715df1ce8da68a0ad1","session_id":"643c24fe680a9a5093512dc4","study_id":"64370a36d30bfa807bc7e43c","difference":0},{"rt":null,"stimulus":"<h2>The correct answer is 65.</h2><p>Your answer was different from the answer by 0.</p><p>You got the right answer. Amazing work!</p>","response":null,"trial_type":"html-keyboard-response","trial_index":163,"time_elapsed":816667,"internal_node_id":"0.0-7.0-1.7","prolific_id":"6116a5715df1ce8da68a0ad1","session_id":"643c24fe680a9a5093512dc4","study_id":"64370a36d30bfa807bc7e43c"},{"rt":2137,"response":{"answer":"5"},"task":"response","correct_response":"5","trial_type":"survey-text","trial_index":164,"time_elapsed":818807,"internal_node_id":"0.0-7.0-0.8","prolific_id":"6116a5715df1ce8da68a0ad1","session_id":"643c24fe680a9a5093512dc4","study_id":"64370a36d30bfa807bc7e43c","difference":0},{"rt":null,"stimulus":"<h2>The correct answer is 5.</h2><p>Your answer was different from the answer by 0.</p><p>You got the right answer. Amazing work!</p>","response":null,"trial_type":"html-keyboard-response","trial_index":165,"time_elapsed":821312,"internal_node_id":"0.0-7.0-1.8","prolific_id":"6116a5715df1ce8da68a0ad1","session_id":"643c24fe680a9a5093512dc4","study_id":"64370a36d30bfa807bc7e43c"},{"rt":6826,"response":{"answer":"1901"},"task":"response","correct_response":"1901","trial_type":"survey-text","trial_index":166,"time_elapsed":828140,"internal_node_id":"0.0-7.0-0.9","prolific_id":"6116a5715df1ce8da68a0ad1","session_id":"643c24fe680a9a5093512dc4","study_id":"64370a36d30bfa807bc7e43c","difference":0},{"rt":null,"stimulus":"<h2>The correct answer is 1901.</h2><p>Your answer was different from the answer by 0.</p><p>You got the right answer. Amazing work!</p>","response":null,"trial_type":"html-keyboard-response","trial_index":167,"time_elapsed":830650,"internal_node_id":"0.0-7.0-1.9","prolific_id":"6116a5715df1ce8da68a0ad1","session_id":"643c24fe680a9a5093512dc4","study_id":"64370a36d30bfa807bc7e43c"}]