[{"success":true,"timeout":false,"failed_images":[],"failed_audio":[],"failed_video":[],"trial_type":"preload","trial_index":0,"time_elapsed":3308,"internal_node_id":"0.0-0.0","prolific_id":"612cf777563f5c8b66e7caef","session_id":"643c1a9516007a2adb672d16","study_id":"64370a36d30bfa807bc7e43c"},{"rt":17879,"stimulus":"\n\t\t\t\t\t<p>Welcome and thank you for participating in this study!</p>\n\t\t\t\t\t<p>In each trial, you will be given a trivia question and then be asked to:</p><br>\n\t\t\t\t\t<div class=\"list\">\n\t\t\t\t\t<p>1) Predict the answer</p>\n\t\t\t\t\t<p>2) Rate how much you already know about the topic</p>\n\t\t\t\t\t<p>3) Rate how much you want to know the answer</p>\n\t\t\t\t\t</div>\n\t\t\t\t\t<br>\n\t\t\t\t\t<p>Then, you will see a card that flips over to reveal the answer.</p>\n\t\t\t\t\t<br>\n\t\t\t\t\t<p>Let's try a practice round. Press <span style=\"color: red\"><strong>any key</strong></span> to move to the next slide</p>\n\t\t\t\t\t","response":" ","trial_type":"html-keyboard-response","trial_index":1,"time_elapsed":21192,"internal_node_id":"0.0-1.0","prolific_id":"612cf777563f5c8b66e7caef","session_id":"643c1a9516007a2adb672d16","study_id":"64370a36d30bfa807bc7e43c"},{"rt":10979,"response":{"practice prediction":"8"},"task":"practice","trial_type":"survey-text","trial_index":2,"time_elapsed":32248,"internal_node_id":"0.0-2.0-0.0","prolific_id":"612cf777563f5c8b66e7caef","session_id":"643c1a9516007a2adb672d16","study_id":"64370a36d30bfa807bc7e43c"},{"rt":18526,"response":{"practice":4},"accuracy":[],"trial_type":"survey","trial_index":3,"time_elapsed":50940,"internal_node_id":"0.0-2.0-1.0","prolific_id":"612cf777563f5c8b66e7caef","session_id":"643c1a9516007a2adb672d16","study_id":"64370a36d30bfa807bc7e43c"},{"rt":null,"stimulus":"\n\t\t\t\t<div class=\"flip_card\">\n\t\t\t\t\t<div class=\"flip_card_inner\">\n\t\t\t\t\t\t<div class=\"flip_card_front\">\n\t\t\t\t\t\t\t<img src=img/practice.png>\n\t\t\t\t\t\t</div>\n\t\t\t\t\t\t<div class=\"flip_card_back\">\n\t\t\t\t\t\t\t<h2>\"How many legs does a lobster have?\"</h2>\n\t\t\t\t\t\t    <br>\n\t\t\t\t\t\t    <p>Answer: <strong>\"10\"</strong></p>\n\t\t\t\t\t    </div>\n\t\t\t\t    </div>\n\t\t\t    </div>\n\t\t\t\t","response":null,"trial_type":"html-keyboard-response","trial_index":4,"time_elapsed":55949,"internal_node_id":"0.0-2.0-2.0","prolific_id":"612cf777563f5c8b66e7caef","session_id":"643c1a9516007a2adb672d16","study_id":"64370a36d30bfa807bc7e43c"},{"rt":3297,"stimulus":"\n\t\t\t\t\t<div>\n\t\t\t\t\t<h2>The practice round is over</h2>\n\t\t\t\t\t<p>Press <span style=\"color: red\"><strong>any key</strong></span> to continue to the actual trials</p>\n\t\t\t\t\t<p>Good Luck!</p>\n\t\t\t\t\t</div>\n\t\t\t\t\t","response":" ","trial_type":"html-keyboard-response","trial_index":5,"time_elapsed":59249,"internal_node_id":"0.0-2.0-3.0","prolific_id":"612cf777563f5c8b66e7caef","session_id":"643c1a9516007a2adb672d16","study_id":"64370a36d30bfa807bc7e43c"},{"rt":32805,"response":{"prediction":"1945"},"trial_type":"survey-text","trial_index":6,"time_elapsed":92065,"internal_node_id":"0.0-3.0-0.0","prolific_id":"612cf777563f5c8b66e7caef","session_id":"643c1a9516007a2adb672d16","study_id":"64370a36d30bfa807bc7e43c"},{"rt":13735,"response":{"prior knowledge":0,"curiosity":3},"accuracy":[],"trial_type":"survey","trial_index":7,"time_elapsed":105873,"internal_node_id":"0.0-3.0-1.0","prolific_id":"612cf777563f5c8b66e7caef","session_id":"643c1a9516007a2adb672d16","study_id":"64370a36d30bfa807bc7e43c"},{"rt":null,"stimulus":"\n\t\t\t<div class=\"flip_card\">\n\t\t\t\t<div class=\"flip_card_inner\">\n\t\t\t\t\t<div class=\"flip_card_front\">\n\t\t\t\t\t\t<img src=img/14.png>\n\t\t\t\t\t</div>\n\t\t\t\t\t<div class=\"flip_card_back\">\n\t\t\t\t\t\t<h2>In what year did the first Modern Olympic Games take place?</h2>\n\t\t\t\t\t\t<br>\n\t\t\t\t\t\t<p>Answer: <strong>1896</strong></p>\n\t\t\t\t\t</div>\n\t\t\t\t</div>\n\t\t\t</div>\n\t\t\t","response":null,"trial_type":"html-keyboard-response","trial_index":8,"time_elapsed":110885,"internal_node_id":"0.0-3.0-2.0","prolific_id":"612cf777563f5c8b66e7caef","session_id":"643c1a9516007a2adb672d16","study_id":"64370a36d30bfa807bc7e43c"},{"rt":4086,"stimulus":"\n\t\t\t\t\t<div>\n\t\t\t\t\t<h2>Trial 1 is over</h2>\n\t\t\t\t\t<p>Press <span style=\"color: red\"><strong>any key</strong></span> to continue to the next trial</p>\n\t\t\t\t\t</div>\n\t\t\t\t","response":" ","trial_type":"html-keyboard-response","trial_index":9,"time_elapsed":114974,"internal_node_id":"0.0-3.0-3.0","prolific_id":"612cf777563f5c8b66e7caef","session_id":"643c1a9516007a2adb672d16","study_id":"64370a36d30bfa807bc7e43c"},{"rt":12762,"response":{"prediction":"1922"},"trial_type":"survey-text","trial_index":10,"time_elapsed":127743,"internal_node_id":"0.0-3.0-0.1","prolific_id":"612cf777563f5c8b66e7caef","session_id":"643c1a9516007a2adb672d16","study_id":"64370a36d30bfa807bc7e43c"},{"rt":10736,"response":{"prior knowledge":0,"curiosity":3},"accuracy":[],"trial_type":"survey","trial_index":11,"time_elapsed":138545,"internal_node_id":"0.0-3.0-1.1","prolific_id":"612cf777563f5c8b66e7caef","session_id":"643c1a9516007a2adb672d16","study_id":"64370a36d30bfa807bc7e43c"},{"rt":null,"stimulus":"\n\t\t\t<div class=\"flip_card\">\n\t\t\t\t<div class=\"flip_card_inner\">\n\t\t\t\t\t<div class=\"flip_card_front\">\n\t\t\t\t\t\t<img src=img/24.png>\n\t\t\t\t\t</div>\n\t\t\t\t\t<div class=\"flip_card_back\">\n\t\t\t\t\t\t<h2>In what year was the first Nobel Prize awarded?</h2>\n\t\t\t\t\t\t<br>\n\t\t\t\t\t\t<p>Answer: <strong>1901</strong></p>\n\t\t\t\t\t</div>\n\t\t\t\t</div>\n\t\t\t</div>\n\t\t\t","response":null,"trial_type":"html-keyboard-response","trial_index":12,"time_elapsed":143565,"internal_node_id":"0.0-3.0-2.1","prolific_id":"612cf777563f5c8b66e7caef","session_id":"643c1a9516007a2adb672d16","study_id":"64370a36d30bfa807bc7e43c"},{"rt":1841,"stimulus":"\n\t\t\t\t\t<div>\n\t\t\t\t\t<h2>Trial 2 is over</h2>\n\t\t\t\t\t<p>Press <span style=\"color: red\"><strong>any key</strong></span> to continue to the next trial</p>\n\t\t\t\t\t</div>\n\t\t\t\t","response":" ","trial_type":"html-keyboard-response","trial_index":13,"time_elapsed":145408,"internal_node_id":"0.0-3.0-3.1","prolific_id":"612cf777563f5c8b66e7caef","session_id":"643c1a9516007a2adb672d16","study_id":"64370a36d30bfa807bc7e43c"},{"rt":18105,"response":{"prediction":"20"},"trial_type":"survey-text","trial_index":14,"time_elapsed":163522,"internal_node_id":"0.0-3.0-0.2","prolific_id":"612cf777563f5c8b66e7caef","session_id":"643c1a9516007a2adb672d16","study_id":"64370a36d30bfa807bc7e43c"},{"rt":11357,"response":{"prior knowledge":1,"curiosity":3},"accuracy":[],"trial_type":"survey","trial_index":15,"time_elapsed":174946,"internal_node_id":"0.0-3.0-1.2","prolific_id":"612cf777563f5c8b66e7caef","session_id":"643c1a9516007a2adb672d16","study_id":"64370a36d30bfa807bc7e43c"},{"rt":null,"stimulus":"\n\t\t\t<div class=\"flip_card\">\n\t\t\t\t<div class=\"flip_card_inner\">\n\t\t\t\t\t<div class=\"flip_card_front\">\n\t\t\t\t\t\t<img src=img/6.png>\n\t\t\t\t\t</div>\n\t\t\t\t\t<div class=\"flip_card_back\">\n\t\t\t\t\t\t<h2>How many countries in Africa have French as the official language?</h2>\n\t\t\t\t\t\t<br>\n\t\t\t\t\t\t<p>Answer: <strong>21</strong></p>\n\t\t\t\t\t</div>\n\t\t\t\t</div>\n\t\t\t</div>\n\t\t\t","response":null,"trial_type":"html-keyboard-response","trial_index":16,"time_elapsed":179957,"internal_node_id":"0.0-3.0-2.2","prolific_id":"612cf777563f5c8b66e7caef","session_id":"643c1a9516007a2adb672d16","study_id":"64370a36d30bfa807bc7e43c"},{"rt":1390,"stimulus":"\n\t\t\t\t\t<div>\n\t\t\t\t\t<h2>Trial 3 is over</h2>\n\t\t\t\t\t<p>Press <span style=\"color: red\"><strong>any key</strong></span> to continue to the next trial</p>\n\t\t\t\t\t</div>\n\t\t\t\t","response":" ","trial_type":"html-keyboard-response","trial_index":17,"time_elapsed":181349,"internal_node_id":"0.0-3.0-3.2","prolific_id":"612cf777563f5c8b66e7caef","session_id":"643c1a9516007a2adb672d16","study_id":"64370a36d30bfa807bc7e43c"},{"rt":10374,"response":{"prediction":"4"},"trial_type":"survey-text","trial_index":18,"time_elapsed":191732,"internal_node_id":"0.0-3.0-0.3","prolific_id":"612cf777563f5c8b66e7caef","session_id":"643c1a9516007a2adb672d16","study_id":"64370a36d30bfa807bc7e43c"},{"rt":12475,"response":{"prior knowledge":1,"curiosity":3},"accuracy":[],"trial_type":"survey","trial_index":19,"time_elapsed":204273,"internal_node_id":"0.0-3.0-1.3","prolific_id":"612cf777563f5c8b66e7caef","session_id":"643c1a9516007a2adb672d16","study_id":"64370a36d30bfa807bc7e43c"},{"rt":null,"stimulus":"\n\t\t\t<div class=\"flip_card\">\n\t\t\t\t<div class=\"flip_card_inner\">\n\t\t\t\t\t<div class=\"flip_card_front\">\n\t\t\t\t\t\t<img src=img/11.png>\n\t\t\t\t\t</div>\n\t\t\t\t\t<div class=\"flip_card_back\">\n\t\t\t\t\t\t<h2>How many times a day do Muslims pray?</h2>\n\t\t\t\t\t\t<br>\n\t\t\t\t\t\t<p>Answer: <strong>5</strong></p>\n\t\t\t\t\t</div>\n\t\t\t\t</div>\n\t\t\t</div>\n\t\t\t","response":null,"trial_type":"html-keyboard-response","trial_index":20,"time_elapsed":209285,"internal_node_id":"0.0-3.0-2.3","prolific_id":"612cf777563f5c8b66e7caef","session_id":"643c1a9516007a2adb672d16","study_id":"64370a36d30bfa807bc7e43c"},{"rt":1122,"stimulus":"\n\t\t\t\t\t<div>\n\t\t\t\t\t<h2>Trial 4 is over</h2>\n\t\t\t\t\t<p>Press <span style=\"color: red\"><strong>any key</strong></span> to continue to the next trial</p>\n\t\t\t\t\t</div>\n\t\t\t\t","response":" ","trial_type":"html-keyboard-response","trial_index":21,"time_elapsed":210409,"internal_node_id":"0.0-3.0-3.3","prolific_id":"612cf777563f5c8b66e7caef","session_id":"643c1a9516007a2adb672d16","study_id":"64370a36d30bfa807bc7e43c"},{"rt":8783,"response":{"prediction":"13"},"trial_type":"survey-text","trial_index":22,"time_elapsed":219200,"internal_node_id":"0.0-3.0-0.4","prolific_id":"612cf777563f5c8b66e7caef","session_id":"643c1a9516007a2adb672d16","study_id":"64370a36d30bfa807bc7e43c"},{"rt":11047,"response":{"prior knowledge":1,"curiosity":3},"accuracy":[],"trial_type":"survey","trial_index":23,"time_elapsed":230333,"internal_node_id":"0.0-3.0-1.4","prolific_id":"612cf777563f5c8b66e7caef","session_id":"643c1a9516007a2adb672d16","study_id":"64370a36d30bfa807bc7e43c"},{"rt":null,"stimulus":"\n\t\t\t<div class=\"flip_card\">\n\t\t\t\t<div class=\"flip_card_inner\">\n\t\t\t\t\t<div class=\"flip_card_front\">\n\t\t\t\t\t\t<img src=img/27.png>\n\t\t\t\t\t</div>\n\t\t\t\t\t<div class=\"flip_card_back\">\n\t\t\t\t\t\t<h2>How many constellations are there?</h2>\n\t\t\t\t\t\t<br>\n\t\t\t\t\t\t<p>Answer: <strong>88</strong></p>\n\t\t\t\t\t</div>\n\t\t\t\t</div>\n\t\t\t</div>\n\t\t\t","response":null,"trial_type":"html-keyboard-response","trial_index":24,"time_elapsed":235341,"internal_node_id":"0.0-3.0-2.4","prolific_id":"612cf777563f5c8b66e7caef","session_id":"643c1a9516007a2adb672d16","study_id":"64370a36d30bfa807bc7e43c"},{"rt":800,"stimulus":"\n\t\t\t\t\t<div>\n\t\t\t\t\t<h2>Trial 5 is over</h2>\n\t\t\t\t\t<p>Press <span style=\"color: red\"><strong>any key</strong></span> to continue to the next trial</p>\n\t\t\t\t\t</div>\n\t\t\t\t","response":" ","trial_type":"html-keyboard-response","trial_index":25,"time_elapsed":236144,"internal_node_id":"0.0-3.0-3.4","prolific_id":"612cf777563f5c8b66e7caef","session_id":"643c1a9516007a2adb672d16","study_id":"64370a36d30bfa807bc7e43c"},{"rt":12390,"response":{"prediction":"120"},"trial_type":"survey-text","trial_index":26,"time_elapsed":248543,"internal_node_id":"0.0-3.0-0.5","prolific_id":"612cf777563f5c8b66e7caef","session_id":"643c1a9516007a2adb672d16","study_id":"64370a36d30bfa807bc7e43c"},{"rt":11197,"response":{"prior knowledge":0,"curiosity":3},"accuracy":[],"trial_type":"survey","trial_index":27,"time_elapsed":259802,"internal_node_id":"0.0-3.0-1.5","prolific_id":"612cf777563f5c8b66e7caef","session_id":"643c1a9516007a2adb672d16","study_id":"64370a36d30bfa807bc7e43c"},{"rt":null,"stimulus":"\n\t\t\t<div class=\"flip_card\">\n\t\t\t\t<div class=\"flip_card_inner\">\n\t\t\t\t\t<div class=\"flip_card_front\">\n\t\t\t\t\t\t<img src=img/22.png>\n\t\t\t\t\t</div>\n\t\t\t\t\t<div class=\"flip_card_back\">\n\t\t\t\t\t\t<h2>How many floors are in the Burj Khalifa, the tallest building in the world?</h2>\n\t\t\t\t\t\t<br>\n\t\t\t\t\t\t<p>Answer: <strong>163</strong></p>\n\t\t\t\t\t</div>\n\t\t\t\t</div>\n\t\t\t</div>\n\t\t\t","response":null,"trial_type":"html-keyboard-response","trial_index":28,"time_elapsed":264812,"internal_node_id":"0.0-3.0-2.5","prolific_id":"612cf777563f5c8b66e7caef","session_id":"643c1a9516007a2adb672d16","study_id":"64370a36d30bfa807bc7e43c"},{"rt":2398,"stimulus":"\n\t\t\t\t\t<div>\n\t\t\t\t\t<h2>Trial 6 is over</h2>\n\t\t\t\t\t<p>Press <span style=\"color: red\"><strong>any key</strong></span> to continue to the next trial</p>\n\t\t\t\t\t</div>\n\t\t\t\t","response":" ","trial_type":"html-keyboard-response","trial_index":29,"time_elapsed":267213,"internal_node_id":"0.0-3.0-3.5","prolific_id":"612cf777563f5c8b66e7caef","session_id":"643c1a9516007a2adb672d16","study_id":"64370a36d30bfa807bc7e43c"},{"rt":11160,"response":{"prediction":"100"},"trial_type":"survey-text","trial_index":30,"time_elapsed":278382,"internal_node_id":"0.0-3.0-0.6","prolific_id":"612cf777563f5c8b66e7caef","session_id":"643c1a9516007a2adb672d16","study_id":"64370a36d30bfa807bc7e43c"},{"rt":9117,"response":{"prior knowledge":1,"curiosity":3},"accuracy":[],"trial_type":"survey","trial_index":31,"time_elapsed":287552,"internal_node_id":"0.0-3.0-1.6","prolific_id":"612cf777563f5c8b66e7caef","session_id":"643c1a9516007a2adb672d16","study_id":"64370a36d30bfa807bc7e43c"},{"rt":null,"stimulus":"\n\t\t\t<div class=\"flip_card\">\n\t\t\t\t<div class=\"flip_card_inner\">\n\t\t\t\t\t<div class=\"flip_card_front\">\n\t\t\t\t\t\t<img src=img/10.png>\n\t\t\t\t\t</div>\n\t\t\t\t\t<div class=\"flip_card_back\">\n\t\t\t\t\t\t<h2>How long is the Great Wall of China (in miles)?</h2>\n\t\t\t\t\t\t<br>\n\t\t\t\t\t\t<p>Answer: <strong>13171</strong></p>\n\t\t\t\t\t</div>\n\t\t\t\t</div>\n\t\t\t</div>\n\t\t\t","response":null,"trial_type":"html-keyboard-response","trial_index":32,"time_elapsed":292565,"internal_node_id":"0.0-3.0-2.6","prolific_id":"612cf777563f5c8b66e7caef","session_id":"643c1a9516007a2adb672d16","study_id":"64370a36d30bfa807bc7e43c"},{"rt":2192,"stimulus":"\n\t\t\t\t\t<div>\n\t\t\t\t\t<h2>Trial 7 is over</h2>\n\t\t\t\t\t<p>Press <span style=\"color: red\"><strong>any key</strong></span> to continue to the next trial</p>\n\t\t\t\t\t</div>\n\t\t\t\t","response":" ","trial_type":"html-keyboard-response","trial_index":33,"time_elapsed":294759,"internal_node_id":"0.0-3.0-3.6","prolific_id":"612cf777563f5c8b66e7caef","session_id":"643c1a9516007a2adb672d16","study_id":"64370a36d30bfa807bc7e43c"},{"rt":16452,"response":{"prediction":"1922"},"trial_type":"survey-text","trial_index":34,"time_elapsed":311217,"internal_node_id":"0.0-3.0-0.7","prolific_id":"612cf777563f5c8b66e7caef","session_id":"643c1a9516007a2adb672d16","study_id":"64370a36d30bfa807bc7e43c"},{"rt":11619,"response":{"prior knowledge":2,"curiosity":3},"accuracy":[],"trial_type":"survey","trial_index":35,"time_elapsed":322892,"internal_node_id":"0.0-3.0-1.7","prolific_id":"612cf777563f5c8b66e7caef","session_id":"643c1a9516007a2adb672d16","study_id":"64370a36d30bfa807bc7e43c"},{"rt":null,"stimulus":"\n\t\t\t<div class=\"flip_card\">\n\t\t\t\t<div class=\"flip_card_inner\">\n\t\t\t\t\t<div class=\"flip_card_front\">\n\t\t\t\t\t\t<img src=img/17.png>\n\t\t\t\t\t</div>\n\t\t\t\t\t<div class=\"flip_card_back\">\n\t\t\t\t\t\t<h2>What year did the titanic sink?</h2>\n\t\t\t\t\t\t<br>\n\t\t\t\t\t\t<p>Answer: <strong>1912</strong></p>\n\t\t\t\t\t</div>\n\t\t\t\t</div>\n\t\t\t</div>\n\t\t\t","response":null,"trial_type":"html-keyboard-response","trial_index":36,"time_elapsed":327901,"internal_node_id":"0.0-3.0-2.7","prolific_id":"612cf777563f5c8b66e7caef","session_id":"643c1a9516007a2adb672d16","study_id":"64370a36d30bfa807bc7e43c"},{"rt":1303,"stimulus":"\n\t\t\t\t\t<div>\n\t\t\t\t\t<h2>Trial 8 is over</h2>\n\t\t\t\t\t<p>Press <span style=\"color: red\"><strong>any key</strong></span> to continue to the next trial</p>\n\t\t\t\t\t</div>\n\t\t\t\t","response":" ","trial_type":"html-keyboard-response","trial_index":37,"time_elapsed":329207,"internal_node_id":"0.0-3.0-3.7","prolific_id":"612cf777563f5c8b66e7caef","session_id":"643c1a9516007a2adb672d16","study_id":"64370a36d30bfa807bc7e43c"},{"rt":8926,"response":{"prediction":"45"},"trial_type":"survey-text","trial_index":38,"time_elapsed":338142,"internal_node_id":"0.0-3.0-0.8","prolific_id":"612cf777563f5c8b66e7caef","session_id":"643c1a9516007a2adb672d16","study_id":"64370a36d30bfa807bc7e43c"},{"rt":13413,"response":{"prior knowledge":3,"curiosity":4},"accuracy":[],"trial_type":"survey","trial_index":39,"time_elapsed":351617,"internal_node_id":"0.0-3.0-1.8","prolific_id":"612cf777563f5c8b66e7caef","session_id":"643c1a9516007a2adb672d16","study_id":"64370a36d30bfa807bc7e43c"},{"rt":null,"stimulus":"\n\t\t\t<div class=\"flip_card\">\n\t\t\t\t<div class=\"flip_card_inner\">\n\t\t\t\t\t<div class=\"flip_card_front\">\n\t\t\t\t\t\t<img src=img/13.png>\n\t\t\t\t\t</div>\n\t\t\t\t\t<div class=\"flip_card_back\">\n\t\t\t\t\t\t<h2>How many books has Stephen King published?</h2>\n\t\t\t\t\t\t<br>\n\t\t\t\t\t\t<p>Answer: <strong>65</strong></p>\n\t\t\t\t\t</div>\n\t\t\t\t</div>\n\t\t\t</div>\n\t\t\t","response":null,"trial_type":"html-keyboard-response","trial_index":40,"time_elapsed":356629,"internal_node_id":"0.0-3.0-2.8","prolific_id":"612cf777563f5c8b66e7caef","session_id":"643c1a9516007a2adb672d16","study_id":"64370a36d30bfa807bc7e43c"},{"rt":1303,"stimulus":"\n\t\t\t\t\t<div>\n\t\t\t\t\t<h2>Trial 9 is over</h2>\n\t\t\t\t\t<p>Press <span style=\"color: red\"><strong>any key</strong></span> to continue to the next trial</p>\n\t\t\t\t\t</div>\n\t\t\t\t","response":" ","trial_type":"html-keyboard-response","trial_index":41,"time_elapsed":357933,"internal_node_id":"0.0-3.0-3.8","prolific_id":"612cf777563f5c8b66e7caef","session_id":"643c1a9516007a2adb672d16","study_id":"64370a36d30bfa807bc7e43c"},{"rt":9479,"response":{"prediction":"1"},"trial_type":"survey-text","trial_index":42,"time_elapsed":367420,"internal_node_id":"0.0-3.0-0.9","prolific_id":"612cf777563f5c8b66e7caef","session_id":"643c1a9516007a2adb672d16","study_id":"64370a36d30bfa807bc7e43c"},{"rt":10939,"response":{"prior knowledge":0,"curiosity":3},"accuracy":[],"trial_type":"survey","trial_index":43,"time_elapsed":378414,"internal_node_id":"0.0-3.0-1.9","prolific_id":"612cf777563f5c8b66e7caef","session_id":"643c1a9516007a2adb672d16","study_id":"64370a36d30bfa807bc7e43c"},{"rt":null,"stimulus":"\n\t\t\t<div class=\"flip_card\">\n\t\t\t\t<div class=\"flip_card_inner\">\n\t\t\t\t\t<div class=\"flip_card_front\">\n\t\t\t\t\t\t<img src=img/8.png>\n\t\t\t\t\t</div>\n\t\t\t\t\t<div class=\"flip_card_back\">\n\t\t\t\t\t\t<h2>How many main islands make up Japan?</h2>\n\t\t\t\t\t\t<br>\n\t\t\t\t\t\t<p>Answer: <strong>4</strong></p>\n\t\t\t\t\t</div>\n\t\t\t\t</div>\n\t\t\t</div>\n\t\t\t","response":null,"trial_type":"html-keyboard-response","trial_index":44,"time_elapsed":383421,"internal_node_id":"0.0-3.0-2.9","prolific_id":"612cf777563f5c8b66e7caef","session_id":"643c1a9516007a2adb672d16","study_id":"64370a36d30bfa807bc7e43c"},{"rt":1374,"stimulus":"\n\t\t\t\t\t<div>\n\t\t\t\t\t<h2>Trial 10 is over</h2>\n\t\t\t\t\t<p>Press <span style=\"color: red\"><strong>any key</strong></span> to continue to the next trial</p>\n\t\t\t\t\t</div>\n\t\t\t\t","response":" ","trial_type":"html-keyboard-response","trial_index":45,"time_elapsed":384797,"internal_node_id":"0.0-3.0-3.9","prolific_id":"612cf777563f5c8b66e7caef","session_id":"643c1a9516007a2adb672d16","study_id":"64370a36d30bfa807bc7e43c"},{"rt":7001,"response":{"prediction":"283"},"trial_type":"survey-text","trial_index":46,"time_elapsed":391806,"internal_node_id":"0.0-3.0-0.10","prolific_id":"612cf777563f5c8b66e7caef","session_id":"643c1a9516007a2adb672d16","study_id":"64370a36d30bfa807bc7e43c"},{"rt":17053,"response":{"prior knowledge":2,"curiosity":4},"accuracy":[],"trial_type":"survey","trial_index":47,"time_elapsed":408912,"internal_node_id":"0.0-3.0-1.10","prolific_id":"612cf777563f5c8b66e7caef","session_id":"643c1a9516007a2adb672d16","study_id":"64370a36d30bfa807bc7e43c"},{"rt":null,"stimulus":"\n\t\t\t<div class=\"flip_card\">\n\t\t\t\t<div class=\"flip_card_inner\">\n\t\t\t\t\t<div class=\"flip_card_front\">\n\t\t\t\t\t\t<img src=img/16.png>\n\t\t\t\t\t</div>\n\t\t\t\t\t<div class=\"flip_card_back\">\n\t\t\t\t\t\t<h2>How many bones is a human baby born with?</h2>\n\t\t\t\t\t\t<br>\n\t\t\t\t\t\t<p>Answer: <strong>300</strong></p>\n\t\t\t\t\t</div>\n\t\t\t\t</div>\n\t\t\t</div>\n\t\t\t","response":null,"trial_type":"html-keyboard-response","trial_index":48,"time_elapsed":413925,"internal_node_id":"0.0-3.0-2.10","prolific_id":"612cf777563f5c8b66e7caef","session_id":"643c1a9516007a2adb672d16","study_id":"64370a36d30bfa807bc7e43c"},{"rt":1668,"stimulus":"\n\t\t\t\t\t<div>\n\t\t\t\t\t<h2>Trial 11 is over</h2>\n\t\t\t\t\t<p>Press <span style=\"color: red\"><strong>any key</strong></span> to continue to the next trial</p>\n\t\t\t\t\t</div>\n\t\t\t\t","response":" ","trial_type":"html-keyboard-response","trial_index":49,"time_elapsed":415595,"internal_node_id":"0.0-3.0-3.10","prolific_id":"612cf777563f5c8b66e7caef","session_id":"643c1a9516007a2adb672d16","study_id":"64370a36d30bfa807bc7e43c"},{"rt":10064,"response":{"prediction":"13"},"trial_type":"survey-text","trial_index":50,"time_elapsed":425668,"internal_node_id":"0.0-3.0-0.11","prolific_id":"612cf777563f5c8b66e7caef","session_id":"643c1a9516007a2adb672d16","study_id":"64370a36d30bfa807bc7e43c"},{"rt":10884,"response":{"prior knowledge":2,"curiosity":4},"accuracy":[],"trial_type":"survey","trial_index":51,"time_elapsed":436616,"internal_node_id":"0.0-3.0-1.11","prolific_id":"612cf777563f5c8b66e7caef","session_id":"643c1a9516007a2adb672d16","study_id":"64370a36d30bfa807bc7e43c"},{"rt":null,"stimulus":"\n\t\t\t<div class=\"flip_card\">\n\t\t\t\t<div class=\"flip_card_inner\">\n\t\t\t\t\t<div class=\"flip_card_front\">\n\t\t\t\t\t\t<img src=img/15.png>\n\t\t\t\t\t</div>\n\t\t\t\t\t<div class=\"flip_card_back\">\n\t\t\t\t\t\t<h2>How many different animals (real or imaginary) are represented in the Chinese calendar?</h2>\n\t\t\t\t\t\t<br>\n\t\t\t\t\t\t<p>Answer: <strong>12</strong></p>\n\t\t\t\t\t</div>\n\t\t\t\t</div>\n\t\t\t</div>\n\t\t\t","response":null,"trial_type":"html-keyboard-response","trial_index":52,"time_elapsed":441629,"internal_node_id":"0.0-3.0-2.11","prolific_id":"612cf777563f5c8b66e7caef","session_id":"643c1a9516007a2adb672d16","study_id":"64370a36d30bfa807bc7e43c"},{"rt":1422,"stimulus":"\n\t\t\t\t\t<div>\n\t\t\t\t\t<h2>Trial 12 is over</h2>\n\t\t\t\t\t<p>Press <span style=\"color: red\"><strong>any key</strong></span> to continue to the next trial</p>\n\t\t\t\t\t</div>\n\t\t\t\t","response":" ","trial_type":"html-keyboard-response","trial_index":53,"time_elapsed":443053,"internal_node_id":"0.0-3.0-3.11","prolific_id":"612cf777563f5c8b66e7caef","session_id":"643c1a9516007a2adb672d16","study_id":"64370a36d30bfa807bc7e43c"},{"rt":12220,"response":{"prediction":"6"},"trial_type":"survey-text","trial_index":54,"time_elapsed":455282,"internal_node_id":"0.0-3.0-0.12","prolific_id":"612cf777563f5c8b66e7caef","session_id":"643c1a9516007a2adb672d16","study_id":"64370a36d30bfa807bc7e43c"},{"rt":8181,"response":{"prior knowledge":0,"curiosity":4},"accuracy":[],"trial_type":"survey","trial_index":55,"time_elapsed":463529,"internal_node_id":"0.0-3.0-1.12","prolific_id":"612cf777563f5c8b66e7caef","session_id":"643c1a9516007a2adb672d16","study_id":"64370a36d30bfa807bc7e43c"},{"rt":null,"stimulus":"\n\t\t\t<div class=\"flip_card\">\n\t\t\t\t<div class=\"flip_card_inner\">\n\t\t\t\t\t<div class=\"flip_card_front\">\n\t\t\t\t\t\t<img src=img/12.png>\n\t\t\t\t\t</div>\n\t\t\t\t\t<div class=\"flip_card_back\">\n\t\t\t\t\t\t<h2>How many soccer players should each team have on the field at the start of each match?</h2>\n\t\t\t\t\t\t<br>\n\t\t\t\t\t\t<p>Answer: <strong>11</strong></p>\n\t\t\t\t\t</div>\n\t\t\t\t</div>\n\t\t\t</div>\n\t\t\t","response":null,"trial_type":"html-keyboard-response","trial_index":56,"time_elapsed":468541,"internal_node_id":"0.0-3.0-2.12","prolific_id":"612cf777563f5c8b66e7caef","session_id":"643c1a9516007a2adb672d16","study_id":"64370a36d30bfa807bc7e43c"},{"rt":1449,"stimulus":"\n\t\t\t\t\t<div>\n\t\t\t\t\t<h2>Trial 13 is over</h2>\n\t\t\t\t\t<p>Press <span style=\"color: red\"><strong>any key</strong></span> to continue to the next trial</p>\n\t\t\t\t\t</div>\n\t\t\t\t","response":" ","trial_type":"html-keyboard-response","trial_index":57,"time_elapsed":469992,"internal_node_id":"0.0-3.0-3.12","prolific_id":"612cf777563f5c8b66e7caef","session_id":"643c1a9516007a2adb672d16","study_id":"64370a36d30bfa807bc7e43c"},{"rt":7646,"response":{"prediction":"2"},"trial_type":"survey-text","trial_index":58,"time_elapsed":477647,"internal_node_id":"0.0-3.0-0.13","prolific_id":"612cf777563f5c8b66e7caef","session_id":"643c1a9516007a2adb672d16","study_id":"64370a36d30bfa807bc7e43c"},{"rt":6151,"response":{"prior knowledge":1,"curiosity":4},"accuracy":[],"trial_type":"survey","trial_index":59,"time_elapsed":483851,"internal_node_id":"0.0-3.0-1.13","prolific_id":"612cf777563f5c8b66e7caef","session_id":"643c1a9516007a2adb672d16","study_id":"64370a36d30bfa807bc7e43c"},{"rt":null,"stimulus":"\n\t\t\t<div class=\"flip_card\">\n\t\t\t\t<div class=\"flip_card_inner\">\n\t\t\t\t\t<div class=\"flip_card_front\">\n\t\t\t\t\t\t<img src=img/21.png>\n\t\t\t\t\t</div>\n\t\t\t\t\t<div class=\"flip_card_back\">\n\t\t\t\t\t\t<h2>How many moons does Neptune have?</h2>\n\t\t\t\t\t\t<br>\n\t\t\t\t\t\t<p>Answer: <strong>14</strong></p>\n\t\t\t\t\t</div>\n\t\t\t\t</div>\n\t\t\t</div>\n\t\t\t","response":null,"trial_type":"html-keyboard-response","trial_index":60,"time_elapsed":488861,"internal_node_id":"0.0-3.0-2.13","prolific_id":"612cf777563f5c8b66e7caef","session_id":"643c1a9516007a2adb672d16","study_id":"64370a36d30bfa807bc7e43c"},{"rt":1279,"stimulus":"\n\t\t\t\t\t<div>\n\t\t\t\t\t<h2>Trial 14 is over</h2>\n\t\t\t\t\t<p>Press <span style=\"color: red\"><strong>any key</strong></span> to continue to the next trial</p>\n\t\t\t\t\t</div>\n\t\t\t\t","response":" ","trial_type":"html-keyboard-response","trial_index":61,"time_elapsed":490141,"internal_node_id":"0.0-3.0-3.13","prolific_id":"612cf777563f5c8b66e7caef","session_id":"643c1a9516007a2adb672d16","study_id":"64370a36d30bfa807bc7e43c"},{"rt":9757,"response":{"prediction":"300"},"trial_type":"survey-text","trial_index":62,"time_elapsed":499906,"internal_node_id":"0.0-3.0-0.14","prolific_id":"612cf777563f5c8b66e7caef","session_id":"643c1a9516007a2adb672d16","study_id":"64370a36d30bfa807bc7e43c"},{"rt":9342,"response":{"prior knowledge":0,"curiosity":4},"accuracy":[],"trial_type":"survey","trial_index":63,"time_elapsed":509301,"internal_node_id":"0.0-3.0-1.14","prolific_id":"612cf777563f5c8b66e7caef","session_id":"643c1a9516007a2adb672d16","study_id":"64370a36d30bfa807bc7e43c"},{"rt":null,"stimulus":"\n\t\t\t<div class=\"flip_card\">\n\t\t\t\t<div class=\"flip_card_inner\">\n\t\t\t\t\t<div class=\"flip_card_front\">\n\t\t\t\t\t\t<img src=img/26.png>\n\t\t\t\t\t</div>\n\t\t\t\t\t<div class=\"flip_card_back\">\n\t\t\t\t\t\t<h2>How many people are vegan globally (in millions)?</h2>\n\t\t\t\t\t\t<br>\n\t\t\t\t\t\t<p>Answer: <strong>79</strong></p>\n\t\t\t\t\t</div>\n\t\t\t\t</div>\n\t\t\t</div>\n\t\t\t","response":null,"trial_type":"html-keyboard-response","trial_index":64,"time_elapsed":514309,"internal_node_id":"0.0-3.0-2.14","prolific_id":"612cf777563f5c8b66e7caef","session_id":"643c1a9516007a2adb672d16","study_id":"64370a36d30bfa807bc7e43c"},{"rt":1639,"stimulus":"\n\t\t\t\t\t<div>\n\t\t\t\t\t<h2>Trial 15 is over</h2>\n\t\t\t\t\t<p>Press <span style=\"color: red\"><strong>any key</strong></span> to continue to the next trial</p>\n\t\t\t\t\t</div>\n\t\t\t\t","response":" ","trial_type":"html-keyboard-response","trial_index":65,"time_elapsed":515950,"internal_node_id":"0.0-3.0-3.14","prolific_id":"612cf777563f5c8b66e7caef","session_id":"643c1a9516007a2adb672d16","study_id":"64370a36d30bfa807bc7e43c"},{"rt":13271,"response":{"prediction":"1870"},"trial_type":"survey-text","trial_index":66,"time_elapsed":529229,"internal_node_id":"0.0-3.0-0.15","prolific_id":"612cf777563f5c8b66e7caef","session_id":"643c1a9516007a2adb672d16","study_id":"64370a36d30bfa807bc7e43c"},{"rt":5724,"response":{"prior knowledge":0,"curiosity":4},"accuracy":[],"trial_type":"survey","trial_index":67,"time_elapsed":535006,"internal_node_id":"0.0-3.0-1.15","prolific_id":"612cf777563f5c8b66e7caef","session_id":"643c1a9516007a2adb672d16","study_id":"64370a36d30bfa807bc7e43c"},{"rt":null,"stimulus":"\n\t\t\t<div class=\"flip_card\">\n\t\t\t\t<div class=\"flip_card_inner\">\n\t\t\t\t\t<div class=\"flip_card_front\">\n\t\t\t\t\t\t<img src=img/3.png>\n\t\t\t\t\t</div>\n\t\t\t\t\t<div class=\"flip_card_back\">\n\t\t\t\t\t\t<h2>In what year was the Mexican artist Frida Kahlo born?</h2>\n\t\t\t\t\t\t<br>\n\t\t\t\t\t\t<p>Answer: <strong>1907</strong></p>\n\t\t\t\t\t</div>\n\t\t\t\t</div>\n\t\t\t</div>\n\t\t\t","response":null,"trial_type":"html-keyboard-response","trial_index":68,"time_elapsed":540013,"internal_node_id":"0.0-3.0-2.15","prolific_id":"612cf777563f5c8b66e7caef","session_id":"643c1a9516007a2adb672d16","study_id":"64370a36d30bfa807bc7e43c"},{"rt":1368,"stimulus":"\n\t\t\t\t\t<div>\n\t\t\t\t\t<h2>Trial 16 is over</h2>\n\t\t\t\t\t<p>Press <span style=\"color: red\"><strong>any key</strong></span> to continue to the next trial</p>\n\t\t\t\t\t</div>\n\t\t\t\t","response":" ","trial_type":"html-keyboard-response","trial_index":69,"time_elapsed":541382,"internal_node_id":"0.0-3.0-3.15","prolific_id":"612cf777563f5c8b66e7caef","session_id":"643c1a9516007a2adb672d16","study_id":"64370a36d30bfa807bc7e43c"},{"rt":9478,"response":{"prediction":"5"},"trial_type":"survey-text","trial_index":70,"time_elapsed":550868,"internal_node_id":"0.0-3.0-0.16","prolific_id":"612cf777563f5c8b66e7caef","session_id":"643c1a9516007a2adb672d16","study_id":"64370a36d30bfa807bc7e43c"},{"rt":9139,"response":{"prior knowledge":0,"curiosity":4},"accuracy":[],"trial_type":"survey","trial_index":71,"time_elapsed":560060,"internal_node_id":"0.0-3.0-1.16","prolific_id":"612cf777563f5c8b66e7caef","session_id":"643c1a9516007a2adb672d16","study_id":"64370a36d30bfa807bc7e43c"},{"rt":null,"stimulus":"\n\t\t\t<div class=\"flip_card\">\n\t\t\t\t<div class=\"flip_card_inner\">\n\t\t\t\t\t<div class=\"flip_card_front\">\n\t\t\t\t\t\t<img src=img/19.png>\n\t\t\t\t\t</div>\n\t\t\t\t\t<div class=\"flip_card_back\">\n\t\t\t\t\t\t<h2>How many native species of kangaroos are found in Australia?</h2>\n\t\t\t\t\t\t<br>\n\t\t\t\t\t\t<p>Answer: <strong>4</strong></p>\n\t\t\t\t\t</div>\n\t\t\t\t</div>\n\t\t\t</div>\n\t\t\t","response":null,"trial_type":"html-keyboard-response","trial_index":72,"time_elapsed":565069,"internal_node_id":"0.0-3.0-2.16","prolific_id":"612cf777563f5c8b66e7caef","session_id":"643c1a9516007a2adb672d16","study_id":"64370a36d30bfa807bc7e43c"},{"rt":1529,"stimulus":"\n\t\t\t\t\t<div>\n\t\t\t\t\t<h2>Trial 17 is over</h2>\n\t\t\t\t\t<p>Press <span style=\"color: red\"><strong>any key</strong></span> to continue to the next trial</p>\n\t\t\t\t\t</div>\n\t\t\t\t","response":" ","trial_type":"html-keyboard-response","trial_index":73,"time_elapsed":566600,"internal_node_id":"0.0-3.0-3.16","prolific_id":"612cf777563f5c8b66e7caef","session_id":"643c1a9516007a2adb672d16","study_id":"64370a36d30bfa807bc7e43c"},{"rt":31903,"response":{"prediction":"45"},"trial_type":"survey-text","trial_index":74,"time_elapsed":598511,"internal_node_id":"0.0-3.0-0.17","prolific_id":"612cf777563f5c8b66e7caef","session_id":"643c1a9516007a2adb672d16","study_id":"64370a36d30bfa807bc7e43c"},{"rt":9800,"response":{"prior knowledge":1,"curiosity":4},"accuracy":[],"trial_type":"survey","trial_index":75,"time_elapsed":608377,"internal_node_id":"0.0-3.0-1.17","prolific_id":"612cf777563f5c8b66e7caef","session_id":"643c1a9516007a2adb672d16","study_id":"64370a36d30bfa807bc7e43c"},{"rt":null,"stimulus":"\n\t\t\t<div class=\"flip_card\">\n\t\t\t\t<div class=\"flip_card_inner\">\n\t\t\t\t\t<div class=\"flip_card_front\">\n\t\t\t\t\t\t<img src=img/5.png>\n\t\t\t\t\t</div>\n\t\t\t\t\t<div class=\"flip_card_back\">\n\t\t\t\t\t\t<h2>How many countries are in Africa?</h2>\n\t\t\t\t\t\t<br>\n\t\t\t\t\t\t<p>Answer: <strong>54</strong></p>\n\t\t\t\t\t</div>\n\t\t\t\t</div>\n\t\t\t</div>\n\t\t\t","response":null,"trial_type":"html-keyboard-response","trial_index":76,"time_elapsed":613388,"internal_node_id":"0.0-3.0-2.17","prolific_id":"612cf777563f5c8b66e7caef","session_id":"643c1a9516007a2adb672d16","study_id":"64370a36d30bfa807bc7e43c"},{"rt":1394,"stimulus":"\n\t\t\t\t\t<div>\n\t\t\t\t\t<h2>Trial 18 is over</h2>\n\t\t\t\t\t<p>Press <span style=\"color: red\"><strong>any key</strong></span> to continue to the next trial</p>\n\t\t\t\t\t</div>\n\t\t\t\t","response":" ","trial_type":"html-keyboard-response","trial_index":77,"time_elapsed":614784,"internal_node_id":"0.0-3.0-3.17","prolific_id":"612cf777563f5c8b66e7caef","session_id":"643c1a9516007a2adb672d16","study_id":"64370a36d30bfa807bc7e43c"},{"rt":7297,"response":{"prediction":"13"},"trial_type":"survey-text","trial_index":78,"time_elapsed":622090,"internal_node_id":"0.0-3.0-0.18","prolific_id":"612cf777563f5c8b66e7caef","session_id":"643c1a9516007a2adb672d16","study_id":"64370a36d30bfa807bc7e43c"},{"rt":9974,"response":{"prior knowledge":1,"curiosity":4},"accuracy":[],"trial_type":"survey","trial_index":79,"time_elapsed":632117,"internal_node_id":"0.0-3.0-1.18","prolific_id":"612cf777563f5c8b66e7caef","session_id":"643c1a9516007a2adb672d16","study_id":"64370a36d30bfa807bc7e43c"},{"rt":null,"stimulus":"\n\t\t\t<div class=\"flip_card\">\n\t\t\t\t<div class=\"flip_card_inner\">\n\t\t\t\t\t<div class=\"flip_card_front\">\n\t\t\t\t\t\t<img src=img/18.png>\n\t\t\t\t\t</div>\n\t\t\t\t\t<div class=\"flip_card_back\">\n\t\t\t\t\t\t<h2>A bar mitzvah is traditionally celebrated when Jewish males turn what age?</h2>\n\t\t\t\t\t\t<br>\n\t\t\t\t\t\t<p>Answer: <strong>13</strong></p>\n\t\t\t\t\t</div>\n\t\t\t\t</div>\n\t\t\t</div>\n\t\t\t","response":null,"trial_type":"html-keyboard-response","trial_index":80,"time_elapsed":637124,"internal_node_id":"0.0-3.0-2.18","prolific_id":"612cf777563f5c8b66e7caef","session_id":"643c1a9516007a2adb672d16","study_id":"64370a36d30bfa807bc7e43c"},{"rt":1487,"stimulus":"\n\t\t\t\t\t<div>\n\t\t\t\t\t<h2>Trial 19 is over</h2>\n\t\t\t\t\t<p>Press <span style=\"color: red\"><strong>any key</strong></span> to continue to the next trial</p>\n\t\t\t\t\t</div>\n\t\t\t\t","response":" ","trial_type":"html-keyboard-response","trial_index":81,"time_elapsed":638613,"internal_node_id":"0.0-3.0-3.18","prolific_id":"612cf777563f5c8b66e7caef","session_id":"643c1a9516007a2adb672d16","study_id":"64370a36d30bfa807bc7e43c"},{"rt":25198,"response":{"prediction":"0"},"trial_type":"survey-text","trial_index":82,"time_elapsed":663818,"internal_node_id":"0.0-3.0-0.19","prolific_id":"612cf777563f5c8b66e7caef","session_id":"643c1a9516007a2adb672d16","study_id":"64370a36d30bfa807bc7e43c"},{"rt":5636,"response":{"prior knowledge":0,"curiosity":4},"accuracy":[],"trial_type":"survey","trial_index":83,"time_elapsed":669506,"internal_node_id":"0.0-3.0-1.19","prolific_id":"612cf777563f5c8b66e7caef","session_id":"643c1a9516007a2adb672d16","study_id":"64370a36d30bfa807bc7e43c"},{"rt":null,"stimulus":"\n\t\t\t<div class=\"flip_card\">\n\t\t\t\t<div class=\"flip_card_inner\">\n\t\t\t\t\t<div class=\"flip_card_front\">\n\t\t\t\t\t\t<img src=img/23.png>\n\t\t\t\t\t</div>\n\t\t\t\t\t<div class=\"flip_card_back\">\n\t\t\t\t\t\t<h2>How many countries have territory in the Arctic Circle?</h2>\n\t\t\t\t\t\t<br>\n\t\t\t\t\t\t<p>Answer: <strong>8</strong></p>\n\t\t\t\t\t</div>\n\t\t\t\t</div>\n\t\t\t</div>\n\t\t\t","response":null,"trial_type":"html-keyboard-response","trial_index":84,"time_elapsed":674517,"internal_node_id":"0.0-3.0-2.19","prolific_id":"612cf777563f5c8b66e7caef","session_id":"643c1a9516007a2adb672d16","study_id":"64370a36d30bfa807bc7e43c"},{"rt":2995,"stimulus":"\n\t\t\t\t\t<div>\n\t\t\t\t\t<h2>Trial 20 is over</h2>\n\t\t\t\t\t<p>Press <span style=\"color: red\"><strong>any key</strong></span> to continue to the next trial</p>\n\t\t\t\t\t</div>\n\t\t\t\t","response":" ","trial_type":"html-keyboard-response","trial_index":85,"time_elapsed":677513,"internal_node_id":"0.0-3.0-3.19","prolific_id":"612cf777563f5c8b66e7caef","session_id":"643c1a9516007a2adb672d16","study_id":"64370a36d30bfa807bc7e43c"},{"rt":21578,"response":{"prediction":"185000"},"trial_type":"survey-text","trial_index":86,"time_elapsed":699100,"internal_node_id":"0.0-3.0-0.20","prolific_id":"612cf777563f5c8b66e7caef","session_id":"643c1a9516007a2adb672d16","study_id":"64370a36d30bfa807bc7e43c"},{"rt":5495,"response":{"prior knowledge":0,"curiosity":4},"accuracy":[],"trial_type":"survey","trial_index":87,"time_elapsed":704652,"internal_node_id":"0.0-3.0-1.20","prolific_id":"612cf777563f5c8b66e7caef","session_id":"643c1a9516007a2adb672d16","study_id":"64370a36d30bfa807bc7e43c"},{"rt":null,"stimulus":"\n\t\t\t<div class=\"flip_card\">\n\t\t\t\t<div class=\"flip_card_inner\">\n\t\t\t\t\t<div class=\"flip_card_front\">\n\t\t\t\t\t\t<img src=img/1.png>\n\t\t\t\t\t</div>\n\t\t\t\t\t<div class=\"flip_card_back\">\n\t\t\t\t\t\t<h2>What is the diameter of Earth in miles?</h2>\n\t\t\t\t\t\t<br>\n\t\t\t\t\t\t<p>Answer: <strong>7917.5</strong></p>\n\t\t\t\t\t</div>\n\t\t\t\t</div>\n\t\t\t</div>\n\t\t\t","response":null,"trial_type":"html-keyboard-response","trial_index":88,"time_elapsed":709661,"internal_node_id":"0.0-3.0-2.20","prolific_id":"612cf777563f5c8b66e7caef","session_id":"643c1a9516007a2adb672d16","study_id":"64370a36d30bfa807bc7e43c"},{"rt":1587,"stimulus":"\n\t\t\t\t\t<div>\n\t\t\t\t\t<h2>Trial 21 is over</h2>\n\t\t\t\t\t<p>Press <span style=\"color: red\"><strong>any key</strong></span> to continue to the next trial</p>\n\t\t\t\t\t</div>\n\t\t\t\t","response":" ","trial_type":"html-keyboard-response","trial_index":89,"time_elapsed":711250,"internal_node_id":"0.0-3.0-3.20","prolific_id":"612cf777563f5c8b66e7caef","session_id":"643c1a9516007a2adb672d16","study_id":"64370a36d30bfa807bc7e43c"},{"rt":15208,"response":{"prediction":"1989"},"trial_type":"survey-text","trial_index":90,"time_elapsed":726466,"internal_node_id":"0.0-3.0-0.21","prolific_id":"612cf777563f5c8b66e7caef","session_id":"643c1a9516007a2adb672d16","study_id":"64370a36d30bfa807bc7e43c"},{"rt":7612,"response":{"prior knowledge":2,"curiosity":4},"accuracy":[],"trial_type":"survey","trial_index":91,"time_elapsed":734142,"internal_node_id":"0.0-3.0-1.21","prolific_id":"612cf777563f5c8b66e7caef","session_id":"643c1a9516007a2adb672d16","study_id":"64370a36d30bfa807bc7e43c"},{"rt":null,"stimulus":"\n\t\t\t<div class=\"flip_card\">\n\t\t\t\t<div class=\"flip_card_inner\">\n\t\t\t\t\t<div class=\"flip_card_front\">\n\t\t\t\t\t\t<img src=img/2.png>\n\t\t\t\t\t</div>\n\t\t\t\t\t<div class=\"flip_card_back\">\n\t\t\t\t\t\t<h2>What year did the Berlin Wall fall?</h2>\n\t\t\t\t\t\t<br>\n\t\t\t\t\t\t<p>Answer: <strong>1989</strong></p>\n\t\t\t\t\t</div>\n\t\t\t\t</div>\n\t\t\t</div>\n\t\t\t","response":null,"trial_type":"html-keyboard-response","trial_index":92,"time_elapsed":739149,"internal_node_id":"0.0-3.0-2.21","prolific_id":"612cf777563f5c8b66e7caef","session_id":"643c1a9516007a2adb672d16","study_id":"64370a36d30bfa807bc7e43c"},{"rt":1368,"stimulus":"\n\t\t\t\t\t<div>\n\t\t\t\t\t<h2>Trial 22 is over</h2>\n\t\t\t\t\t<p>Press <span style=\"color: red\"><strong>any key</strong></span> to continue to the next trial</p>\n\t\t\t\t\t</div>\n\t\t\t\t","response":" ","trial_type":"html-keyboard-response","trial_index":93,"time_elapsed":740518,"internal_node_id":"0.0-3.0-3.21","prolific_id":"612cf777563f5c8b66e7caef","session_id":"643c1a9516007a2adb672d16","study_id":"64370a36d30bfa807bc7e43c"},{"rt":12792,"response":{"prediction":"25"},"trial_type":"survey-text","trial_index":94,"time_elapsed":753317,"internal_node_id":"0.0-3.0-0.22","prolific_id":"612cf777563f5c8b66e7caef","session_id":"643c1a9516007a2adb672d16","study_id":"64370a36d30bfa807bc7e43c"},{"rt":9026,"response":{"prior knowledge":0,"curiosity":4},"accuracy":[],"trial_type":"survey","trial_index":95,"time_elapsed":762398,"internal_node_id":"0.0-3.0-1.22","prolific_id":"612cf777563f5c8b66e7caef","session_id":"643c1a9516007a2adb672d16","study_id":"64370a36d30bfa807bc7e43c"},{"rt":null,"stimulus":"\n\t\t\t<div class=\"flip_card\">\n\t\t\t\t<div class=\"flip_card_inner\">\n\t\t\t\t\t<div class=\"flip_card_front\">\n\t\t\t\t\t\t<img src=img/9.png>\n\t\t\t\t\t</div>\n\t\t\t\t\t<div class=\"flip_card_back\">\n\t\t\t\t\t\t<h2>How many single hand gestures, or mudras, are used in Indian classical dance?</h2>\n\t\t\t\t\t\t<br>\n\t\t\t\t\t\t<p>Answer: <strong>28</strong></p>\n\t\t\t\t\t</div>\n\t\t\t\t</div>\n\t\t\t</div>\n\t\t\t","response":null,"trial_type":"html-keyboard-response","trial_index":96,"time_elapsed":767405,"internal_node_id":"0.0-3.0-2.22","prolific_id":"612cf777563f5c8b66e7caef","session_id":"643c1a9516007a2adb672d16","study_id":"64370a36d30bfa807bc7e43c"},{"rt":1304,"stimulus":"\n\t\t\t\t\t<div>\n\t\t\t\t\t<h2>Trial 23 is over</h2>\n\t\t\t\t\t<p>Press <span style=\"color: red\"><strong>any key</strong></span> to continue to the next trial</p>\n\t\t\t\t\t</div>\n\t\t\t\t","response":" ","trial_type":"html-keyboard-response","trial_index":97,"time_elapsed":768711,"internal_node_id":"0.0-3.0-3.22","prolific_id":"612cf777563f5c8b66e7caef","session_id":"643c1a9516007a2adb672d16","study_id":"64370a36d30bfa807bc7e43c"},{"rt":7861,"response":{"prediction":"5"},"trial_type":"survey-text","trial_index":98,"time_elapsed":776580,"internal_node_id":"0.0-3.0-0.23","prolific_id":"612cf777563f5c8b66e7caef","session_id":"643c1a9516007a2adb672d16","study_id":"64370a36d30bfa807bc7e43c"},{"rt":6714,"response":{"prior knowledge":0,"curiosity":4},"accuracy":[],"trial_type":"survey","trial_index":99,"time_elapsed":783357,"internal_node_id":"0.0-3.0-1.23","prolific_id":"612cf777563f5c8b66e7caef","session_id":"643c1a9516007a2adb672d16","study_id":"64370a36d30bfa807bc7e43c"},{"rt":null,"stimulus":"\n\t\t\t<div class=\"flip_card\">\n\t\t\t\t<div class=\"flip_card_inner\">\n\t\t\t\t\t<div class=\"flip_card_front\">\n\t\t\t\t\t\t<img src=img/4.png>\n\t\t\t\t\t</div>\n\t\t\t\t\t<div class=\"flip_card_back\">\n\t\t\t\t\t\t<h2>How many lines are in a sonnet?</h2>\n\t\t\t\t\t\t<br>\n\t\t\t\t\t\t<p>Answer: <strong>14</strong></p>\n\t\t\t\t\t</div>\n\t\t\t\t</div>\n\t\t\t</div>\n\t\t\t","response":null,"trial_type":"html-keyboard-response","trial_index":100,"time_elapsed":788365,"internal_node_id":"0.0-3.0-2.23","prolific_id":"612cf777563f5c8b66e7caef","session_id":"643c1a9516007a2adb672d16","study_id":"64370a36d30bfa807bc7e43c"},{"rt":1137,"stimulus":"\n\t\t\t\t\t<div>\n\t\t\t\t\t<h2>Trial 24 is over</h2>\n\t\t\t\t\t<p>Press <span style=\"color: red\"><strong>any key</strong></span> to continue to the next trial</p>\n\t\t\t\t\t</div>\n\t\t\t\t","response":" ","trial_type":"html-keyboard-response","trial_index":101,"time_elapsed":789503,"internal_node_id":"0.0-3.0-3.23","prolific_id":"612cf777563f5c8b66e7caef","session_id":"643c1a9516007a2adb672d16","study_id":"64370a36d30bfa807bc7e43c"},{"rt":6029,"response":{"prediction":"13"},"trial_type":"survey-text","trial_index":102,"time_elapsed":795541,"internal_node_id":"0.0-3.0-0.24","prolific_id":"612cf777563f5c8b66e7caef","session_id":"643c1a9516007a2adb672d16","study_id":"64370a36d30bfa807bc7e43c"},{"rt":9605,"response":{"prior knowledge":4,"curiosity":4},"accuracy":[],"trial_type":"survey","trial_index":103,"time_elapsed":805202,"internal_node_id":"0.0-3.0-1.24","prolific_id":"612cf777563f5c8b66e7caef","session_id":"643c1a9516007a2adb672d16","study_id":"64370a36d30bfa807bc7e43c"},{"rt":null,"stimulus":"\n\t\t\t<div class=\"flip_card\">\n\t\t\t\t<div class=\"flip_card_inner\">\n\t\t\t\t\t<div class=\"flip_card_front\">\n\t\t\t\t\t\t<img src=img/29.png>\n\t\t\t\t\t</div>\n\t\t\t\t\t<div class=\"flip_card_back\">\n\t\t\t\t\t\t<h2>How much is in a Baker's Dozen?</h2>\n\t\t\t\t\t\t<br>\n\t\t\t\t\t\t<p>Answer: <strong>13</strong></p>\n\t\t\t\t\t</div>\n\t\t\t\t</div>\n\t\t\t</div>\n\t\t\t","response":null,"trial_type":"html-keyboard-response","trial_index":104,"time_elapsed":810213,"internal_node_id":"0.0-3.0-2.24","prolific_id":"612cf777563f5c8b66e7caef","session_id":"643c1a9516007a2adb672d16","study_id":"64370a36d30bfa807bc7e43c"},{"rt":1276,"stimulus":"\n\t\t\t\t\t<div>\n\t\t\t\t\t<h2>Trial 25 is over</h2>\n\t\t\t\t\t<p>Press <span style=\"color: red\"><strong>any key</strong></span> to continue to the next trial</p>\n\t\t\t\t\t</div>\n\t\t\t\t","response":" ","trial_type":"html-keyboard-response","trial_index":105,"time_elapsed":811491,"internal_node_id":"0.0-3.0-3.24","prolific_id":"612cf777563f5c8b66e7caef","session_id":"643c1a9516007a2adb672d16","study_id":"64370a36d30bfa807bc7e43c"},{"rt":11343,"response":{"prediction":"17"},"trial_type":"survey-text","trial_index":106,"time_elapsed":822843,"internal_node_id":"0.0-3.0-0.25","prolific_id":"612cf777563f5c8b66e7caef","session_id":"643c1a9516007a2adb672d16","study_id":"64370a36d30bfa807bc7e43c"},{"rt":7258,"response":{"prior knowledge":0,"curiosity":5},"accuracy":[],"trial_type":"survey","trial_index":107,"time_elapsed":830160,"internal_node_id":"0.0-3.0-1.25","prolific_id":"612cf777563f5c8b66e7caef","session_id":"643c1a9516007a2adb672d16","study_id":"64370a36d30bfa807bc7e43c"},{"rt":null,"stimulus":"\n\t\t\t<div class=\"flip_card\">\n\t\t\t\t<div class=\"flip_card_inner\">\n\t\t\t\t\t<div class=\"flip_card_front\">\n\t\t\t\t\t\t<img src=img/28.png>\n\t\t\t\t\t</div>\n\t\t\t\t\t<div class=\"flip_card_back\">\n\t\t\t\t\t\t<h2>How old was King Tut when he died?</h2>\n\t\t\t\t\t\t<br>\n\t\t\t\t\t\t<p>Answer: <strong>19</strong></p>\n\t\t\t\t\t</div>\n\t\t\t\t</div>\n\t\t\t</div>\n\t\t\t","response":null,"trial_type":"html-keyboard-response","trial_index":108,"time_elapsed":835173,"internal_node_id":"0.0-3.0-2.25","prolific_id":"612cf777563f5c8b66e7caef","session_id":"643c1a9516007a2adb672d16","study_id":"64370a36d30bfa807bc7e43c"},{"rt":1220,"stimulus":"\n\t\t\t\t\t<div>\n\t\t\t\t\t<h2>Trial 26 is over</h2>\n\t\t\t\t\t<p>Press <span style=\"color: red\"><strong>any key</strong></span> to continue to the next trial</p>\n\t\t\t\t\t</div>\n\t\t\t\t","response":" ","trial_type":"html-keyboard-response","trial_index":109,"time_elapsed":836394,"internal_node_id":"0.0-3.0-3.25","prolific_id":"612cf777563f5c8b66e7caef","session_id":"643c1a9516007a2adb672d16","study_id":"64370a36d30bfa807bc7e43c"},{"rt":8457,"response":{"prediction":"98"},"trial_type":"survey-text","trial_index":110,"time_elapsed":844859,"internal_node_id":"0.0-3.0-0.26","prolific_id":"612cf777563f5c8b66e7caef","session_id":"643c1a9516007a2adb672d16","study_id":"64370a36d30bfa807bc7e43c"},{"rt":7161,"response":{"prior knowledge":0,"curiosity":4},"accuracy":[],"trial_type":"survey","trial_index":111,"time_elapsed":852114,"internal_node_id":"0.0-3.0-1.26","prolific_id":"612cf777563f5c8b66e7caef","session_id":"643c1a9516007a2adb672d16","study_id":"64370a36d30bfa807bc7e43c"},{"rt":null,"stimulus":"\n\t\t\t<div class=\"flip_card\">\n\t\t\t\t<div class=\"flip_card_inner\">\n\t\t\t\t\t<div class=\"flip_card_front\">\n\t\t\t\t\t\t<img src=img/20.png>\n\t\t\t\t\t</div>\n\t\t\t\t\t<div class=\"flip_card_back\">\n\t\t\t\t\t\t<h2>How many double stitches does a baseball have?</h2>\n\t\t\t\t\t\t<br>\n\t\t\t\t\t\t<p>Answer: <strong>108</strong></p>\n\t\t\t\t\t</div>\n\t\t\t\t</div>\n\t\t\t</div>\n\t\t\t","response":null,"trial_type":"html-keyboard-response","trial_index":112,"time_elapsed":857125,"internal_node_id":"0.0-3.0-2.26","prolific_id":"612cf777563f5c8b66e7caef","session_id":"643c1a9516007a2adb672d16","study_id":"64370a36d30bfa807bc7e43c"},{"rt":1305,"stimulus":"\n\t\t\t\t\t<div>\n\t\t\t\t\t<h2>Trial 27 is over</h2>\n\t\t\t\t\t<p>Press <span style=\"color: red\"><strong>any key</strong></span> to continue to the next trial</p>\n\t\t\t\t\t</div>\n\t\t\t\t","response":" ","trial_type":"html-keyboard-response","trial_index":113,"time_elapsed":858432,"internal_node_id":"0.0-3.0-3.26","prolific_id":"612cf777563f5c8b66e7caef","session_id":"643c1a9516007a2adb672d16","study_id":"64370a36d30bfa807bc7e43c"},{"rt":11852,"response":{"prediction":"35"},"trial_type":"survey-text","trial_index":114,"time_elapsed":870292,"internal_node_id":"0.0-3.0-0.27","prolific_id":"612cf777563f5c8b66e7caef","session_id":"643c1a9516007a2adb672d16","study_id":"64370a36d30bfa807bc7e43c"},{"rt":6377,"response":{"prior knowledge":0,"curiosity":4},"accuracy":[],"trial_type":"survey","trial_index":115,"time_elapsed":876731,"internal_node_id":"0.0-3.0-1.27","prolific_id":"612cf777563f5c8b66e7caef","session_id":"643c1a9516007a2adb672d16","study_id":"64370a36d30bfa807bc7e43c"},{"rt":null,"stimulus":"\n\t\t\t<div class=\"flip_card\">\n\t\t\t\t<div class=\"flip_card_inner\">\n\t\t\t\t\t<div class=\"flip_card_front\">\n\t\t\t\t\t\t<img src=img/25.png>\n\t\t\t\t\t</div>\n\t\t\t\t\t<div class=\"flip_card_back\">\n\t\t\t\t\t\t<h2>How many tones are in the Vietnamese language?</h2>\n\t\t\t\t\t\t<br>\n\t\t\t\t\t\t<p>Answer: <strong>6</strong></p>\n\t\t\t\t\t</div>\n\t\t\t\t</div>\n\t\t\t</div>\n\t\t\t","response":null,"trial_type":"html-keyboard-response","trial_index":116,"time_elapsed":881741,"internal_node_id":"0.0-3.0-2.27","prolific_id":"612cf777563f5c8b66e7caef","session_id":"643c1a9516007a2adb672d16","study_id":"64370a36d30bfa807bc7e43c"},{"rt":1503,"stimulus":"\n\t\t\t\t\t<div>\n\t\t\t\t\t<h2>Trial 28 is over</h2>\n\t\t\t\t\t<p>Press <span style=\"color: red\"><strong>any key</strong></span> to continue to the next trial</p>\n\t\t\t\t\t</div>\n\t\t\t\t","response":" ","trial_type":"html-keyboard-response","trial_index":117,"time_elapsed":883246,"internal_node_id":"0.0-3.0-3.27","prolific_id":"612cf777563f5c8b66e7caef","session_id":"643c1a9516007a2adb672d16","study_id":"64370a36d30bfa807bc7e43c"},{"rt":10055,"response":{"prediction":"2000"},"trial_type":"survey-text","trial_index":118,"time_elapsed":893309,"internal_node_id":"0.0-3.0-0.28","prolific_id":"612cf777563f5c8b66e7caef","session_id":"643c1a9516007a2adb672d16","study_id":"64370a36d30bfa807bc7e43c"},{"rt":8227,"response":{"prior knowledge":0,"curiosity":4},"accuracy":[],"trial_type":"survey","trial_index":119,"time_elapsed":901590,"internal_node_id":"0.0-3.0-1.28","prolific_id":"612cf777563f5c8b66e7caef","session_id":"643c1a9516007a2adb672d16","study_id":"64370a36d30bfa807bc7e43c"},{"rt":null,"stimulus":"\n\t\t\t<div class=\"flip_card\">\n\t\t\t\t<div class=\"flip_card_inner\">\n\t\t\t\t\t<div class=\"flip_card_front\">\n\t\t\t\t\t\t<img src=img/30.png>\n\t\t\t\t\t</div>\n\t\t\t\t\t<div class=\"flip_card_back\">\n\t\t\t\t\t\t<h2>What year was the very first model of the iPhone released?</h2>\n\t\t\t\t\t\t<br>\n\t\t\t\t\t\t<p>Answer: <strong>2007</strong></p>\n\t\t\t\t\t</div>\n\t\t\t\t</div>\n\t\t\t</div>\n\t\t\t","response":null,"trial_type":"html-keyboard-response","trial_index":120,"time_elapsed":906597,"internal_node_id":"0.0-3.0-2.28","prolific_id":"612cf777563f5c8b66e7caef","session_id":"643c1a9516007a2adb672d16","study_id":"64370a36d30bfa807bc7e43c"},{"rt":1295,"stimulus":"\n\t\t\t\t\t<div>\n\t\t\t\t\t<h2>Trial 29 is over</h2>\n\t\t\t\t\t<p>Press <span style=\"color: red\"><strong>any key</strong></span> to continue to the next trial</p>\n\t\t\t\t\t</div>\n\t\t\t\t","response":" ","trial_type":"html-keyboard-response","trial_index":121,"time_elapsed":907894,"internal_node_id":"0.0-3.0-3.28","prolific_id":"612cf777563f5c8b66e7caef","session_id":"643c1a9516007a2adb672d16","study_id":"64370a36d30bfa807bc7e43c"},{"rt":13664,"response":{"prediction":"4"},"trial_type":"survey-text","trial_index":122,"time_elapsed":921567,"internal_node_id":"0.0-3.0-0.29","prolific_id":"612cf777563f5c8b66e7caef","session_id":"643c1a9516007a2adb672d16","study_id":"64370a36d30bfa807bc7e43c"},{"rt":7753,"response":{"prior knowledge":0,"curiosity":3},"accuracy":[],"trial_type":"survey","trial_index":123,"time_elapsed":929375,"internal_node_id":"0.0-3.0-1.29","prolific_id":"612cf777563f5c8b66e7caef","session_id":"643c1a9516007a2adb672d16","study_id":"64370a36d30bfa807bc7e43c"},{"rt":null,"stimulus":"\n\t\t\t<div class=\"flip_card\">\n\t\t\t\t<div class=\"flip_card_inner\">\n\t\t\t\t\t<div class=\"flip_card_front\">\n\t\t\t\t\t\t<img src=img/7.png>\n\t\t\t\t\t</div>\n\t\t\t\t\t<div class=\"flip_card_back\">\n\t\t\t\t\t\t<h2>How many books are in the Catholic Bible?</h2>\n\t\t\t\t\t\t<br>\n\t\t\t\t\t\t<p>Answer: <strong>73</strong></p>\n\t\t\t\t\t</div>\n\t\t\t\t</div>\n\t\t\t</div>\n\t\t\t","response":null,"trial_type":"html-keyboard-response","trial_index":124,"time_elapsed":934381,"internal_node_id":"0.0-3.0-2.29","prolific_id":"612cf777563f5c8b66e7caef","session_id":"643c1a9516007a2adb672d16","study_id":"64370a36d30bfa807bc7e43c"},{"rt":2210,"stimulus":"\n\t\t\t\t\t<div>\n\t\t\t\t\t<h2>Trial 30 is over</h2>\n\t\t\t\t\t<p>Press <span style=\"color: red\"><strong>any key</strong></span> to continue to the next trial</p>\n\t\t\t\t\t</div>\n\t\t\t\t","response":" ","trial_type":"html-keyboard-response","trial_index":125,"time_elapsed":936593,"internal_node_id":"0.0-3.0-3.29","prolific_id":"612cf777563f5c8b66e7caef","session_id":"643c1a9516007a2adb672d16","study_id":"64370a36d30bfa807bc7e43c"},{"rt":28308,"stimulus":"\n\t\t\t<h2>Good job! You've finished the 30 trials:p</h2>\n\t\t\t<p>In the next session, you will see two cards on the screen in each trial.</p>\n\t\t\t<p>On one card is a pattern that you have seen before in the experiment,\n\t\t\t\tand on the other card is one you have not seen.</p><br>\n\t\t\t<p>Your task is to choose the one you think you <em>have</em> seen before for every trial.</p>\n\t\t\t<p>Press '<span style=\"color: red;\"><strong>F</strong></span>' to choose the card on the left,\n\t\t\t\tand '<span style=\"color: red;\"><strong>J</strong></span>' to choose the card on the right.</p>\n\t\t\t<p>Have fun!</p>\n\t\t\t<br>\n\t\t\t<p>The trials will begin in 30 seconds</p>\n\t\t\t","response":" ","trial_type":"html-keyboard-response","trial_index":126,"time_elapsed":964904,"internal_node_id":"0.0-4.0","prolific_id":"612cf777563f5c8b66e7caef","session_id":"643c1a9516007a2adb672d16","study_id":"64370a36d30bfa807bc7e43c"},{"rt":5726,"stimulus":"\n\t\t\t\t\t\t<div class=\"two_card_container\">\n\t\t\t\t\t\t<div class=\"card_container\">\n\t\t\t\t\t\t<img src=img/40.png>\n\t\t\t\t\t\t</div>\n\n\t\t\t\t\t\t<div class=\"card_container\">\n\t\t\t\t\t\t<img src=img/28.png>\n\t\t\t\t\t\t</div>","response":"f","task":"response","correct_response":"j","trial_type":"html-keyboard-response","trial_index":127,"time_elapsed":970636,"internal_node_id":"0.0-5.0-0.0","prolific_id":"612cf777563f5c8b66e7caef","session_id":"643c1a9516007a2adb672d16","study_id":"64370a36d30bfa807bc7e43c","correct":false},{"rt":null,"stimulus":"\n\t\t\t\t\t<p>Wrong answer</p>\n\t\t\t\t\t","response":null,"trial_type":"html-keyboard-response","trial_index":128,"time_elapsed":971645,"internal_node_id":"0.0-5.0-1.0","prolific_id":"612cf777563f5c8b66e7caef","session_id":"643c1a9516007a2adb672d16","study_id":"64370a36d30bfa807bc7e43c"},{"rt":2710,"stimulus":"\n\t\t\t\t\t\t<div class=\"two_card_container\">\n\t\t\t\t\t\t<div class=\"card_container\">\n\t\t\t\t\t\t<img src=img/20.png>\n\t\t\t\t\t\t</div>\n\n\t\t\t\t\t\t<div class=\"card_container\">\n\t\t\t\t\t\t<img src=img/38.png>\n\t\t\t\t\t\t</div>","response":"j","task":"response","correct_response":"f","trial_type":"html-keyboard-response","trial_index":129,"time_elapsed":974357,"internal_node_id":"0.0-5.0-0.1","prolific_id":"612cf777563f5c8b66e7caef","session_id":"643c1a9516007a2adb672d16","study_id":"64370a36d30bfa807bc7e43c","correct":false},{"rt":null,"stimulus":"\n\t\t\t\t\t<p>Wrong answer</p>\n\t\t\t\t\t","response":null,"trial_type":"html-keyboard-response","trial_index":130,"time_elapsed":975364,"internal_node_id":"0.0-5.0-1.1","prolific_id":"612cf777563f5c8b66e7caef","session_id":"643c1a9516007a2adb672d16","study_id":"64370a36d30bfa807bc7e43c"},{"rt":1970,"stimulus":"\n\t\t\t\t\t\t<div class=\"two_card_container\">\n\t\t\t\t\t\t<div class=\"card_container\">\n\t\t\t\t\t\t<img src=img/35.png>\n\t\t\t\t\t\t</div>\n\n\t\t\t\t\t\t<div class=\"card_container\">\n\t\t\t\t\t\t<img src=img/6.png>\n\t\t\t\t\t\t</div>","response":"j","task":"response","correct_response":"j","trial_type":"html-keyboard-response","trial_index":131,"time_elapsed":977338,"internal_node_id":"0.0-5.0-0.2","prolific_id":"612cf777563f5c8b66e7caef","session_id":"643c1a9516007a2adb672d16","study_id":"64370a36d30bfa807bc7e43c","correct":true},{"rt":null,"stimulus":"\n\t\t\t\t\t<p>Correct!</p>\n\t\t\t\t\t","response":null,"trial_type":"html-keyboard-response","trial_index":132,"time_elapsed":978341,"internal_node_id":"0.0-5.0-1.2","prolific_id":"612cf777563f5c8b66e7caef","session_id":"643c1a9516007a2adb672d16","study_id":"64370a36d30bfa807bc7e43c"},{"rt":2940,"stimulus":"\n\t\t\t\t\t\t<div class=\"two_card_container\">\n\t\t\t\t\t\t<div class=\"card_container\">\n\t\t\t\t\t\t<img src=img/5.png>\n\t\t\t\t\t\t</div>\n\n\t\t\t\t\t\t<div class=\"card_container\">\n\t\t\t\t\t\t<img src=img/31.png>\n\t\t\t\t\t\t</div>","response":"f","task":"response","correct_response":"f","trial_type":"html-keyboard-response","trial_index":133,"time_elapsed":981285,"internal_node_id":"0.0-5.0-0.3","prolific_id":"612cf777563f5c8b66e7caef","session_id":"643c1a9516007a2adb672d16","study_id":"64370a36d30bfa807bc7e43c","correct":true},{"rt":null,"stimulus":"\n\t\t\t\t\t<p>Correct!</p>\n\t\t\t\t\t","response":null,"trial_type":"html-keyboard-response","trial_index":134,"time_elapsed":982293,"internal_node_id":"0.0-5.0-1.3","prolific_id":"612cf777563f5c8b66e7caef","session_id":"643c1a9516007a2adb672d16","study_id":"64370a36d30bfa807bc7e43c"},{"rt":1631,"stimulus":"\n\t\t\t\t\t\t<div class=\"two_card_container\">\n\t\t\t\t\t\t<div class=\"card_container\">\n\t\t\t\t\t\t<img src=img/9.png>\n\t\t\t\t\t\t</div>\n\n\t\t\t\t\t\t<div class=\"card_container\">\n\t\t\t\t\t\t<img src=img/39.png>\n\t\t\t\t\t\t</div>","response":"f","task":"response","correct_response":"f","trial_type":"html-keyboard-response","trial_index":135,"time_elapsed":983927,"internal_node_id":"0.0-5.0-0.4","prolific_id":"612cf777563f5c8b66e7caef","session_id":"643c1a9516007a2adb672d16","study_id":"64370a36d30bfa807bc7e43c","correct":true},{"rt":null,"stimulus":"\n\t\t\t\t\t<p>Correct!</p>\n\t\t\t\t\t","response":null,"trial_type":"html-keyboard-response","trial_index":136,"time_elapsed":984932,"internal_node_id":"0.0-5.0-1.4","prolific_id":"612cf777563f5c8b66e7caef","session_id":"643c1a9516007a2adb672d16","study_id":"64370a36d30bfa807bc7e43c"},{"rt":1850,"stimulus":"\n\t\t\t\t\t\t<div class=\"two_card_container\">\n\t\t\t\t\t\t<div class=\"card_container\">\n\t\t\t\t\t\t<img src=img/13.png>\n\t\t\t\t\t\t</div>\n\n\t\t\t\t\t\t<div class=\"card_container\">\n\t\t\t\t\t\t<img src=img/34.png>\n\t\t\t\t\t\t</div>","response":"j","task":"response","correct_response":"f","trial_type":"html-keyboard-response","trial_index":137,"time_elapsed":986787,"internal_node_id":"0.0-5.0-0.5","prolific_id":"612cf777563f5c8b66e7caef","session_id":"643c1a9516007a2adb672d16","study_id":"64370a36d30bfa807bc7e43c","correct":false},{"rt":null,"stimulus":"\n\t\t\t\t\t<p>Wrong answer</p>\n\t\t\t\t\t","response":null,"trial_type":"html-keyboard-response","trial_index":138,"time_elapsed":987797,"internal_node_id":"0.0-5.0-1.5","prolific_id":"612cf777563f5c8b66e7caef","session_id":"643c1a9516007a2adb672d16","study_id":"64370a36d30bfa807bc7e43c"},{"rt":1656,"stimulus":"\n\t\t\t\t\t\t<div class=\"two_card_container\">\n\t\t\t\t\t\t<div class=\"card_container\">\n\t\t\t\t\t\t<img src=img/37.png>\n\t\t\t\t\t\t</div>\n\n\t\t\t\t\t\t<div class=\"card_container\">\n\t\t\t\t\t\t<img src=img/27.png>\n\t\t\t\t\t\t</div>","response":"j","task":"response","correct_response":"j","trial_type":"html-keyboard-response","trial_index":139,"time_elapsed":989456,"internal_node_id":"0.0-5.0-0.6","prolific_id":"612cf777563f5c8b66e7caef","session_id":"643c1a9516007a2adb672d16","study_id":"64370a36d30bfa807bc7e43c","correct":true},{"rt":null,"stimulus":"\n\t\t\t\t\t<p>Correct!</p>\n\t\t\t\t\t","response":null,"trial_type":"html-keyboard-response","trial_index":140,"time_elapsed":990460,"internal_node_id":"0.0-5.0-1.6","prolific_id":"612cf777563f5c8b66e7caef","session_id":"643c1a9516007a2adb672d16","study_id":"64370a36d30bfa807bc7e43c"},{"rt":1571,"stimulus":"\n\t\t\t\t\t\t<div class=\"two_card_container\">\n\t\t\t\t\t\t<div class=\"card_container\">\n\t\t\t\t\t\t<img src=img/17.png>\n\t\t\t\t\t\t</div>\n\n\t\t\t\t\t\t<div class=\"card_container\">\n\t\t\t\t\t\t<img src=img/33.png>\n\t\t\t\t\t\t</div>","response":"j","task":"response","correct_response":"f","trial_type":"html-keyboard-response","trial_index":141,"time_elapsed":992035,"internal_node_id":"0.0-5.0-0.7","prolific_id":"612cf777563f5c8b66e7caef","session_id":"643c1a9516007a2adb672d16","study_id":"64370a36d30bfa807bc7e43c","correct":false},{"rt":null,"stimulus":"\n\t\t\t\t\t<p>Wrong answer</p>\n\t\t\t\t\t","response":null,"trial_type":"html-keyboard-response","trial_index":142,"time_elapsed":993045,"internal_node_id":"0.0-5.0-1.7","prolific_id":"612cf777563f5c8b66e7caef","session_id":"643c1a9516007a2adb672d16","study_id":"64370a36d30bfa807bc7e43c"},{"rt":1902,"stimulus":"\n\t\t\t\t\t\t<div class=\"two_card_container\">\n\t\t\t\t\t\t<div class=\"card_container\">\n\t\t\t\t\t\t<img src=img/32.png>\n\t\t\t\t\t\t</div>\n\n\t\t\t\t\t\t<div class=\"card_container\">\n\t\t\t\t\t\t<img src=img/23.png>\n\t\t\t\t\t\t</div>","response":"j","task":"response","correct_response":"j","trial_type":"html-keyboard-response","trial_index":143,"time_elapsed":994950,"internal_node_id":"0.0-5.0-0.8","prolific_id":"612cf777563f5c8b66e7caef","session_id":"643c1a9516007a2adb672d16","study_id":"64370a36d30bfa807bc7e43c","correct":true},{"rt":null,"stimulus":"\n\t\t\t\t\t<p>Correct!</p>\n\t\t\t\t\t","response":null,"trial_type":"html-keyboard-response","trial_index":144,"time_elapsed":995956,"internal_node_id":"0.0-5.0-1.8","prolific_id":"612cf777563f5c8b66e7caef","session_id":"643c1a9516007a2adb672d16","study_id":"64370a36d30bfa807bc7e43c"},{"rt":1513,"stimulus":"\n\t\t\t\t\t\t<div class=\"two_card_container\">\n\t\t\t\t\t\t<div class=\"card_container\">\n\t\t\t\t\t\t<img src=img/36.png>\n\t\t\t\t\t\t</div>\n\n\t\t\t\t\t\t<div class=\"card_container\">\n\t\t\t\t\t\t<img src=img/19.png>\n\t\t\t\t\t\t</div>","response":"f","task":"response","correct_response":"j","trial_type":"html-keyboard-response","trial_index":145,"time_elapsed":997473,"internal_node_id":"0.0-5.0-0.9","prolific_id":"612cf777563f5c8b66e7caef","session_id":"643c1a9516007a2adb672d16","study_id":"64370a36d30bfa807bc7e43c","correct":false},{"rt":null,"stimulus":"\n\t\t\t\t\t<p>Wrong answer</p>\n\t\t\t\t\t","response":null,"trial_type":"html-keyboard-response","trial_index":146,"time_elapsed":998477,"internal_node_id":"0.0-5.0-1.9","prolific_id":"612cf777563f5c8b66e7caef","session_id":"643c1a9516007a2adb672d16","study_id":"64370a36d30bfa807bc7e43c"},{"rt":15235,"stimulus":"\n\t\t\t<h2>Good job :p</h2>\n\t\t\t<p>In the next session, you will see a trivia question on the screen in each trial.</p>\n\t\t\t<p>Each of these trivia questions is chosen from the questions you have already seen in the first session of the experiment.</p><br>\n\t\t\t<p>Your task is to answer the trivia question based on what you remember as accurately as you can.</p>\n\t\t\t<p>Have fun!</p>\n\t\t\t<br>\n\t\t\t<p>The trials will begin in 30 seconds</p>\n\t\t\t","response":" ","trial_type":"html-keyboard-response","trial_index":147,"time_elapsed":1013713,"internal_node_id":"0.0-6.0","prolific_id":"612cf777563f5c8b66e7caef","session_id":"643c1a9516007a2adb672d16","study_id":"64370a36d30bfa807bc7e43c"},{"rt":6576,"response":{"answer":"13"},"task":"response","correct_response":"13","trial_type":"survey-text","trial_index":148,"time_elapsed":1020296,"internal_node_id":"0.0-7.0-0.0","prolific_id":"612cf777563f5c8b66e7caef","session_id":"643c1a9516007a2adb672d16","study_id":"64370a36d30bfa807bc7e43c","difference":0},{"rt":null,"stimulus":"<h2>The correct answer is 13.</h2><p>Your answer was different from the answer by 0.</p><p>You got the right answer. Amazing work!</p>","response":null,"trial_type":"html-keyboard-response","trial_index":149,"time_elapsed":1022805,"internal_node_id":"0.0-7.0-1.0","prolific_id":"612cf777563f5c8b66e7caef","session_id":"643c1a9516007a2adb672d16","study_id":"64370a36d30bfa807bc7e43c"},{"rt":5868,"response":{"answer":"4"},"task":"response","correct_response":"4","trial_type":"survey-text","trial_index":150,"time_elapsed":1028681,"internal_node_id":"0.0-7.0-0.1","prolific_id":"612cf777563f5c8b66e7caef","session_id":"643c1a9516007a2adb672d16","study_id":"64370a36d30bfa807bc7e43c","difference":0},{"rt":null,"stimulus":"<h2>The correct answer is 4.</h2><p>Your answer was different from the answer by 0.</p><p>You got the right answer. Amazing work!</p>","response":null,"trial_type":"html-keyboard-response","trial_index":151,"time_elapsed":1031188,"internal_node_id":"0.0-7.0-1.1","prolific_id":"612cf777563f5c8b66e7caef","session_id":"643c1a9516007a2adb672d16","study_id":"64370a36d30bfa807bc7e43c"},{"rt":9685,"response":{"answer":"88"},"task":"response","correct_response":"88","trial_type":"survey-text","trial_index":152,"time_elapsed":1040881,"internal_node_id":"0.0-7.0-0.2","prolific_id":"612cf777563f5c8b66e7caef","session_id":"643c1a9516007a2adb672d16","study_id":"64370a36d30bfa807bc7e43c","difference":0},{"rt":null,"stimulus":"<h2>The correct answer is 88.</h2><p>Your answer was different from the answer by 0.</p><p>You got the right answer. Amazing work!</p>","response":null,"trial_type":"html-keyboard-response","trial_index":153,"time_elapsed":1043396,"internal_node_id":"0.0-7.0-1.2","prolific_id":"612cf777563f5c8b66e7caef","session_id":"643c1a9516007a2adb672d16","study_id":"64370a36d30bfa807bc7e43c"},{"rt":16312,"response":{"answer":"4"},"task":"response","correct_response":"4","trial_type":"survey-text","trial_index":154,"time_elapsed":1059717,"internal_node_id":"0.0-7.0-0.3","prolific_id":"612cf777563f5c8b66e7caef","session_id":"643c1a9516007a2adb672d16","study_id":"64370a36d30bfa807bc7e43c","difference":0},{"rt":null,"stimulus":"<h2>The correct answer is 4.</h2><p>Your answer was different from the answer by 0.</p><p>You got the right answer. Amazing work!</p>","response":null,"trial_type":"html-keyboard-response","trial_index":155,"time_elapsed":1062221,"internal_node_id":"0.0-7.0-1.3","prolific_id":"612cf777563f5c8b66e7caef","session_id":"643c1a9516007a2adb672d16","study_id":"64370a36d30bfa807bc7e43c"},{"rt":6884,"response":{"answer":"8"},"task":"response","correct_response":"5","trial_type":"survey-text","trial_index":156,"time_elapsed":1069112,"internal_node_id":"0.0-7.0-0.4","prolific_id":"612cf777563f5c8b66e7caef","session_id":"643c1a9516007a2adb672d16","study_id":"64370a36d30bfa807bc7e43c","difference":60},{"rt":null,"stimulus":"<h2>The correct answer is 5.</h2><p>Your answer was different from the answer by 3.</p><p>Not even close... do better next time!</p>","response":null,"trial_type":"html-keyboard-response","trial_index":157,"time_elapsed":1071620,"internal_node_id":"0.0-7.0-1.4","prolific_id":"612cf777563f5c8b66e7caef","session_id":"643c1a9516007a2adb672d16","study_id":"64370a36d30bfa807bc7e43c"},{"rt":8365,"response":{"answer":"18000"},"task":"response","correct_response":"13171","trial_type":"survey-text","trial_index":158,"time_elapsed":1079992,"internal_node_id":"0.0-7.0-0.5","prolific_id":"612cf777563f5c8b66e7caef","session_id":"643c1a9516007a2adb672d16","study_id":"64370a36d30bfa807bc7e43c","difference":37},{"rt":null,"stimulus":"<h2>The correct answer is 13171.</h2><p>Your answer was different from the answer by 4829.</p><p>Not the worst. Can you do better on the next?</p>","response":null,"trial_type":"html-keyboard-response","trial_index":159,"time_elapsed":1082501,"internal_node_id":"0.0-7.0-1.5","prolific_id":"612cf777563f5c8b66e7caef","session_id":"643c1a9516007a2adb672d16","study_id":"64370a36d30bfa807bc7e43c"},{"rt":8093,"response":{"answer":"163"},"task":"response","correct_response":"163","trial_type":"survey-text","trial_index":160,"time_elapsed":1090602,"internal_node_id":"0.0-7.0-0.6","prolific_id":"612cf777563f5c8b66e7caef","session_id":"643c1a9516007a2adb672d16","study_id":"64370a36d30bfa807bc7e43c","difference":0},{"rt":null,"stimulus":"<h2>The correct answer is 163.</h2><p>Your answer was different from the answer by 0.</p><p>You got the right answer. Amazing work!</p>","response":null,"trial_type":"html-keyboard-response","trial_index":161,"time_elapsed":1093109,"internal_node_id":"0.0-7.0-1.6","prolific_id":"612cf777563f5c8b66e7caef","session_id":"643c1a9516007a2adb672d16","study_id":"64370a36d30bfa807bc7e43c"},{"rt":5549,"response":{"answer":"5"},"task":"response","correct_response":"6","trial_type":"survey-text","trial_index":162,"time_elapsed":1098666,"internal_node_id":"0.0-7.0-0.7","prolific_id":"612cf777563f5c8b66e7caef","session_id":"643c1a9516007a2adb672d16","study_id":"64370a36d30bfa807bc7e43c","difference":17},{"rt":null,"stimulus":"<h2>The correct answer is 6.</h2><p>Your answer was different from the answer by 1.</p><p>A pretty good job indeed.</p>","response":null,"trial_type":"html-keyboard-response","trial_index":163,"time_elapsed":1101180,"internal_node_id":"0.0-7.0-1.7","prolific_id":"612cf777563f5c8b66e7caef","session_id":"643c1a9516007a2adb672d16","study_id":"64370a36d30bfa807bc7e43c"},{"rt":6556,"response":{"answer":"19"},"task":"response","correct_response":"19","trial_type":"survey-text","trial_index":164,"time_elapsed":1107744,"internal_node_id":"0.0-7.0-0.8","prolific_id":"612cf777563f5c8b66e7caef","session_id":"643c1a9516007a2adb672d16","study_id":"64370a36d30bfa807bc7e43c","difference":0},{"rt":null,"stimulus":"<h2>The correct answer is 19.</h2><p>Your answer was different from the answer by 0.</p><p>You got the right answer. Amazing work!</p>","response":null,"trial_type":"html-keyboard-response","trial_index":165,"time_elapsed":1110252,"internal_node_id":"0.0-7.0-1.8","prolific_id":"612cf777563f5c8b66e7caef","session_id":"643c1a9516007a2adb672d16","study_id":"64370a36d30bfa807bc7e43c"},{"rt":13974,"response":{"answer":"72000"},"task":"response","correct_response":"7917.5","trial_type":"survey-text","trial_index":166,"time_elapsed":1124235,"internal_node_id":"0.0-7.0-0.9","prolific_id":"612cf777563f5c8b66e7caef","session_id":"643c1a9516007a2adb672d16","study_id":"64370a36d30bfa807bc7e43c","difference":100},{"rt":null,"stimulus":"<h2>The correct answer is 7917.5.</h2><p>Your answer was different from the answer by 64082.5.</p><p>Not even close... do better next time!</p>","response":null,"trial_type":"html-keyboard-response","trial_index":167,"time_elapsed":1126757,"internal_node_id":"0.0-7.0-1.9","prolific_id":"612cf777563f5c8b66e7caef","session_id":"643c1a9516007a2adb672d16","study_id":"64370a36d30bfa807bc7e43c"}]