[{"success":true,"timeout":false,"failed_images":[],"failed_audio":[],"failed_video":[],"trial_type":"preload","trial_index":0,"time_elapsed":158001,"internal_node_id":"0.0-0.0","prolific_id":"6138c15bd47ecca8b56a704f","session_id":"643c1e451a90a9db7885323e","study_id":"64370a36d30bfa807bc7e43c"},{"rt":31172,"stimulus":"\n\t\t\t\t\t<p>Welcome and thank you for participating in this study!</p>\n\t\t\t\t\t<p>In each trial, you will be given a trivia question and then be asked to:</p><br>\n\t\t\t\t\t<div class=\"list\">\n\t\t\t\t\t<p>1) Predict the answer</p>\n\t\t\t\t\t<p>2) Rate how much you already know about the topic</p>\n\t\t\t\t\t<p>3) Rate how much you want to know the answer</p>\n\t\t\t\t\t</div>\n\t\t\t\t\t<br>\n\t\t\t\t\t<p>Then, you will see a card that flips over to reveal the answer.</p>\n\t\t\t\t\t<br>\n\t\t\t\t\t<p>Let's try a practice round. Press <span style=\"color: red\"><strong>any key</strong></span> to move to the next slide</p>\n\t\t\t\t\t","response":"d","trial_type":"html-keyboard-response","trial_index":1,"time_elapsed":189176,"internal_node_id":"0.0-1.0","prolific_id":"6138c15bd47ecca8b56a704f","session_id":"643c1e451a90a9db7885323e","study_id":"64370a36d30bfa807bc7e43c"},{"rt":17851,"response":{"practice prediction":"10"},"task":"practice","trial_type":"survey-text","trial_index":2,"time_elapsed":207067,"internal_node_id":"0.0-2.0-0.0","prolific_id":"6138c15bd47ecca8b56a704f","session_id":"643c1e451a90a9db7885323e","study_id":"64370a36d30bfa807bc7e43c"},{"rt":6789,"response":{"practice":4},"accuracy":[],"trial_type":"survey","trial_index":3,"time_elapsed":213926,"internal_node_id":"0.0-2.0-1.0","prolific_id":"6138c15bd47ecca8b56a704f","session_id":"643c1e451a90a9db7885323e","study_id":"64370a36d30bfa807bc7e43c"},{"rt":null,"stimulus":"\n\t\t\t\t<div class=\"flip_card\">\n\t\t\t\t\t<div class=\"flip_card_inner\">\n\t\t\t\t\t\t<div class=\"flip_card_front\">\n\t\t\t\t\t\t\t<img src=img/practice.png>\n\t\t\t\t\t\t</div>\n\t\t\t\t\t\t<div class=\"flip_card_back\">\n\t\t\t\t\t\t\t<h2>\"How many legs does a lobster have?\"</h2>\n\t\t\t\t\t\t    <br>\n\t\t\t\t\t\t    <p>Answer: <strong>\"10\"</strong></p>\n\t\t\t\t\t    </div>\n\t\t\t\t    </div>\n\t\t\t    </div>\n\t\t\t\t","response":null,"trial_type":"html-keyboard-response","trial_index":4,"time_elapsed":218929,"internal_node_id":"0.0-2.0-2.0","prolific_id":"6138c15bd47ecca8b56a704f","session_id":"643c1e451a90a9db7885323e","study_id":"64370a36d30bfa807bc7e43c"},{"rt":3662,"stimulus":"\n\t\t\t\t\t<div>\n\t\t\t\t\t<h2>The practice round is over</h2>\n\t\t\t\t\t<p>Press <span style=\"color: red\"><strong>any key</strong></span> to continue to the actual trials</p>\n\t\t\t\t\t<p>Good Luck!</p>\n\t\t\t\t\t</div>\n\t\t\t\t\t","response":"g","trial_type":"html-keyboard-response","trial_index":5,"time_elapsed":222592,"internal_node_id":"0.0-2.0-3.0","prolific_id":"6138c15bd47ecca8b56a704f","session_id":"643c1e451a90a9db7885323e","study_id":"64370a36d30bfa807bc7e43c"},{"rt":15275,"response":{"prediction":"121"},"trial_type":"survey-text","trial_index":6,"time_elapsed":237884,"internal_node_id":"0.0-3.0-0.0","prolific_id":"6138c15bd47ecca8b56a704f","session_id":"643c1e451a90a9db7885323e","study_id":"64370a36d30bfa807bc7e43c"},{"rt":12075,"response":{"prior knowledge":2,"curiosity":3},"accuracy":[],"trial_type":"survey","trial_index":7,"time_elapsed":249977,"internal_node_id":"0.0-3.0-1.0","prolific_id":"6138c15bd47ecca8b56a704f","session_id":"643c1e451a90a9db7885323e","study_id":"64370a36d30bfa807bc7e43c"},{"rt":null,"stimulus":"\n\t\t\t<div class=\"flip_card\">\n\t\t\t\t<div class=\"flip_card_inner\">\n\t\t\t\t\t<div class=\"flip_card_front\">\n\t\t\t\t\t\t<img src=img/6.png>\n\t\t\t\t\t</div>\n\t\t\t\t\t<div class=\"flip_card_back\">\n\t\t\t\t\t\t<h2>A bar mitzvah is traditionally celebrated when Jewish males turn what age?</h2>\n\t\t\t\t\t\t<br>\n\t\t\t\t\t\t<p>Answer: <strong>13</strong></p>\n\t\t\t\t\t</div>\n\t\t\t\t</div>\n\t\t\t</div>\n\t\t\t","response":null,"trial_type":"html-keyboard-response","trial_index":8,"time_elapsed":254991,"internal_node_id":"0.0-3.0-2.0","prolific_id":"6138c15bd47ecca8b56a704f","session_id":"643c1e451a90a9db7885323e","study_id":"64370a36d30bfa807bc7e43c"},{"rt":3378,"stimulus":"\n\t\t\t\t\t<div>\n\t\t\t\t\t<h2>Trial 1 is over</h2>\n\t\t\t\t\t<p>Press <span style=\"color: red\"><strong>any key</strong></span> to continue to the next trial</p>\n\t\t\t\t\t</div>\n\t\t\t\t","response":"h","trial_type":"html-keyboard-response","trial_index":9,"time_elapsed":258369,"internal_node_id":"0.0-3.0-3.0","prolific_id":"6138c15bd47ecca8b56a704f","session_id":"643c1e451a90a9db7885323e","study_id":"64370a36d30bfa807bc7e43c"},{"rt":10441,"response":{"prediction":"10"},"trial_type":"survey-text","trial_index":10,"time_elapsed":268854,"internal_node_id":"0.0-3.0-0.1","prolific_id":"6138c15bd47ecca8b56a704f","session_id":"643c1e451a90a9db7885323e","study_id":"64370a36d30bfa807bc7e43c"},{"rt":7325,"response":{"prior knowledge":4,"curiosity":5},"accuracy":[],"trial_type":"survey","trial_index":11,"time_elapsed":276195,"internal_node_id":"0.0-3.0-1.1","prolific_id":"6138c15bd47ecca8b56a704f","session_id":"643c1e451a90a9db7885323e","study_id":"64370a36d30bfa807bc7e43c"},{"rt":null,"stimulus":"\n\t\t\t<div class=\"flip_card\">\n\t\t\t\t<div class=\"flip_card_inner\">\n\t\t\t\t\t<div class=\"flip_card_front\">\n\t\t\t\t\t\t<img src=img/7.png>\n\t\t\t\t\t</div>\n\t\t\t\t\t<div class=\"flip_card_back\">\n\t\t\t\t\t\t<h2>How many different animals (real or imaginary) are represented in the Chinese calendar?</h2>\n\t\t\t\t\t\t<br>\n\t\t\t\t\t\t<p>Answer: <strong>12</strong></p>\n\t\t\t\t\t</div>\n\t\t\t\t</div>\n\t\t\t</div>\n\t\t\t","response":null,"trial_type":"html-keyboard-response","trial_index":12,"time_elapsed":281211,"internal_node_id":"0.0-3.0-2.1","prolific_id":"6138c15bd47ecca8b56a704f","session_id":"643c1e451a90a9db7885323e","study_id":"64370a36d30bfa807bc7e43c"},{"rt":3188,"stimulus":"\n\t\t\t\t\t<div>\n\t\t\t\t\t<h2>Trial 2 is over</h2>\n\t\t\t\t\t<p>Press <span style=\"color: red\"><strong>any key</strong></span> to continue to the next trial</p>\n\t\t\t\t\t</div>\n\t\t\t\t","response":"h","trial_type":"html-keyboard-response","trial_index":13,"time_elapsed":284400,"internal_node_id":"0.0-3.0-3.1","prolific_id":"6138c15bd47ecca8b56a704f","session_id":"643c1e451a90a9db7885323e","study_id":"64370a36d30bfa807bc7e43c"},{"rt":26722,"response":{"prediction":"1989"},"trial_type":"survey-text","trial_index":14,"time_elapsed":311135,"internal_node_id":"0.0-3.0-0.2","prolific_id":"6138c15bd47ecca8b56a704f","session_id":"643c1e451a90a9db7885323e","study_id":"64370a36d30bfa807bc7e43c"},{"rt":4306,"response":{"prior knowledge":3,"curiosity":4},"accuracy":[],"trial_type":"survey","trial_index":15,"time_elapsed":315457,"internal_node_id":"0.0-3.0-1.2","prolific_id":"6138c15bd47ecca8b56a704f","session_id":"643c1e451a90a9db7885323e","study_id":"64370a36d30bfa807bc7e43c"},{"rt":null,"stimulus":"\n\t\t\t<div class=\"flip_card\">\n\t\t\t\t<div class=\"flip_card_inner\">\n\t\t\t\t\t<div class=\"flip_card_front\">\n\t\t\t\t\t\t<img src=img/17.png>\n\t\t\t\t\t</div>\n\t\t\t\t\t<div class=\"flip_card_back\">\n\t\t\t\t\t\t<h2>What year did the Berlin Wall fall?</h2>\n\t\t\t\t\t\t<br>\n\t\t\t\t\t\t<p>Answer: <strong>1989</strong></p>\n\t\t\t\t\t</div>\n\t\t\t\t</div>\n\t\t\t</div>\n\t\t\t","response":null,"trial_type":"html-keyboard-response","trial_index":16,"time_elapsed":320468,"internal_node_id":"0.0-3.0-2.2","prolific_id":"6138c15bd47ecca8b56a704f","session_id":"643c1e451a90a9db7885323e","study_id":"64370a36d30bfa807bc7e43c"},{"rt":1487,"stimulus":"\n\t\t\t\t\t<div>\n\t\t\t\t\t<h2>Trial 3 is over</h2>\n\t\t\t\t\t<p>Press <span style=\"color: red\"><strong>any key</strong></span> to continue to the next trial</p>\n\t\t\t\t\t</div>\n\t\t\t\t","response":"d","trial_type":"html-keyboard-response","trial_index":17,"time_elapsed":321955,"internal_node_id":"0.0-3.0-3.2","prolific_id":"6138c15bd47ecca8b56a704f","session_id":"643c1e451a90a9db7885323e","study_id":"64370a36d30bfa807bc7e43c"},{"rt":10922,"response":{"prediction":"2007"},"trial_type":"survey-text","trial_index":18,"time_elapsed":332918,"internal_node_id":"0.0-3.0-0.3","prolific_id":"6138c15bd47ecca8b56a704f","session_id":"643c1e451a90a9db7885323e","study_id":"64370a36d30bfa807bc7e43c"},{"rt":3357,"response":{"prior knowledge":5,"curiosity":4},"accuracy":[],"trial_type":"survey","trial_index":19,"time_elapsed":336289,"internal_node_id":"0.0-3.0-1.3","prolific_id":"6138c15bd47ecca8b56a704f","session_id":"643c1e451a90a9db7885323e","study_id":"64370a36d30bfa807bc7e43c"},{"rt":null,"stimulus":"\n\t\t\t<div class=\"flip_card\">\n\t\t\t\t<div class=\"flip_card_inner\">\n\t\t\t\t\t<div class=\"flip_card_front\">\n\t\t\t\t\t\t<img src=img/25.png>\n\t\t\t\t\t</div>\n\t\t\t\t\t<div class=\"flip_card_back\">\n\t\t\t\t\t\t<h2>What year was the very first model of the iPhone released?</h2>\n\t\t\t\t\t\t<br>\n\t\t\t\t\t\t<p>Answer: <strong>2007</strong></p>\n\t\t\t\t\t</div>\n\t\t\t\t</div>\n\t\t\t</div>\n\t\t\t","response":null,"trial_type":"html-keyboard-response","trial_index":20,"time_elapsed":341306,"internal_node_id":"0.0-3.0-2.3","prolific_id":"6138c15bd47ecca8b56a704f","session_id":"643c1e451a90a9db7885323e","study_id":"64370a36d30bfa807bc7e43c"},{"rt":1307,"stimulus":"\n\t\t\t\t\t<div>\n\t\t\t\t\t<h2>Trial 4 is over</h2>\n\t\t\t\t\t<p>Press <span style=\"color: red\"><strong>any key</strong></span> to continue to the next trial</p>\n\t\t\t\t\t</div>\n\t\t\t\t","response":"l","trial_type":"html-keyboard-response","trial_index":21,"time_elapsed":342614,"internal_node_id":"0.0-3.0-3.3","prolific_id":"6138c15bd47ecca8b56a704f","session_id":"643c1e451a90a9db7885323e","study_id":"64370a36d30bfa807bc7e43c"},{"rt":24651,"response":{"prediction":"2"},"trial_type":"survey-text","trial_index":22,"time_elapsed":367269,"internal_node_id":"0.0-3.0-0.4","prolific_id":"6138c15bd47ecca8b56a704f","session_id":"643c1e451a90a9db7885323e","study_id":"64370a36d30bfa807bc7e43c"},{"rt":4258,"response":{"prior knowledge":2,"curiosity":4},"accuracy":[],"trial_type":"survey","trial_index":23,"time_elapsed":371545,"internal_node_id":"0.0-3.0-1.4","prolific_id":"6138c15bd47ecca8b56a704f","session_id":"643c1e451a90a9db7885323e","study_id":"64370a36d30bfa807bc7e43c"},{"rt":null,"stimulus":"\n\t\t\t<div class=\"flip_card\">\n\t\t\t\t<div class=\"flip_card_inner\">\n\t\t\t\t\t<div class=\"flip_card_front\">\n\t\t\t\t\t\t<img src=img/15.png>\n\t\t\t\t\t</div>\n\t\t\t\t\t<div class=\"flip_card_back\">\n\t\t\t\t\t\t<h2>How many single hand gestures, or mudras, are used in Indian classical dance?</h2>\n\t\t\t\t\t\t<br>\n\t\t\t\t\t\t<p>Answer: <strong>28</strong></p>\n\t\t\t\t\t</div>\n\t\t\t\t</div>\n\t\t\t</div>\n\t\t\t","response":null,"trial_type":"html-keyboard-response","trial_index":24,"time_elapsed":376555,"internal_node_id":"0.0-3.0-2.4","prolific_id":"6138c15bd47ecca8b56a704f","session_id":"643c1e451a90a9db7885323e","study_id":"64370a36d30bfa807bc7e43c"},{"rt":1934,"stimulus":"\n\t\t\t\t\t<div>\n\t\t\t\t\t<h2>Trial 5 is over</h2>\n\t\t\t\t\t<p>Press <span style=\"color: red\"><strong>any key</strong></span> to continue to the next trial</p>\n\t\t\t\t\t</div>\n\t\t\t\t","response":"m","trial_type":"html-keyboard-response","trial_index":25,"time_elapsed":378490,"internal_node_id":"0.0-3.0-3.4","prolific_id":"6138c15bd47ecca8b56a704f","session_id":"643c1e451a90a9db7885323e","study_id":"64370a36d30bfa807bc7e43c"},{"rt":9648,"response":{"prediction":"5"},"trial_type":"survey-text","trial_index":26,"time_elapsed":388153,"internal_node_id":"0.0-3.0-0.5","prolific_id":"6138c15bd47ecca8b56a704f","session_id":"643c1e451a90a9db7885323e","study_id":"64370a36d30bfa807bc7e43c"},{"rt":4080,"response":{"prior knowledge":3,"curiosity":4},"accuracy":[],"trial_type":"survey","trial_index":27,"time_elapsed":392251,"internal_node_id":"0.0-3.0-1.5","prolific_id":"6138c15bd47ecca8b56a704f","session_id":"643c1e451a90a9db7885323e","study_id":"64370a36d30bfa807bc7e43c"},{"rt":null,"stimulus":"\n\t\t\t<div class=\"flip_card\">\n\t\t\t\t<div class=\"flip_card_inner\">\n\t\t\t\t\t<div class=\"flip_card_front\">\n\t\t\t\t\t\t<img src=img/1.png>\n\t\t\t\t\t</div>\n\t\t\t\t\t<div class=\"flip_card_back\">\n\t\t\t\t\t\t<h2>How many times a day do Muslims pray?</h2>\n\t\t\t\t\t\t<br>\n\t\t\t\t\t\t<p>Answer: <strong>5</strong></p>\n\t\t\t\t\t</div>\n\t\t\t\t</div>\n\t\t\t</div>\n\t\t\t","response":null,"trial_type":"html-keyboard-response","trial_index":28,"time_elapsed":397266,"internal_node_id":"0.0-3.0-2.5","prolific_id":"6138c15bd47ecca8b56a704f","session_id":"643c1e451a90a9db7885323e","study_id":"64370a36d30bfa807bc7e43c"},{"rt":76,"stimulus":"\n\t\t\t\t\t<div>\n\t\t\t\t\t<h2>Trial 6 is over</h2>\n\t\t\t\t\t<p>Press <span style=\"color: red\"><strong>any key</strong></span> to continue to the next trial</p>\n\t\t\t\t\t</div>\n\t\t\t\t","response":"h","trial_type":"html-keyboard-response","trial_index":29,"time_elapsed":397342,"internal_node_id":"0.0-3.0-3.5","prolific_id":"6138c15bd47ecca8b56a704f","session_id":"643c1e451a90a9db7885323e","study_id":"64370a36d30bfa807bc7e43c"},{"rt":18547,"response":{"prediction":"4"},"trial_type":"survey-text","trial_index":30,"time_elapsed":415901,"internal_node_id":"0.0-3.0-0.6","prolific_id":"6138c15bd47ecca8b56a704f","session_id":"643c1e451a90a9db7885323e","study_id":"64370a36d30bfa807bc7e43c"},{"rt":2547,"response":{"prior knowledge":4,"curiosity":4},"accuracy":[],"trial_type":"survey","trial_index":31,"time_elapsed":418458,"internal_node_id":"0.0-3.0-1.6","prolific_id":"6138c15bd47ecca8b56a704f","session_id":"643c1e451a90a9db7885323e","study_id":"64370a36d30bfa807bc7e43c"},{"rt":null,"stimulus":"\n\t\t\t<div class=\"flip_card\">\n\t\t\t\t<div class=\"flip_card_inner\">\n\t\t\t\t\t<div class=\"flip_card_front\">\n\t\t\t\t\t\t<img src=img/16.png>\n\t\t\t\t\t</div>\n\t\t\t\t\t<div class=\"flip_card_back\">\n\t\t\t\t\t\t<h2>How many main islands make up Japan?</h2>\n\t\t\t\t\t\t<br>\n\t\t\t\t\t\t<p>Answer: <strong>4</strong></p>\n\t\t\t\t\t</div>\n\t\t\t\t</div>\n\t\t\t</div>\n\t\t\t","response":null,"trial_type":"html-keyboard-response","trial_index":32,"time_elapsed":423470,"internal_node_id":"0.0-3.0-2.6","prolific_id":"6138c15bd47ecca8b56a704f","session_id":"643c1e451a90a9db7885323e","study_id":"64370a36d30bfa807bc7e43c"},{"rt":263,"stimulus":"\n\t\t\t\t\t<div>\n\t\t\t\t\t<h2>Trial 7 is over</h2>\n\t\t\t\t\t<p>Press <span style=\"color: red\"><strong>any key</strong></span> to continue to the next trial</p>\n\t\t\t\t\t</div>\n\t\t\t\t","response":"j","trial_type":"html-keyboard-response","trial_index":33,"time_elapsed":423735,"internal_node_id":"0.0-3.0-3.6","prolific_id":"6138c15bd47ecca8b56a704f","session_id":"643c1e451a90a9db7885323e","study_id":"64370a36d30bfa807bc7e43c"},{"rt":15137,"response":{"prediction":"8"},"trial_type":"survey-text","trial_index":34,"time_elapsed":438886,"internal_node_id":"0.0-3.0-0.7","prolific_id":"6138c15bd47ecca8b56a704f","session_id":"643c1e451a90a9db7885323e","study_id":"64370a36d30bfa807bc7e43c"},{"rt":11996,"response":{"prior knowledge":4,"curiosity":4},"accuracy":[],"trial_type":"survey","trial_index":35,"time_elapsed":450895,"internal_node_id":"0.0-3.0-1.7","prolific_id":"6138c15bd47ecca8b56a704f","session_id":"643c1e451a90a9db7885323e","study_id":"64370a36d30bfa807bc7e43c"},{"rt":null,"stimulus":"\n\t\t\t<div class=\"flip_card\">\n\t\t\t\t<div class=\"flip_card_inner\">\n\t\t\t\t\t<div class=\"flip_card_front\">\n\t\t\t\t\t\t<img src=img/10.png>\n\t\t\t\t\t</div>\n\t\t\t\t\t<div class=\"flip_card_back\">\n\t\t\t\t\t\t<h2>How many countries have territory in the Arctic Circle?</h2>\n\t\t\t\t\t\t<br>\n\t\t\t\t\t\t<p>Answer: <strong>8</strong></p>\n\t\t\t\t\t</div>\n\t\t\t\t</div>\n\t\t\t</div>\n\t\t\t","response":null,"trial_type":"html-keyboard-response","trial_index":36,"time_elapsed":455898,"internal_node_id":"0.0-3.0-2.7","prolific_id":"6138c15bd47ecca8b56a704f","session_id":"643c1e451a90a9db7885323e","study_id":"64370a36d30bfa807bc7e43c"},{"rt":896,"stimulus":"\n\t\t\t\t\t<div>\n\t\t\t\t\t<h2>Trial 8 is over</h2>\n\t\t\t\t\t<p>Press <span style=\"color: red\"><strong>any key</strong></span> to continue to the next trial</p>\n\t\t\t\t\t</div>\n\t\t\t\t","response":"j","trial_type":"html-keyboard-response","trial_index":37,"time_elapsed":456796,"internal_node_id":"0.0-3.0-3.7","prolific_id":"6138c15bd47ecca8b56a704f","session_id":"643c1e451a90a9db7885323e","study_id":"64370a36d30bfa807bc7e43c"},{"rt":24264,"response":{"prediction":"50"},"trial_type":"survey-text","trial_index":38,"time_elapsed":481070,"internal_node_id":"0.0-3.0-0.8","prolific_id":"6138c15bd47ecca8b56a704f","session_id":"643c1e451a90a9db7885323e","study_id":"64370a36d30bfa807bc7e43c"},{"rt":2288,"response":{"prior knowledge":4,"curiosity":4},"accuracy":[],"trial_type":"survey","trial_index":39,"time_elapsed":483371,"internal_node_id":"0.0-3.0-1.8","prolific_id":"6138c15bd47ecca8b56a704f","session_id":"643c1e451a90a9db7885323e","study_id":"64370a36d30bfa807bc7e43c"},{"rt":null,"stimulus":"\n\t\t\t<div class=\"flip_card\">\n\t\t\t\t<div class=\"flip_card_inner\">\n\t\t\t\t\t<div class=\"flip_card_front\">\n\t\t\t\t\t\t<img src=img/18.png>\n\t\t\t\t\t</div>\n\t\t\t\t\t<div class=\"flip_card_back\">\n\t\t\t\t\t\t<h2>How many constellations are there?</h2>\n\t\t\t\t\t\t<br>\n\t\t\t\t\t\t<p>Answer: <strong>88</strong></p>\n\t\t\t\t\t</div>\n\t\t\t\t</div>\n\t\t\t</div>\n\t\t\t","response":null,"trial_type":"html-keyboard-response","trial_index":40,"time_elapsed":488386,"internal_node_id":"0.0-3.0-2.8","prolific_id":"6138c15bd47ecca8b56a704f","session_id":"643c1e451a90a9db7885323e","study_id":"64370a36d30bfa807bc7e43c"},{"rt":692,"stimulus":"\n\t\t\t\t\t<div>\n\t\t\t\t\t<h2>Trial 9 is over</h2>\n\t\t\t\t\t<p>Press <span style=\"color: red\"><strong>any key</strong></span> to continue to the next trial</p>\n\t\t\t\t\t</div>\n\t\t\t\t","response":"1","trial_type":"html-keyboard-response","trial_index":41,"time_elapsed":489079,"internal_node_id":"0.0-3.0-3.8","prolific_id":"6138c15bd47ecca8b56a704f","session_id":"643c1e451a90a9db7885323e","study_id":"64370a36d30bfa807bc7e43c"},{"rt":8872,"response":{"prediction":"73"},"trial_type":"survey-text","trial_index":42,"time_elapsed":497990,"internal_node_id":"0.0-3.0-0.9","prolific_id":"6138c15bd47ecca8b56a704f","session_id":"643c1e451a90a9db7885323e","study_id":"64370a36d30bfa807bc7e43c"},{"rt":2856,"response":{"prior knowledge":4,"curiosity":5},"accuracy":[],"trial_type":"survey","trial_index":43,"time_elapsed":500856,"internal_node_id":"0.0-3.0-1.9","prolific_id":"6138c15bd47ecca8b56a704f","session_id":"643c1e451a90a9db7885323e","study_id":"64370a36d30bfa807bc7e43c"},{"rt":null,"stimulus":"\n\t\t\t<div class=\"flip_card\">\n\t\t\t\t<div class=\"flip_card_inner\">\n\t\t\t\t\t<div class=\"flip_card_front\">\n\t\t\t\t\t\t<img src=img/5.png>\n\t\t\t\t\t</div>\n\t\t\t\t\t<div class=\"flip_card_back\">\n\t\t\t\t\t\t<h2>How many books are in the Catholic Bible?</h2>\n\t\t\t\t\t\t<br>\n\t\t\t\t\t\t<p>Answer: <strong>73</strong></p>\n\t\t\t\t\t</div>\n\t\t\t\t</div>\n\t\t\t</div>\n\t\t\t","response":null,"trial_type":"html-keyboard-response","trial_index":44,"time_elapsed":505861,"internal_node_id":"0.0-3.0-2.9","prolific_id":"6138c15bd47ecca8b56a704f","session_id":"643c1e451a90a9db7885323e","study_id":"64370a36d30bfa807bc7e43c"},{"rt":579,"stimulus":"\n\t\t\t\t\t<div>\n\t\t\t\t\t<h2>Trial 10 is over</h2>\n\t\t\t\t\t<p>Press <span style=\"color: red\"><strong>any key</strong></span> to continue to the next trial</p>\n\t\t\t\t\t</div>\n\t\t\t\t","response":"4","trial_type":"html-keyboard-response","trial_index":45,"time_elapsed":506442,"internal_node_id":"0.0-3.0-3.9","prolific_id":"6138c15bd47ecca8b56a704f","session_id":"643c1e451a90a9db7885323e","study_id":"64370a36d30bfa807bc7e43c"},{"rt":17286,"response":{"prediction":"50"},"trial_type":"survey-text","trial_index":46,"time_elapsed":523733,"internal_node_id":"0.0-3.0-0.10","prolific_id":"6138c15bd47ecca8b56a704f","session_id":"643c1e451a90a9db7885323e","study_id":"64370a36d30bfa807bc7e43c"},{"rt":2275,"response":{"prior knowledge":4,"curiosity":3},"accuracy":[],"trial_type":"survey","trial_index":47,"time_elapsed":526023,"internal_node_id":"0.0-3.0-1.10","prolific_id":"6138c15bd47ecca8b56a704f","session_id":"643c1e451a90a9db7885323e","study_id":"64370a36d30bfa807bc7e43c"},{"rt":null,"stimulus":"\n\t\t\t<div class=\"flip_card\">\n\t\t\t\t<div class=\"flip_card_inner\">\n\t\t\t\t\t<div class=\"flip_card_front\">\n\t\t\t\t\t\t<img src=img/22.png>\n\t\t\t\t\t</div>\n\t\t\t\t\t<div class=\"flip_card_back\">\n\t\t\t\t\t\t<h2>How many books has Stephen King published?</h2>\n\t\t\t\t\t\t<br>\n\t\t\t\t\t\t<p>Answer: <strong>65</strong></p>\n\t\t\t\t\t</div>\n\t\t\t\t</div>\n\t\t\t</div>\n\t\t\t","response":null,"trial_type":"html-keyboard-response","trial_index":48,"time_elapsed":531027,"internal_node_id":"0.0-3.0-2.10","prolific_id":"6138c15bd47ecca8b56a704f","session_id":"643c1e451a90a9db7885323e","study_id":"64370a36d30bfa807bc7e43c"},{"rt":417,"stimulus":"\n\t\t\t\t\t<div>\n\t\t\t\t\t<h2>Trial 11 is over</h2>\n\t\t\t\t\t<p>Press <span style=\"color: red\"><strong>any key</strong></span> to continue to the next trial</p>\n\t\t\t\t\t</div>\n\t\t\t\t","response":"5","trial_type":"html-keyboard-response","trial_index":49,"time_elapsed":531445,"internal_node_id":"0.0-3.0-3.10","prolific_id":"6138c15bd47ecca8b56a704f","session_id":"643c1e451a90a9db7885323e","study_id":"64370a36d30bfa807bc7e43c"},{"rt":14333,"response":{"prediction":"19"},"trial_type":"survey-text","trial_index":50,"time_elapsed":545789,"internal_node_id":"0.0-3.0-0.11","prolific_id":"6138c15bd47ecca8b56a704f","session_id":"643c1e451a90a9db7885323e","study_id":"64370a36d30bfa807bc7e43c"},{"rt":4507,"response":{"prior knowledge":3,"curiosity":4},"accuracy":[],"trial_type":"survey","trial_index":51,"time_elapsed":550308,"internal_node_id":"0.0-3.0-1.11","prolific_id":"6138c15bd47ecca8b56a704f","session_id":"643c1e451a90a9db7885323e","study_id":"64370a36d30bfa807bc7e43c"},{"rt":null,"stimulus":"\n\t\t\t<div class=\"flip_card\">\n\t\t\t\t<div class=\"flip_card_inner\">\n\t\t\t\t\t<div class=\"flip_card_front\">\n\t\t\t\t\t\t<img src=img/14.png>\n\t\t\t\t\t</div>\n\t\t\t\t\t<div class=\"flip_card_back\">\n\t\t\t\t\t\t<h2>How old was King Tut when he died?</h2>\n\t\t\t\t\t\t<br>\n\t\t\t\t\t\t<p>Answer: <strong>19</strong></p>\n\t\t\t\t\t</div>\n\t\t\t\t</div>\n\t\t\t</div>\n\t\t\t","response":null,"trial_type":"html-keyboard-response","trial_index":52,"time_elapsed":555326,"internal_node_id":"0.0-3.0-2.11","prolific_id":"6138c15bd47ecca8b56a704f","session_id":"643c1e451a90a9db7885323e","study_id":"64370a36d30bfa807bc7e43c"},{"rt":2069,"stimulus":"\n\t\t\t\t\t<div>\n\t\t\t\t\t<h2>Trial 12 is over</h2>\n\t\t\t\t\t<p>Press <span style=\"color: red\"><strong>any key</strong></span> to continue to the next trial</p>\n\t\t\t\t\t</div>\n\t\t\t\t","response":"m","trial_type":"html-keyboard-response","trial_index":53,"time_elapsed":557397,"internal_node_id":"0.0-3.0-3.11","prolific_id":"6138c15bd47ecca8b56a704f","session_id":"643c1e451a90a9db7885323e","study_id":"64370a36d30bfa807bc7e43c"},{"rt":33061,"response":{"prediction":"8800000"},"trial_type":"survey-text","trial_index":54,"time_elapsed":590512,"internal_node_id":"0.0-3.0-0.12","prolific_id":"6138c15bd47ecca8b56a704f","session_id":"643c1e451a90a9db7885323e","study_id":"64370a36d30bfa807bc7e43c"},{"rt":4440,"response":{"prior knowledge":3,"curiosity":3},"accuracy":[],"trial_type":"survey","trial_index":55,"time_elapsed":594961,"internal_node_id":"0.0-3.0-1.12","prolific_id":"6138c15bd47ecca8b56a704f","session_id":"643c1e451a90a9db7885323e","study_id":"64370a36d30bfa807bc7e43c"},{"rt":null,"stimulus":"\n\t\t\t<div class=\"flip_card\">\n\t\t\t\t<div class=\"flip_card_inner\">\n\t\t\t\t\t<div class=\"flip_card_front\">\n\t\t\t\t\t\t<img src=img/3.png>\n\t\t\t\t\t</div>\n\t\t\t\t\t<div class=\"flip_card_back\">\n\t\t\t\t\t\t<h2>How many people are vegan globally (in millions)?</h2>\n\t\t\t\t\t\t<br>\n\t\t\t\t\t\t<p>Answer: <strong>79</strong></p>\n\t\t\t\t\t</div>\n\t\t\t\t</div>\n\t\t\t</div>\n\t\t\t","response":null,"trial_type":"html-keyboard-response","trial_index":56,"time_elapsed":599978,"internal_node_id":"0.0-3.0-2.12","prolific_id":"6138c15bd47ecca8b56a704f","session_id":"643c1e451a90a9db7885323e","study_id":"64370a36d30bfa807bc7e43c"},{"rt":2917,"stimulus":"\n\t\t\t\t\t<div>\n\t\t\t\t\t<h2>Trial 13 is over</h2>\n\t\t\t\t\t<p>Press <span style=\"color: red\"><strong>any key</strong></span> to continue to the next trial</p>\n\t\t\t\t\t</div>\n\t\t\t\t","response":"2","trial_type":"html-keyboard-response","trial_index":57,"time_elapsed":602896,"internal_node_id":"0.0-3.0-3.12","prolific_id":"6138c15bd47ecca8b56a704f","session_id":"643c1e451a90a9db7885323e","study_id":"64370a36d30bfa807bc7e43c"},{"rt":9202,"response":{"prediction":"54"},"trial_type":"survey-text","trial_index":58,"time_elapsed":612109,"internal_node_id":"0.0-3.0-0.13","prolific_id":"6138c15bd47ecca8b56a704f","session_id":"643c1e451a90a9db7885323e","study_id":"64370a36d30bfa807bc7e43c"},{"rt":2342,"response":{"prior knowledge":4,"curiosity":5},"accuracy":[],"trial_type":"survey","trial_index":59,"time_elapsed":614465,"internal_node_id":"0.0-3.0-1.13","prolific_id":"6138c15bd47ecca8b56a704f","session_id":"643c1e451a90a9db7885323e","study_id":"64370a36d30bfa807bc7e43c"},{"rt":null,"stimulus":"\n\t\t\t<div class=\"flip_card\">\n\t\t\t\t<div class=\"flip_card_inner\">\n\t\t\t\t\t<div class=\"flip_card_front\">\n\t\t\t\t\t\t<img src=img/12.png>\n\t\t\t\t\t</div>\n\t\t\t\t\t<div class=\"flip_card_back\">\n\t\t\t\t\t\t<h2>How many countries are in Africa?</h2>\n\t\t\t\t\t\t<br>\n\t\t\t\t\t\t<p>Answer: <strong>54</strong></p>\n\t\t\t\t\t</div>\n\t\t\t\t</div>\n\t\t\t</div>\n\t\t\t","response":null,"trial_type":"html-keyboard-response","trial_index":60,"time_elapsed":619481,"internal_node_id":"0.0-3.0-2.13","prolific_id":"6138c15bd47ecca8b56a704f","session_id":"643c1e451a90a9db7885323e","study_id":"64370a36d30bfa807bc7e43c"},{"rt":24,"stimulus":"\n\t\t\t\t\t<div>\n\t\t\t\t\t<h2>Trial 14 is over</h2>\n\t\t\t\t\t<p>Press <span style=\"color: red\"><strong>any key</strong></span> to continue to the next trial</p>\n\t\t\t\t\t</div>\n\t\t\t\t","response":"4","trial_type":"html-keyboard-response","trial_index":61,"time_elapsed":619505,"internal_node_id":"0.0-3.0-3.13","prolific_id":"6138c15bd47ecca8b56a704f","session_id":"643c1e451a90a9db7885323e","study_id":"64370a36d30bfa807bc7e43c"},{"rt":23818,"response":{"prediction":"7917"},"trial_type":"survey-text","trial_index":62,"time_elapsed":643341,"internal_node_id":"0.0-3.0-0.14","prolific_id":"6138c15bd47ecca8b56a704f","session_id":"643c1e451a90a9db7885323e","study_id":"64370a36d30bfa807bc7e43c"},{"rt":4378,"response":{"prior knowledge":4,"curiosity":4},"accuracy":[],"trial_type":"survey","trial_index":63,"time_elapsed":647735,"internal_node_id":"0.0-3.0-1.14","prolific_id":"6138c15bd47ecca8b56a704f","session_id":"643c1e451a90a9db7885323e","study_id":"64370a36d30bfa807bc7e43c"},{"rt":null,"stimulus":"\n\t\t\t<div class=\"flip_card\">\n\t\t\t\t<div class=\"flip_card_inner\">\n\t\t\t\t\t<div class=\"flip_card_front\">\n\t\t\t\t\t\t<img src=img/13.png>\n\t\t\t\t\t</div>\n\t\t\t\t\t<div class=\"flip_card_back\">\n\t\t\t\t\t\t<h2>What is the diameter of Earth in miles?</h2>\n\t\t\t\t\t\t<br>\n\t\t\t\t\t\t<p>Answer: <strong>7917.5</strong></p>\n\t\t\t\t\t</div>\n\t\t\t\t</div>\n\t\t\t</div>\n\t\t\t","response":null,"trial_type":"html-keyboard-response","trial_index":64,"time_elapsed":652737,"internal_node_id":"0.0-3.0-2.14","prolific_id":"6138c15bd47ecca8b56a704f","session_id":"643c1e451a90a9db7885323e","study_id":"64370a36d30bfa807bc7e43c"},{"rt":296,"stimulus":"\n\t\t\t\t\t<div>\n\t\t\t\t\t<h2>Trial 15 is over</h2>\n\t\t\t\t\t<p>Press <span style=\"color: red\"><strong>any key</strong></span> to continue to the next trial</p>\n\t\t\t\t\t</div>\n\t\t\t\t","response":"3","trial_type":"html-keyboard-response","trial_index":65,"time_elapsed":653033,"internal_node_id":"0.0-3.0-3.14","prolific_id":"6138c15bd47ecca8b56a704f","session_id":"643c1e451a90a9db7885323e","study_id":"64370a36d30bfa807bc7e43c"},{"rt":13810,"response":{"prediction":"13"},"trial_type":"survey-text","trial_index":66,"time_elapsed":666852,"internal_node_id":"0.0-3.0-0.15","prolific_id":"6138c15bd47ecca8b56a704f","session_id":"643c1e451a90a9db7885323e","study_id":"64370a36d30bfa807bc7e43c"},{"rt":2543,"response":{"prior knowledge":4,"curiosity":3},"accuracy":[],"trial_type":"survey","trial_index":67,"time_elapsed":669408,"internal_node_id":"0.0-3.0-1.15","prolific_id":"6138c15bd47ecca8b56a704f","session_id":"643c1e451a90a9db7885323e","study_id":"64370a36d30bfa807bc7e43c"},{"rt":null,"stimulus":"\n\t\t\t<div class=\"flip_card\">\n\t\t\t\t<div class=\"flip_card_inner\">\n\t\t\t\t\t<div class=\"flip_card_front\">\n\t\t\t\t\t\t<img src=img/4.png>\n\t\t\t\t\t</div>\n\t\t\t\t\t<div class=\"flip_card_back\">\n\t\t\t\t\t\t<h2>How much is in a Baker's Dozen?</h2>\n\t\t\t\t\t\t<br>\n\t\t\t\t\t\t<p>Answer: <strong>13</strong></p>\n\t\t\t\t\t</div>\n\t\t\t\t</div>\n\t\t\t</div>\n\t\t\t","response":null,"trial_type":"html-keyboard-response","trial_index":68,"time_elapsed":674413,"internal_node_id":"0.0-3.0-2.15","prolific_id":"6138c15bd47ecca8b56a704f","session_id":"643c1e451a90a9db7885323e","study_id":"64370a36d30bfa807bc7e43c"},{"rt":815,"stimulus":"\n\t\t\t\t\t<div>\n\t\t\t\t\t<h2>Trial 16 is over</h2>\n\t\t\t\t\t<p>Press <span style=\"color: red\"><strong>any key</strong></span> to continue to the next trial</p>\n\t\t\t\t\t</div>\n\t\t\t\t","response":"3","trial_type":"html-keyboard-response","trial_index":69,"time_elapsed":675229,"internal_node_id":"0.0-3.0-3.15","prolific_id":"6138c15bd47ecca8b56a704f","session_id":"643c1e451a90a9db7885323e","study_id":"64370a36d30bfa807bc7e43c"},{"rt":13920,"response":{"prediction":"13171"},"trial_type":"survey-text","trial_index":70,"time_elapsed":689158,"internal_node_id":"0.0-3.0-0.16","prolific_id":"6138c15bd47ecca8b56a704f","session_id":"643c1e451a90a9db7885323e","study_id":"64370a36d30bfa807bc7e43c"},{"rt":3743,"response":{"prior knowledge":4,"curiosity":4},"accuracy":[],"trial_type":"survey","trial_index":71,"time_elapsed":692910,"internal_node_id":"0.0-3.0-1.16","prolific_id":"6138c15bd47ecca8b56a704f","session_id":"643c1e451a90a9db7885323e","study_id":"64370a36d30bfa807bc7e43c"},{"rt":null,"stimulus":"\n\t\t\t<div class=\"flip_card\">\n\t\t\t\t<div class=\"flip_card_inner\">\n\t\t\t\t\t<div class=\"flip_card_front\">\n\t\t\t\t\t\t<img src=img/23.png>\n\t\t\t\t\t</div>\n\t\t\t\t\t<div class=\"flip_card_back\">\n\t\t\t\t\t\t<h2>How long is the Great Wall of China (in miles)?</h2>\n\t\t\t\t\t\t<br>\n\t\t\t\t\t\t<p>Answer: <strong>13171</strong></p>\n\t\t\t\t\t</div>\n\t\t\t\t</div>\n\t\t\t</div>\n\t\t\t","response":null,"trial_type":"html-keyboard-response","trial_index":72,"time_elapsed":697917,"internal_node_id":"0.0-3.0-2.16","prolific_id":"6138c15bd47ecca8b56a704f","session_id":"643c1e451a90a9db7885323e","study_id":"64370a36d30bfa807bc7e43c"},{"rt":791,"stimulus":"\n\t\t\t\t\t<div>\n\t\t\t\t\t<h2>Trial 17 is over</h2>\n\t\t\t\t\t<p>Press <span style=\"color: red\"><strong>any key</strong></span> to continue to the next trial</p>\n\t\t\t\t\t</div>\n\t\t\t\t","response":"4","trial_type":"html-keyboard-response","trial_index":73,"time_elapsed":698709,"internal_node_id":"0.0-3.0-3.16","prolific_id":"6138c15bd47ecca8b56a704f","session_id":"643c1e451a90a9db7885323e","study_id":"64370a36d30bfa807bc7e43c"},{"rt":9471,"response":{"prediction":"8"},"trial_type":"survey-text","trial_index":74,"time_elapsed":708190,"internal_node_id":"0.0-3.0-0.17","prolific_id":"6138c15bd47ecca8b56a704f","session_id":"643c1e451a90a9db7885323e","study_id":"64370a36d30bfa807bc7e43c"},{"rt":2678,"response":{"prior knowledge":3,"curiosity":4},"accuracy":[],"trial_type":"survey","trial_index":75,"time_elapsed":710878,"internal_node_id":"0.0-3.0-1.17","prolific_id":"6138c15bd47ecca8b56a704f","session_id":"643c1e451a90a9db7885323e","study_id":"64370a36d30bfa807bc7e43c"},{"rt":null,"stimulus":"\n\t\t\t<div class=\"flip_card\">\n\t\t\t\t<div class=\"flip_card_inner\">\n\t\t\t\t\t<div class=\"flip_card_front\">\n\t\t\t\t\t\t<img src=img/24.png>\n\t\t\t\t\t</div>\n\t\t\t\t\t<div class=\"flip_card_back\">\n\t\t\t\t\t\t<h2>How many lines are in a sonnet?</h2>\n\t\t\t\t\t\t<br>\n\t\t\t\t\t\t<p>Answer: <strong>14</strong></p>\n\t\t\t\t\t</div>\n\t\t\t\t</div>\n\t\t\t</div>\n\t\t\t","response":null,"trial_type":"html-keyboard-response","trial_index":76,"time_elapsed":715888,"internal_node_id":"0.0-3.0-2.17","prolific_id":"6138c15bd47ecca8b56a704f","session_id":"643c1e451a90a9db7885323e","study_id":"64370a36d30bfa807bc7e43c"},{"rt":1074,"stimulus":"\n\t\t\t\t\t<div>\n\t\t\t\t\t<h2>Trial 18 is over</h2>\n\t\t\t\t\t<p>Press <span style=\"color: red\"><strong>any key</strong></span> to continue to the next trial</p>\n\t\t\t\t\t</div>\n\t\t\t\t","response":"2","trial_type":"html-keyboard-response","trial_index":77,"time_elapsed":716962,"internal_node_id":"0.0-3.0-3.17","prolific_id":"6138c15bd47ecca8b56a704f","session_id":"643c1e451a90a9db7885323e","study_id":"64370a36d30bfa807bc7e43c"},{"rt":24026,"response":{"prediction":"29"},"trial_type":"survey-text","trial_index":78,"time_elapsed":740998,"internal_node_id":"0.0-3.0-0.18","prolific_id":"6138c15bd47ecca8b56a704f","session_id":"643c1e451a90a9db7885323e","study_id":"64370a36d30bfa807bc7e43c"},{"rt":2710,"response":{"prior knowledge":4,"curiosity":4},"accuracy":[],"trial_type":"survey","trial_index":79,"time_elapsed":743719,"internal_node_id":"0.0-3.0-1.18","prolific_id":"6138c15bd47ecca8b56a704f","session_id":"643c1e451a90a9db7885323e","study_id":"64370a36d30bfa807bc7e43c"},{"rt":null,"stimulus":"\n\t\t\t<div class=\"flip_card\">\n\t\t\t\t<div class=\"flip_card_inner\">\n\t\t\t\t\t<div class=\"flip_card_front\">\n\t\t\t\t\t\t<img src=img/19.png>\n\t\t\t\t\t</div>\n\t\t\t\t\t<div class=\"flip_card_back\">\n\t\t\t\t\t\t<h2>How many countries in Africa have French as the official language?</h2>\n\t\t\t\t\t\t<br>\n\t\t\t\t\t\t<p>Answer: <strong>21</strong></p>\n\t\t\t\t\t</div>\n\t\t\t\t</div>\n\t\t\t</div>\n\t\t\t","response":null,"trial_type":"html-keyboard-response","trial_index":80,"time_elapsed":748734,"internal_node_id":"0.0-3.0-2.18","prolific_id":"6138c15bd47ecca8b56a704f","session_id":"643c1e451a90a9db7885323e","study_id":"64370a36d30bfa807bc7e43c"},{"rt":490,"stimulus":"\n\t\t\t\t\t<div>\n\t\t\t\t\t<h2>Trial 19 is over</h2>\n\t\t\t\t\t<p>Press <span style=\"color: red\"><strong>any key</strong></span> to continue to the next trial</p>\n\t\t\t\t\t</div>\n\t\t\t\t","response":"3","trial_type":"html-keyboard-response","trial_index":81,"time_elapsed":749224,"internal_node_id":"0.0-3.0-3.18","prolific_id":"6138c15bd47ecca8b56a704f","session_id":"643c1e451a90a9db7885323e","study_id":"64370a36d30bfa807bc7e43c"},{"rt":12901,"response":{"prediction":"1931"},"trial_type":"survey-text","trial_index":82,"time_elapsed":762141,"internal_node_id":"0.0-3.0-0.19","prolific_id":"6138c15bd47ecca8b56a704f","session_id":"643c1e451a90a9db7885323e","study_id":"64370a36d30bfa807bc7e43c"},{"rt":3226,"response":{"prior knowledge":3,"curiosity":2},"accuracy":[],"trial_type":"survey","trial_index":83,"time_elapsed":765377,"internal_node_id":"0.0-3.0-1.19","prolific_id":"6138c15bd47ecca8b56a704f","session_id":"643c1e451a90a9db7885323e","study_id":"64370a36d30bfa807bc7e43c"},{"rt":null,"stimulus":"\n\t\t\t<div class=\"flip_card\">\n\t\t\t\t<div class=\"flip_card_inner\">\n\t\t\t\t\t<div class=\"flip_card_front\">\n\t\t\t\t\t\t<img src=img/8.png>\n\t\t\t\t\t</div>\n\t\t\t\t\t<div class=\"flip_card_back\">\n\t\t\t\t\t\t<h2>In what year was the Mexican artist Frida Kahlo born?</h2>\n\t\t\t\t\t\t<br>\n\t\t\t\t\t\t<p>Answer: <strong>1907</strong></p>\n\t\t\t\t\t</div>\n\t\t\t\t</div>\n\t\t\t</div>\n\t\t\t","response":null,"trial_type":"html-keyboard-response","trial_index":84,"time_elapsed":770385,"internal_node_id":"0.0-3.0-2.19","prolific_id":"6138c15bd47ecca8b56a704f","session_id":"643c1e451a90a9db7885323e","study_id":"64370a36d30bfa807bc7e43c"},{"rt":1398,"stimulus":"\n\t\t\t\t\t<div>\n\t\t\t\t\t<h2>Trial 20 is over</h2>\n\t\t\t\t\t<p>Press <span style=\"color: red\"><strong>any key</strong></span> to continue to the next trial</p>\n\t\t\t\t\t</div>\n\t\t\t\t","response":"4","trial_type":"html-keyboard-response","trial_index":85,"time_elapsed":771784,"internal_node_id":"0.0-3.0-3.19","prolific_id":"6138c15bd47ecca8b56a704f","session_id":"643c1e451a90a9db7885323e","study_id":"64370a36d30bfa807bc7e43c"},{"rt":9589,"response":{"prediction":"4"},"trial_type":"survey-text","trial_index":86,"time_elapsed":781382,"internal_node_id":"0.0-3.0-0.20","prolific_id":"6138c15bd47ecca8b56a704f","session_id":"643c1e451a90a9db7885323e","study_id":"64370a36d30bfa807bc7e43c"},{"rt":3824,"response":{"prior knowledge":2,"curiosity":2},"accuracy":[],"trial_type":"survey","trial_index":87,"time_elapsed":785214,"internal_node_id":"0.0-3.0-1.20","prolific_id":"6138c15bd47ecca8b56a704f","session_id":"643c1e451a90a9db7885323e","study_id":"64370a36d30bfa807bc7e43c"},{"rt":null,"stimulus":"\n\t\t\t<div class=\"flip_card\">\n\t\t\t\t<div class=\"flip_card_inner\">\n\t\t\t\t\t<div class=\"flip_card_front\">\n\t\t\t\t\t\t<img src=img/20.png>\n\t\t\t\t\t</div>\n\t\t\t\t\t<div class=\"flip_card_back\">\n\t\t\t\t\t\t<h2>How many tones are in the Vietnamese language?</h2>\n\t\t\t\t\t\t<br>\n\t\t\t\t\t\t<p>Answer: <strong>6</strong></p>\n\t\t\t\t\t</div>\n\t\t\t\t</div>\n\t\t\t</div>\n\t\t\t","response":null,"trial_type":"html-keyboard-response","trial_index":88,"time_elapsed":790232,"internal_node_id":"0.0-3.0-2.20","prolific_id":"6138c15bd47ecca8b56a704f","session_id":"643c1e451a90a9db7885323e","study_id":"64370a36d30bfa807bc7e43c"},{"rt":2625,"stimulus":"\n\t\t\t\t\t<div>\n\t\t\t\t\t<h2>Trial 21 is over</h2>\n\t\t\t\t\t<p>Press <span style=\"color: red\"><strong>any key</strong></span> to continue to the next trial</p>\n\t\t\t\t\t</div>\n\t\t\t\t","response":"1","trial_type":"html-keyboard-response","trial_index":89,"time_elapsed":792858,"internal_node_id":"0.0-3.0-3.20","prolific_id":"6138c15bd47ecca8b56a704f","session_id":"643c1e451a90a9db7885323e","study_id":"64370a36d30bfa807bc7e43c"},{"rt":10960,"response":{"prediction":"1912"},"trial_type":"survey-text","trial_index":90,"time_elapsed":803829,"internal_node_id":"0.0-3.0-0.21","prolific_id":"6138c15bd47ecca8b56a704f","session_id":"643c1e451a90a9db7885323e","study_id":"64370a36d30bfa807bc7e43c"},{"rt":3538,"response":{"prior knowledge":5,"curiosity":3},"accuracy":[],"trial_type":"survey","trial_index":91,"time_elapsed":807374,"internal_node_id":"0.0-3.0-1.21","prolific_id":"6138c15bd47ecca8b56a704f","session_id":"643c1e451a90a9db7885323e","study_id":"64370a36d30bfa807bc7e43c"},{"rt":null,"stimulus":"\n\t\t\t<div class=\"flip_card\">\n\t\t\t\t<div class=\"flip_card_inner\">\n\t\t\t\t\t<div class=\"flip_card_front\">\n\t\t\t\t\t\t<img src=img/21.png>\n\t\t\t\t\t</div>\n\t\t\t\t\t<div class=\"flip_card_back\">\n\t\t\t\t\t\t<h2>What year did the titanic sink?</h2>\n\t\t\t\t\t\t<br>\n\t\t\t\t\t\t<p>Answer: <strong>1912</strong></p>\n\t\t\t\t\t</div>\n\t\t\t\t</div>\n\t\t\t</div>\n\t\t\t","response":null,"trial_type":"html-keyboard-response","trial_index":92,"time_elapsed":812389,"internal_node_id":"0.0-3.0-2.21","prolific_id":"6138c15bd47ecca8b56a704f","session_id":"643c1e451a90a9db7885323e","study_id":"64370a36d30bfa807bc7e43c"},{"rt":47,"stimulus":"\n\t\t\t\t\t<div>\n\t\t\t\t\t<h2>Trial 22 is over</h2>\n\t\t\t\t\t<p>Press <span style=\"color: red\"><strong>any key</strong></span> to continue to the next trial</p>\n\t\t\t\t\t</div>\n\t\t\t\t","response":".","trial_type":"html-keyboard-response","trial_index":93,"time_elapsed":812437,"internal_node_id":"0.0-3.0-3.21","prolific_id":"6138c15bd47ecca8b56a704f","session_id":"643c1e451a90a9db7885323e","study_id":"64370a36d30bfa807bc7e43c"},{"rt":9689,"response":{"prediction":"1901"},"trial_type":"survey-text","trial_index":94,"time_elapsed":822142,"internal_node_id":"0.0-3.0-0.22","prolific_id":"6138c15bd47ecca8b56a704f","session_id":"643c1e451a90a9db7885323e","study_id":"64370a36d30bfa807bc7e43c"},{"rt":5312,"response":{"prior knowledge":4,"curiosity":5},"accuracy":[],"trial_type":"survey","trial_index":95,"time_elapsed":827463,"internal_node_id":"0.0-3.0-1.22","prolific_id":"6138c15bd47ecca8b56a704f","session_id":"643c1e451a90a9db7885323e","study_id":"64370a36d30bfa807bc7e43c"},{"rt":null,"stimulus":"\n\t\t\t<div class=\"flip_card\">\n\t\t\t\t<div class=\"flip_card_inner\">\n\t\t\t\t\t<div class=\"flip_card_front\">\n\t\t\t\t\t\t<img src=img/2.png>\n\t\t\t\t\t</div>\n\t\t\t\t\t<div class=\"flip_card_back\">\n\t\t\t\t\t\t<h2>In what year was the first Nobel Prize awarded?</h2>\n\t\t\t\t\t\t<br>\n\t\t\t\t\t\t<p>Answer: <strong>1901</strong></p>\n\t\t\t\t\t</div>\n\t\t\t\t</div>\n\t\t\t</div>\n\t\t\t","response":null,"trial_type":"html-keyboard-response","trial_index":96,"time_elapsed":832472,"internal_node_id":"0.0-3.0-2.22","prolific_id":"6138c15bd47ecca8b56a704f","session_id":"643c1e451a90a9db7885323e","study_id":"64370a36d30bfa807bc7e43c"},{"rt":449,"stimulus":"\n\t\t\t\t\t<div>\n\t\t\t\t\t<h2>Trial 23 is over</h2>\n\t\t\t\t\t<p>Press <span style=\"color: red\"><strong>any key</strong></span> to continue to the next trial</p>\n\t\t\t\t\t</div>\n\t\t\t\t","response":"m","trial_type":"html-keyboard-response","trial_index":97,"time_elapsed":832920,"internal_node_id":"0.0-3.0-3.22","prolific_id":"6138c15bd47ecca8b56a704f","session_id":"643c1e451a90a9db7885323e","study_id":"64370a36d30bfa807bc7e43c"},{"rt":9650,"response":{"prediction":"14"},"trial_type":"survey-text","trial_index":98,"time_elapsed":842582,"internal_node_id":"0.0-3.0-0.23","prolific_id":"6138c15bd47ecca8b56a704f","session_id":"643c1e451a90a9db7885323e","study_id":"64370a36d30bfa807bc7e43c"},{"rt":2684,"response":{"prior knowledge":4,"curiosity":5},"accuracy":[],"trial_type":"survey","trial_index":99,"time_elapsed":845273,"internal_node_id":"0.0-3.0-1.23","prolific_id":"6138c15bd47ecca8b56a704f","session_id":"643c1e451a90a9db7885323e","study_id":"64370a36d30bfa807bc7e43c"},{"rt":null,"stimulus":"\n\t\t\t<div class=\"flip_card\">\n\t\t\t\t<div class=\"flip_card_inner\">\n\t\t\t\t\t<div class=\"flip_card_front\">\n\t\t\t\t\t\t<img src=img/11.png>\n\t\t\t\t\t</div>\n\t\t\t\t\t<div class=\"flip_card_back\">\n\t\t\t\t\t\t<h2>How many moons does Neptune have?</h2>\n\t\t\t\t\t\t<br>\n\t\t\t\t\t\t<p>Answer: <strong>14</strong></p>\n\t\t\t\t\t</div>\n\t\t\t\t</div>\n\t\t\t</div>\n\t\t\t","response":null,"trial_type":"html-keyboard-response","trial_index":100,"time_elapsed":850280,"internal_node_id":"0.0-3.0-2.23","prolific_id":"6138c15bd47ecca8b56a704f","session_id":"643c1e451a90a9db7885323e","study_id":"64370a36d30bfa807bc7e43c"},{"rt":283,"stimulus":"\n\t\t\t\t\t<div>\n\t\t\t\t\t<h2>Trial 24 is over</h2>\n\t\t\t\t\t<p>Press <span style=\"color: red\"><strong>any key</strong></span> to continue to the next trial</p>\n\t\t\t\t\t</div>\n\t\t\t\t","response":"b","trial_type":"html-keyboard-response","trial_index":101,"time_elapsed":850564,"internal_node_id":"0.0-3.0-3.23","prolific_id":"6138c15bd47ecca8b56a704f","session_id":"643c1e451a90a9db7885323e","study_id":"64370a36d30bfa807bc7e43c"},{"rt":16938,"response":{"prediction":"163"},"trial_type":"survey-text","trial_index":102,"time_elapsed":867509,"internal_node_id":"0.0-3.0-0.24","prolific_id":"6138c15bd47ecca8b56a704f","session_id":"643c1e451a90a9db7885323e","study_id":"64370a36d30bfa807bc7e43c"},{"rt":3150,"response":{"prior knowledge":4,"curiosity":4},"accuracy":[],"trial_type":"survey","trial_index":103,"time_elapsed":870670,"internal_node_id":"0.0-3.0-1.24","prolific_id":"6138c15bd47ecca8b56a704f","session_id":"643c1e451a90a9db7885323e","study_id":"64370a36d30bfa807bc7e43c"},{"rt":null,"stimulus":"\n\t\t\t<div class=\"flip_card\">\n\t\t\t\t<div class=\"flip_card_inner\">\n\t\t\t\t\t<div class=\"flip_card_front\">\n\t\t\t\t\t\t<img src=img/29.png>\n\t\t\t\t\t</div>\n\t\t\t\t\t<div class=\"flip_card_back\">\n\t\t\t\t\t\t<h2>How many floors are in the Burj Khalifa, the tallest building in the world?</h2>\n\t\t\t\t\t\t<br>\n\t\t\t\t\t\t<p>Answer: <strong>163</strong></p>\n\t\t\t\t\t</div>\n\t\t\t\t</div>\n\t\t\t</div>\n\t\t\t","response":null,"trial_type":"html-keyboard-response","trial_index":104,"time_elapsed":875674,"internal_node_id":"0.0-3.0-2.24","prolific_id":"6138c15bd47ecca8b56a704f","session_id":"643c1e451a90a9db7885323e","study_id":"64370a36d30bfa807bc7e43c"},{"rt":7219,"stimulus":"\n\t\t\t\t\t<div>\n\t\t\t\t\t<h2>Trial 25 is over</h2>\n\t\t\t\t\t<p>Press <span style=\"color: red\"><strong>any key</strong></span> to continue to the next trial</p>\n\t\t\t\t\t</div>\n\t\t\t\t","response":"k","trial_type":"html-keyboard-response","trial_index":105,"time_elapsed":882893,"internal_node_id":"0.0-3.0-3.24","prolific_id":"6138c15bd47ecca8b56a704f","session_id":"643c1e451a90a9db7885323e","study_id":"64370a36d30bfa807bc7e43c"},{"rt":14275,"response":{"prediction":"11"},"trial_type":"survey-text","trial_index":106,"time_elapsed":897173,"internal_node_id":"0.0-3.0-0.25","prolific_id":"6138c15bd47ecca8b56a704f","session_id":"643c1e451a90a9db7885323e","study_id":"64370a36d30bfa807bc7e43c"},{"rt":4174,"response":{"prior knowledge":4,"curiosity":4},"accuracy":[],"trial_type":"survey","trial_index":107,"time_elapsed":901354,"internal_node_id":"0.0-3.0-1.25","prolific_id":"6138c15bd47ecca8b56a704f","session_id":"643c1e451a90a9db7885323e","study_id":"64370a36d30bfa807bc7e43c"},{"rt":null,"stimulus":"\n\t\t\t<div class=\"flip_card\">\n\t\t\t\t<div class=\"flip_card_inner\">\n\t\t\t\t\t<div class=\"flip_card_front\">\n\t\t\t\t\t\t<img src=img/9.png>\n\t\t\t\t\t</div>\n\t\t\t\t\t<div class=\"flip_card_back\">\n\t\t\t\t\t\t<h2>How many soccer players should each team have on the field at the start of each match?</h2>\n\t\t\t\t\t\t<br>\n\t\t\t\t\t\t<p>Answer: <strong>11</strong></p>\n\t\t\t\t\t</div>\n\t\t\t\t</div>\n\t\t\t</div>\n\t\t\t","response":null,"trial_type":"html-keyboard-response","trial_index":108,"time_elapsed":906365,"internal_node_id":"0.0-3.0-2.25","prolific_id":"6138c15bd47ecca8b56a704f","session_id":"643c1e451a90a9db7885323e","study_id":"64370a36d30bfa807bc7e43c"},{"rt":463,"stimulus":"\n\t\t\t\t\t<div>\n\t\t\t\t\t<h2>Trial 26 is over</h2>\n\t\t\t\t\t<p>Press <span style=\"color: red\"><strong>any key</strong></span> to continue to the next trial</p>\n\t\t\t\t\t</div>\n\t\t\t\t","response":"h","trial_type":"html-keyboard-response","trial_index":109,"time_elapsed":906828,"internal_node_id":"0.0-3.0-3.25","prolific_id":"6138c15bd47ecca8b56a704f","session_id":"643c1e451a90a9db7885323e","study_id":"64370a36d30bfa807bc7e43c"},{"rt":13364,"response":{"prediction":"5"},"trial_type":"survey-text","trial_index":110,"time_elapsed":920197,"internal_node_id":"0.0-3.0-0.26","prolific_id":"6138c15bd47ecca8b56a704f","session_id":"643c1e451a90a9db7885323e","study_id":"64370a36d30bfa807bc7e43c"},{"rt":2890,"response":{"prior knowledge":3,"curiosity":4},"accuracy":[],"trial_type":"survey","trial_index":111,"time_elapsed":923099,"internal_node_id":"0.0-3.0-1.26","prolific_id":"6138c15bd47ecca8b56a704f","session_id":"643c1e451a90a9db7885323e","study_id":"64370a36d30bfa807bc7e43c"},{"rt":null,"stimulus":"\n\t\t\t<div class=\"flip_card\">\n\t\t\t\t<div class=\"flip_card_inner\">\n\t\t\t\t\t<div class=\"flip_card_front\">\n\t\t\t\t\t\t<img src=img/27.png>\n\t\t\t\t\t</div>\n\t\t\t\t\t<div class=\"flip_card_back\">\n\t\t\t\t\t\t<h2>How many native species of kangaroos are found in Australia?</h2>\n\t\t\t\t\t\t<br>\n\t\t\t\t\t\t<p>Answer: <strong>4</strong></p>\n\t\t\t\t\t</div>\n\t\t\t\t</div>\n\t\t\t</div>\n\t\t\t","response":null,"trial_type":"html-keyboard-response","trial_index":112,"time_elapsed":928107,"internal_node_id":"0.0-3.0-2.26","prolific_id":"6138c15bd47ecca8b56a704f","session_id":"643c1e451a90a9db7885323e","study_id":"64370a36d30bfa807bc7e43c"},{"rt":437,"stimulus":"\n\t\t\t\t\t<div>\n\t\t\t\t\t<h2>Trial 27 is over</h2>\n\t\t\t\t\t<p>Press <span style=\"color: red\"><strong>any key</strong></span> to continue to the next trial</p>\n\t\t\t\t\t</div>\n\t\t\t\t","response":"g","trial_type":"html-keyboard-response","trial_index":113,"time_elapsed":928545,"internal_node_id":"0.0-3.0-3.26","prolific_id":"6138c15bd47ecca8b56a704f","session_id":"643c1e451a90a9db7885323e","study_id":"64370a36d30bfa807bc7e43c"},{"rt":24486,"response":{"prediction":"1896"},"trial_type":"survey-text","trial_index":114,"time_elapsed":953037,"internal_node_id":"0.0-3.0-0.27","prolific_id":"6138c15bd47ecca8b56a704f","session_id":"643c1e451a90a9db7885323e","study_id":"64370a36d30bfa807bc7e43c"},{"rt":3729,"response":{"prior knowledge":2,"curiosity":3},"accuracy":[],"trial_type":"survey","trial_index":115,"time_elapsed":956775,"internal_node_id":"0.0-3.0-1.27","prolific_id":"6138c15bd47ecca8b56a704f","session_id":"643c1e451a90a9db7885323e","study_id":"64370a36d30bfa807bc7e43c"},{"rt":null,"stimulus":"\n\t\t\t<div class=\"flip_card\">\n\t\t\t\t<div class=\"flip_card_inner\">\n\t\t\t\t\t<div class=\"flip_card_front\">\n\t\t\t\t\t\t<img src=img/28.png>\n\t\t\t\t\t</div>\n\t\t\t\t\t<div class=\"flip_card_back\">\n\t\t\t\t\t\t<h2>In what year did the first Modern Olympic Games take place?</h2>\n\t\t\t\t\t\t<br>\n\t\t\t\t\t\t<p>Answer: <strong>1896</strong></p>\n\t\t\t\t\t</div>\n\t\t\t\t</div>\n\t\t\t</div>\n\t\t\t","response":null,"trial_type":"html-keyboard-response","trial_index":116,"time_elapsed":961791,"internal_node_id":"0.0-3.0-2.27","prolific_id":"6138c15bd47ecca8b56a704f","session_id":"643c1e451a90a9db7885323e","study_id":"64370a36d30bfa807bc7e43c"},{"rt":1536,"stimulus":"\n\t\t\t\t\t<div>\n\t\t\t\t\t<h2>Trial 28 is over</h2>\n\t\t\t\t\t<p>Press <span style=\"color: red\"><strong>any key</strong></span> to continue to the next trial</p>\n\t\t\t\t\t</div>\n\t\t\t\t","response":"f","trial_type":"html-keyboard-response","trial_index":117,"time_elapsed":963329,"internal_node_id":"0.0-3.0-3.27","prolific_id":"6138c15bd47ecca8b56a704f","session_id":"643c1e451a90a9db7885323e","study_id":"64370a36d30bfa807bc7e43c"},{"rt":11353,"response":{"prediction":"300"},"trial_type":"survey-text","trial_index":118,"time_elapsed":974728,"internal_node_id":"0.0-3.0-0.28","prolific_id":"6138c15bd47ecca8b56a704f","session_id":"643c1e451a90a9db7885323e","study_id":"64370a36d30bfa807bc7e43c"},{"rt":3833,"response":{"prior knowledge":4,"curiosity":5},"accuracy":[],"trial_type":"survey","trial_index":119,"time_elapsed":978576,"internal_node_id":"0.0-3.0-1.28","prolific_id":"6138c15bd47ecca8b56a704f","session_id":"643c1e451a90a9db7885323e","study_id":"64370a36d30bfa807bc7e43c"},{"rt":null,"stimulus":"\n\t\t\t<div class=\"flip_card\">\n\t\t\t\t<div class=\"flip_card_inner\">\n\t\t\t\t\t<div class=\"flip_card_front\">\n\t\t\t\t\t\t<img src=img/30.png>\n\t\t\t\t\t</div>\n\t\t\t\t\t<div class=\"flip_card_back\">\n\t\t\t\t\t\t<h2>How many bones is a human baby born with?</h2>\n\t\t\t\t\t\t<br>\n\t\t\t\t\t\t<p>Answer: <strong>300</strong></p>\n\t\t\t\t\t</div>\n\t\t\t\t</div>\n\t\t\t</div>\n\t\t\t","response":null,"trial_type":"html-keyboard-response","trial_index":120,"time_elapsed":983580,"internal_node_id":"0.0-3.0-2.28","prolific_id":"6138c15bd47ecca8b56a704f","session_id":"643c1e451a90a9db7885323e","study_id":"64370a36d30bfa807bc7e43c"},{"rt":1219,"stimulus":"\n\t\t\t\t\t<div>\n\t\t\t\t\t<h2>Trial 29 is over</h2>\n\t\t\t\t\t<p>Press <span style=\"color: red\"><strong>any key</strong></span> to continue to the next trial</p>\n\t\t\t\t\t</div>\n\t\t\t\t","response":"f","trial_type":"html-keyboard-response","trial_index":121,"time_elapsed":984800,"internal_node_id":"0.0-3.0-3.28","prolific_id":"6138c15bd47ecca8b56a704f","session_id":"643c1e451a90a9db7885323e","study_id":"64370a36d30bfa807bc7e43c"},{"rt":10638,"response":{"prediction":"55"},"trial_type":"survey-text","trial_index":122,"time_elapsed":995453,"internal_node_id":"0.0-3.0-0.29","prolific_id":"6138c15bd47ecca8b56a704f","session_id":"643c1e451a90a9db7885323e","study_id":"64370a36d30bfa807bc7e43c"},{"rt":3746,"response":{"prior knowledge":1,"curiosity":2},"accuracy":[],"trial_type":"survey","trial_index":123,"time_elapsed":999206,"internal_node_id":"0.0-3.0-1.29","prolific_id":"6138c15bd47ecca8b56a704f","session_id":"643c1e451a90a9db7885323e","study_id":"64370a36d30bfa807bc7e43c"},{"rt":null,"stimulus":"\n\t\t\t<div class=\"flip_card\">\n\t\t\t\t<div class=\"flip_card_inner\">\n\t\t\t\t\t<div class=\"flip_card_front\">\n\t\t\t\t\t\t<img src=img/26.png>\n\t\t\t\t\t</div>\n\t\t\t\t\t<div class=\"flip_card_back\">\n\t\t\t\t\t\t<h2>How many double stitches does a baseball have?</h2>\n\t\t\t\t\t\t<br>\n\t\t\t\t\t\t<p>Answer: <strong>108</strong></p>\n\t\t\t\t\t</div>\n\t\t\t\t</div>\n\t\t\t</div>\n\t\t\t","response":null,"trial_type":"html-keyboard-response","trial_index":124,"time_elapsed":1004213,"internal_node_id":"0.0-3.0-2.29","prolific_id":"6138c15bd47ecca8b56a704f","session_id":"643c1e451a90a9db7885323e","study_id":"64370a36d30bfa807bc7e43c"},{"rt":8047,"stimulus":"\n\t\t\t\t\t<div>\n\t\t\t\t\t<h2>Trial 30 is over</h2>\n\t\t\t\t\t<p>Press <span style=\"color: red\"><strong>any key</strong></span> to continue to the next trial</p>\n\t\t\t\t\t</div>\n\t\t\t\t","response":"j","trial_type":"html-keyboard-response","trial_index":125,"time_elapsed":1012260,"internal_node_id":"0.0-3.0-3.29","prolific_id":"6138c15bd47ecca8b56a704f","session_id":"643c1e451a90a9db7885323e","study_id":"64370a36d30bfa807bc7e43c"},{"rt":9,"stimulus":"\n\t\t\t<h2>Good job! You've finished the 30 trials:p</h2>\n\t\t\t<p>In the next session, you will see two cards on the screen in each trial.</p>\n\t\t\t<p>On one card is a pattern that you have seen before in the experiment,\n\t\t\t\tand on the other card is one you have not seen.</p><br>\n\t\t\t<p>Your task is to choose the one you think you <em>have</em> seen before for every trial.</p>\n\t\t\t<p>Press '<span style=\"color: red;\"><strong>F</strong></span>' to choose the card on the left,\n\t\t\t\tand '<span style=\"color: red;\"><strong>J</strong></span>' to choose the card on the right.</p>\n\t\t\t<p>Have fun!</p>\n\t\t\t<br>\n\t\t\t<p>The trials will begin in 30 seconds</p>\n\t\t\t","response":"h","trial_type":"html-keyboard-response","trial_index":126,"time_elapsed":1012270,"internal_node_id":"0.0-4.0","prolific_id":"6138c15bd47ecca8b56a704f","session_id":"643c1e451a90a9db7885323e","study_id":"64370a36d30bfa807bc7e43c"},{"rt":31170,"stimulus":"\n\t\t\t\t\t\t<div class=\"two_card_container\">\n\t\t\t\t\t\t<div class=\"card_container\">\n\t\t\t\t\t\t<img src=img/6.png>\n\t\t\t\t\t\t</div>\n\n\t\t\t\t\t\t<div class=\"card_container\">\n\t\t\t\t\t\t<img src=img/37.png>\n\t\t\t\t\t\t</div>","response":"j","task":"response","correct_response":"f","trial_type":"html-keyboard-response","trial_index":127,"time_elapsed":1043442,"internal_node_id":"0.0-5.0-0.0","prolific_id":"6138c15bd47ecca8b56a704f","session_id":"643c1e451a90a9db7885323e","study_id":"64370a36d30bfa807bc7e43c","correct":false},{"rt":null,"stimulus":"\n\t\t\t\t\t<p>Wrong answer</p>\n\t\t\t\t\t","response":null,"trial_type":"html-keyboard-response","trial_index":128,"time_elapsed":1044455,"internal_node_id":"0.0-5.0-1.0","prolific_id":"6138c15bd47ecca8b56a704f","session_id":"643c1e451a90a9db7885323e","study_id":"64370a36d30bfa807bc7e43c"},{"rt":8018,"stimulus":"\n\t\t\t\t\t\t<div class=\"two_card_container\">\n\t\t\t\t\t\t<div class=\"card_container\">\n\t\t\t\t\t\t<img src=img/35.png>\n\t\t\t\t\t\t</div>\n\n\t\t\t\t\t\t<div class=\"card_container\">\n\t\t\t\t\t\t<img src=img/26.png>\n\t\t\t\t\t\t</div>","response":"f","task":"response","correct_response":"j","trial_type":"html-keyboard-response","trial_index":129,"time_elapsed":1052475,"internal_node_id":"0.0-5.0-0.1","prolific_id":"6138c15bd47ecca8b56a704f","session_id":"643c1e451a90a9db7885323e","study_id":"64370a36d30bfa807bc7e43c","correct":false},{"rt":null,"stimulus":"\n\t\t\t\t\t<p>Wrong answer</p>\n\t\t\t\t\t","response":null,"trial_type":"html-keyboard-response","trial_index":130,"time_elapsed":1053487,"internal_node_id":"0.0-5.0-1.1","prolific_id":"6138c15bd47ecca8b56a704f","session_id":"643c1e451a90a9db7885323e","study_id":"64370a36d30bfa807bc7e43c"},{"rt":878,"stimulus":"\n\t\t\t\t\t\t<div class=\"two_card_container\">\n\t\t\t\t\t\t<div class=\"card_container\">\n\t\t\t\t\t\t<img src=img/7.png>\n\t\t\t\t\t\t</div>\n\n\t\t\t\t\t\t<div class=\"card_container\">\n\t\t\t\t\t\t<img src=img/33.png>\n\t\t\t\t\t\t</div>","response":"f","task":"response","correct_response":"f","trial_type":"html-keyboard-response","trial_index":131,"time_elapsed":1054367,"internal_node_id":"0.0-5.0-0.2","prolific_id":"6138c15bd47ecca8b56a704f","session_id":"643c1e451a90a9db7885323e","study_id":"64370a36d30bfa807bc7e43c","correct":true},{"rt":null,"stimulus":"\n\t\t\t\t\t<p>Correct!</p>\n\t\t\t\t\t","response":null,"trial_type":"html-keyboard-response","trial_index":132,"time_elapsed":1055370,"internal_node_id":"0.0-5.0-1.2","prolific_id":"6138c15bd47ecca8b56a704f","session_id":"643c1e451a90a9db7885323e","study_id":"64370a36d30bfa807bc7e43c"},{"rt":2120,"stimulus":"\n\t\t\t\t\t\t<div class=\"two_card_container\">\n\t\t\t\t\t\t<div class=\"card_container\">\n\t\t\t\t\t\t<img src=img/38.png>\n\t\t\t\t\t\t</div>\n\n\t\t\t\t\t\t<div class=\"card_container\">\n\t\t\t\t\t\t<img src=img/3.png>\n\t\t\t\t\t\t</div>","response":"f","task":"response","correct_response":"j","trial_type":"html-keyboard-response","trial_index":133,"time_elapsed":1057492,"internal_node_id":"0.0-5.0-0.3","prolific_id":"6138c15bd47ecca8b56a704f","session_id":"643c1e451a90a9db7885323e","study_id":"64370a36d30bfa807bc7e43c","correct":false},{"rt":null,"stimulus":"\n\t\t\t\t\t<p>Wrong answer</p>\n\t\t\t\t\t","response":null,"trial_type":"html-keyboard-response","trial_index":134,"time_elapsed":1058505,"internal_node_id":"0.0-5.0-1.3","prolific_id":"6138c15bd47ecca8b56a704f","session_id":"643c1e451a90a9db7885323e","study_id":"64370a36d30bfa807bc7e43c"},{"rt":2547,"stimulus":"\n\t\t\t\t\t\t<div class=\"two_card_container\">\n\t\t\t\t\t\t<div class=\"card_container\">\n\t\t\t\t\t\t<img src=img/5.png>\n\t\t\t\t\t\t</div>\n\n\t\t\t\t\t\t<div class=\"card_container\">\n\t\t\t\t\t\t<img src=img/40.png>\n\t\t\t\t\t\t</div>","response":"f","task":"response","correct_response":"f","trial_type":"html-keyboard-response","trial_index":135,"time_elapsed":1061054,"internal_node_id":"0.0-5.0-0.4","prolific_id":"6138c15bd47ecca8b56a704f","session_id":"643c1e451a90a9db7885323e","study_id":"64370a36d30bfa807bc7e43c","correct":true},{"rt":null,"stimulus":"\n\t\t\t\t\t<p>Correct!</p>\n\t\t\t\t\t","response":null,"trial_type":"html-keyboard-response","trial_index":136,"time_elapsed":1062057,"internal_node_id":"0.0-5.0-1.4","prolific_id":"6138c15bd47ecca8b56a704f","session_id":"643c1e451a90a9db7885323e","study_id":"64370a36d30bfa807bc7e43c"},{"rt":833,"stimulus":"\n\t\t\t\t\t\t<div class=\"two_card_container\">\n\t\t\t\t\t\t<div class=\"card_container\">\n\t\t\t\t\t\t<img src=img/39.png>\n\t\t\t\t\t\t</div>\n\n\t\t\t\t\t\t<div class=\"card_container\">\n\t\t\t\t\t\t<img src=img/1.png>\n\t\t\t\t\t\t</div>","response":"f","task":"response","correct_response":"j","trial_type":"html-keyboard-response","trial_index":137,"time_elapsed":1062892,"internal_node_id":"0.0-5.0-0.5","prolific_id":"6138c15bd47ecca8b56a704f","session_id":"643c1e451a90a9db7885323e","study_id":"64370a36d30bfa807bc7e43c","correct":false},{"rt":null,"stimulus":"\n\t\t\t\t\t<p>Wrong answer</p>\n\t\t\t\t\t","response":null,"trial_type":"html-keyboard-response","trial_index":138,"time_elapsed":1063893,"internal_node_id":"0.0-5.0-1.5","prolific_id":"6138c15bd47ecca8b56a704f","session_id":"643c1e451a90a9db7885323e","study_id":"64370a36d30bfa807bc7e43c"},{"rt":1033,"stimulus":"\n\t\t\t\t\t\t<div class=\"two_card_container\">\n\t\t\t\t\t\t<div class=\"card_container\">\n\t\t\t\t\t\t<img src=img/34.png>\n\t\t\t\t\t\t</div>\n\n\t\t\t\t\t\t<div class=\"card_container\">\n\t\t\t\t\t\t<img src=img/4.png>\n\t\t\t\t\t\t</div>","response":"j","task":"response","correct_response":"j","trial_type":"html-keyboard-response","trial_index":139,"time_elapsed":1064928,"internal_node_id":"0.0-5.0-0.6","prolific_id":"6138c15bd47ecca8b56a704f","session_id":"643c1e451a90a9db7885323e","study_id":"64370a36d30bfa807bc7e43c","correct":true},{"rt":null,"stimulus":"\n\t\t\t\t\t<p>Correct!</p>\n\t\t\t\t\t","response":null,"trial_type":"html-keyboard-response","trial_index":140,"time_elapsed":1065934,"internal_node_id":"0.0-5.0-1.6","prolific_id":"6138c15bd47ecca8b56a704f","session_id":"643c1e451a90a9db7885323e","study_id":"64370a36d30bfa807bc7e43c"},{"rt":1697,"stimulus":"\n\t\t\t\t\t\t<div class=\"two_card_container\">\n\t\t\t\t\t\t<div class=\"card_container\">\n\t\t\t\t\t\t<img src=img/31.png>\n\t\t\t\t\t\t</div>\n\n\t\t\t\t\t\t<div class=\"card_container\">\n\t\t\t\t\t\t<img src=img/10.png>\n\t\t\t\t\t\t</div>","response":"j","task":"response","correct_response":"j","trial_type":"html-keyboard-response","trial_index":141,"time_elapsed":1067634,"internal_node_id":"0.0-5.0-0.7","prolific_id":"6138c15bd47ecca8b56a704f","session_id":"643c1e451a90a9db7885323e","study_id":"64370a36d30bfa807bc7e43c","correct":true},{"rt":null,"stimulus":"\n\t\t\t\t\t<p>Correct!</p>\n\t\t\t\t\t","response":null,"trial_type":"html-keyboard-response","trial_index":142,"time_elapsed":1068650,"internal_node_id":"0.0-5.0-1.7","prolific_id":"6138c15bd47ecca8b56a704f","session_id":"643c1e451a90a9db7885323e","study_id":"64370a36d30bfa807bc7e43c"},{"rt":2164,"stimulus":"\n\t\t\t\t\t\t<div class=\"two_card_container\">\n\t\t\t\t\t\t<div class=\"card_container\">\n\t\t\t\t\t\t<img src=img/30.png>\n\t\t\t\t\t\t</div>\n\n\t\t\t\t\t\t<div class=\"card_container\">\n\t\t\t\t\t\t<img src=img/36.png>\n\t\t\t\t\t\t</div>","response":"j","task":"response","correct_response":"f","trial_type":"html-keyboard-response","trial_index":143,"time_elapsed":1070815,"internal_node_id":"0.0-5.0-0.8","prolific_id":"6138c15bd47ecca8b56a704f","session_id":"643c1e451a90a9db7885323e","study_id":"64370a36d30bfa807bc7e43c","correct":false},{"rt":null,"stimulus":"\n\t\t\t\t\t<p>Wrong answer</p>\n\t\t\t\t\t","response":null,"trial_type":"html-keyboard-response","trial_index":144,"time_elapsed":1071827,"internal_node_id":"0.0-5.0-1.8","prolific_id":"6138c15bd47ecca8b56a704f","session_id":"643c1e451a90a9db7885323e","study_id":"64370a36d30bfa807bc7e43c"},{"rt":1154,"stimulus":"\n\t\t\t\t\t\t<div class=\"two_card_container\">\n\t\t\t\t\t\t<div class=\"card_container\">\n\t\t\t\t\t\t<img src=img/23.png>\n\t\t\t\t\t\t</div>\n\n\t\t\t\t\t\t<div class=\"card_container\">\n\t\t\t\t\t\t<img src=img/32.png>\n\t\t\t\t\t\t</div>","response":"f","task":"response","correct_response":"f","trial_type":"html-keyboard-response","trial_index":145,"time_elapsed":1072983,"internal_node_id":"0.0-5.0-0.9","prolific_id":"6138c15bd47ecca8b56a704f","session_id":"643c1e451a90a9db7885323e","study_id":"64370a36d30bfa807bc7e43c","correct":true},{"rt":null,"stimulus":"\n\t\t\t\t\t<p>Correct!</p>\n\t\t\t\t\t","response":null,"trial_type":"html-keyboard-response","trial_index":146,"time_elapsed":1073992,"internal_node_id":"0.0-5.0-1.9","prolific_id":"6138c15bd47ecca8b56a704f","session_id":"643c1e451a90a9db7885323e","study_id":"64370a36d30bfa807bc7e43c"},{"rt":8087,"stimulus":"\n\t\t\t<h2>Good job :p</h2>\n\t\t\t<p>In the next session, you will see a trivia question on the screen in each trial.</p>\n\t\t\t<p>Each of these trivia questions is chosen from the questions you have already seen in the first session of the experiment.</p><br>\n\t\t\t<p>Your task is to answer the trivia question based on what you remember as accurately as you can.</p>\n\t\t\t<p>Have fun!</p>\n\t\t\t<br>\n\t\t\t<p>The trials will begin in 30 seconds</p>\n\t\t\t","response":"j","trial_type":"html-keyboard-response","trial_index":147,"time_elapsed":1082080,"internal_node_id":"0.0-6.0","prolific_id":"6138c15bd47ecca8b56a704f","session_id":"643c1e451a90a9db7885323e","study_id":"64370a36d30bfa807bc7e43c"},{"rt":9552,"response":{"answer":"12"},"task":"response","correct_response":"12","trial_type":"survey-text","trial_index":148,"time_elapsed":1091645,"internal_node_id":"0.0-7.0-0.0","prolific_id":"6138c15bd47ecca8b56a704f","session_id":"643c1e451a90a9db7885323e","study_id":"64370a36d30bfa807bc7e43c","difference":0},{"rt":null,"stimulus":"<h2>The correct answer is 12.</h2><p>Your answer was different from the answer by 0.</p><p>You got the right answer. Amazing work!</p>","response":null,"trial_type":"html-keyboard-response","trial_index":149,"time_elapsed":1094150,"internal_node_id":"0.0-7.0-1.0","prolific_id":"6138c15bd47ecca8b56a704f","session_id":"643c1e451a90a9db7885323e","study_id":"64370a36d30bfa807bc7e43c"},{"rt":5663,"response":{"answer":"1901"},"task":"response","correct_response":"1901","trial_type":"survey-text","trial_index":150,"time_elapsed":1099820,"internal_node_id":"0.0-7.0-0.1","prolific_id":"6138c15bd47ecca8b56a704f","session_id":"643c1e451a90a9db7885323e","study_id":"64370a36d30bfa807bc7e43c","difference":0},{"rt":null,"stimulus":"<h2>The correct answer is 1901.</h2><p>Your answer was different from the answer by 0.</p><p>You got the right answer. Amazing work!</p>","response":null,"trial_type":"html-keyboard-response","trial_index":151,"time_elapsed":1102328,"internal_node_id":"0.0-7.0-1.1","prolific_id":"6138c15bd47ecca8b56a704f","session_id":"643c1e451a90a9db7885323e","study_id":"64370a36d30bfa807bc7e43c"},{"rt":7781,"response":{"answer":"4"},"task":"response","correct_response":"21","trial_type":"survey-text","trial_index":152,"time_elapsed":1110135,"internal_node_id":"0.0-7.0-0.2","prolific_id":"6138c15bd47ecca8b56a704f","session_id":"643c1e451a90a9db7885323e","study_id":"64370a36d30bfa807bc7e43c","difference":81},{"rt":null,"stimulus":"<h2>The correct answer is 21.</h2><p>Your answer was different from the answer by 17.</p><p>Not even close... do better next time!</p>","response":null,"trial_type":"html-keyboard-response","trial_index":153,"time_elapsed":1112639,"internal_node_id":"0.0-7.0-1.2","prolific_id":"6138c15bd47ecca8b56a704f","session_id":"643c1e451a90a9db7885323e","study_id":"64370a36d30bfa807bc7e43c"},{"rt":8897,"response":{"answer":"1907"},"task":"response","correct_response":"2007","trial_type":"survey-text","trial_index":154,"time_elapsed":1121547,"internal_node_id":"0.0-7.0-0.3","prolific_id":"6138c15bd47ecca8b56a704f","session_id":"643c1e451a90a9db7885323e","study_id":"64370a36d30bfa807bc7e43c","difference":5},{"rt":null,"stimulus":"<h2>The correct answer is 2007.</h2><p>Your answer was different from the answer by 100.</p><p>Excellent. Kudos to you!</p>","response":null,"trial_type":"html-keyboard-response","trial_index":155,"time_elapsed":1124057,"internal_node_id":"0.0-7.0-1.3","prolific_id":"6138c15bd47ecca8b56a704f","session_id":"643c1e451a90a9db7885323e","study_id":"64370a36d30bfa807bc7e43c"},{"rt":8285,"response":{"answer":"4"},"task":"response","correct_response":"4","trial_type":"survey-text","trial_index":156,"time_elapsed":1132379,"internal_node_id":"0.0-7.0-0.4","prolific_id":"6138c15bd47ecca8b56a704f","session_id":"643c1e451a90a9db7885323e","study_id":"64370a36d30bfa807bc7e43c","difference":0},{"rt":null,"stimulus":"<h2>The correct answer is 4.</h2><p>Your answer was different from the answer by 0.</p><p>You got the right answer. Amazing work!</p>","response":null,"trial_type":"html-keyboard-response","trial_index":157,"time_elapsed":1134895,"internal_node_id":"0.0-7.0-1.4","prolific_id":"6138c15bd47ecca8b56a704f","session_id":"643c1e451a90a9db7885323e","study_id":"64370a36d30bfa807bc7e43c"},{"rt":14362,"response":{"answer":"73"},"task":"response","correct_response":"73","trial_type":"survey-text","trial_index":158,"time_elapsed":1149261,"internal_node_id":"0.0-7.0-0.5","prolific_id":"6138c15bd47ecca8b56a704f","session_id":"643c1e451a90a9db7885323e","study_id":"64370a36d30bfa807bc7e43c","difference":0},{"rt":null,"stimulus":"<h2>The correct answer is 73.</h2><p>Your answer was different from the answer by 0.</p><p>You got the right answer. Amazing work!</p>","response":null,"trial_type":"html-keyboard-response","trial_index":159,"time_elapsed":1151766,"internal_node_id":"0.0-7.0-1.5","prolific_id":"6138c15bd47ecca8b56a704f","session_id":"643c1e451a90a9db7885323e","study_id":"64370a36d30bfa807bc7e43c"},{"rt":4564,"response":{"answer":"88"},"task":"response","correct_response":"79","trial_type":"survey-text","trial_index":160,"time_elapsed":1156350,"internal_node_id":"0.0-7.0-0.6","prolific_id":"6138c15bd47ecca8b56a704f","session_id":"643c1e451a90a9db7885323e","study_id":"64370a36d30bfa807bc7e43c","difference":11},{"rt":null,"stimulus":"<h2>The correct answer is 79.</h2><p>Your answer was different from the answer by 9.</p><p>A pretty good job indeed.</p>","response":null,"trial_type":"html-keyboard-response","trial_index":161,"time_elapsed":1158861,"internal_node_id":"0.0-7.0-1.6","prolific_id":"6138c15bd47ecca8b56a704f","session_id":"643c1e451a90a9db7885323e","study_id":"64370a36d30bfa807bc7e43c"},{"rt":8303,"response":{"answer":"54"},"task":"response","correct_response":"54","trial_type":"survey-text","trial_index":162,"time_elapsed":1167172,"internal_node_id":"0.0-7.0-0.7","prolific_id":"6138c15bd47ecca8b56a704f","session_id":"643c1e451a90a9db7885323e","study_id":"64370a36d30bfa807bc7e43c","difference":0},{"rt":null,"stimulus":"<h2>The correct answer is 54.</h2><p>Your answer was different from the answer by 0.</p><p>You got the right answer. Amazing work!</p>","response":null,"trial_type":"html-keyboard-response","trial_index":163,"time_elapsed":1169687,"internal_node_id":"0.0-7.0-1.7","prolific_id":"6138c15bd47ecca8b56a704f","session_id":"643c1e451a90a9db7885323e","study_id":"64370a36d30bfa807bc7e43c"},{"rt":18103,"response":{"answer":"13171"},"task":"response","correct_response":"13171","trial_type":"survey-text","trial_index":164,"time_elapsed":1187794,"internal_node_id":"0.0-7.0-0.8","prolific_id":"6138c15bd47ecca8b56a704f","session_id":"643c1e451a90a9db7885323e","study_id":"64370a36d30bfa807bc7e43c","difference":0},{"rt":null,"stimulus":"<h2>The correct answer is 13171.</h2><p>Your answer was different from the answer by 0.</p><p>You got the right answer. Amazing work!</p>","response":null,"trial_type":"html-keyboard-response","trial_index":165,"time_elapsed":1190303,"internal_node_id":"0.0-7.0-1.8","prolific_id":"6138c15bd47ecca8b56a704f","session_id":"643c1e451a90a9db7885323e","study_id":"64370a36d30bfa807bc7e43c"},{"rt":20017,"response":{"answer":"13"},"task":"response","correct_response":"13","trial_type":"survey-text","trial_index":166,"time_elapsed":1210329,"internal_node_id":"0.0-7.0-0.9","prolific_id":"6138c15bd47ecca8b56a704f","session_id":"643c1e451a90a9db7885323e","study_id":"64370a36d30bfa807bc7e43c","difference":0},{"rt":null,"stimulus":"<h2>The correct answer is 13.</h2><p>Your answer was different from the answer by 0.</p><p>You got the right answer. Amazing work!</p>","response":null,"trial_type":"html-keyboard-response","trial_index":167,"time_elapsed":1212847,"internal_node_id":"0.0-7.0-1.9","prolific_id":"6138c15bd47ecca8b56a704f","session_id":"643c1e451a90a9db7885323e","study_id":"64370a36d30bfa807bc7e43c"}]