[{"success":true,"timeout":false,"failed_images":[],"failed_audio":[],"failed_video":[],"trial_type":"preload","trial_index":0,"time_elapsed":42343,"internal_node_id":"0.0-0.0","prolific_id":"620bdf2aa922fc3f247f706b","session_id":"643c252f772cbbf41693d8fb","study_id":"64370a36d30bfa807bc7e43c"},{"rt":133491,"stimulus":"\n\t\t\t\t\t<p>Welcome and thank you for participating in this study!</p>\n\t\t\t\t\t<p>In each trial, you will be given a trivia question and then be asked to:</p><br>\n\t\t\t\t\t<div class=\"list\">\n\t\t\t\t\t<p>1) Predict the answer</p>\n\t\t\t\t\t<p>2) Rate how much you already know about the topic</p>\n\t\t\t\t\t<p>3) Rate how much you want to know the answer</p>\n\t\t\t\t\t</div>\n\t\t\t\t\t<br>\n\t\t\t\t\t<p>Then, you will see a card that flips over to reveal the answer.</p>\n\t\t\t\t\t<br>\n\t\t\t\t\t<p>Let's try a practice round. Press <span style=\"color: red\"><strong>any key</strong></span> to move to the next slide</p>\n\t\t\t\t\t","response":" ","trial_type":"html-keyboard-response","trial_index":1,"time_elapsed":175836,"internal_node_id":"0.0-1.0","prolific_id":"620bdf2aa922fc3f247f706b","session_id":"643c252f772cbbf41693d8fb","study_id":"64370a36d30bfa807bc7e43c"},{"rt":8813,"response":{"practice prediction":"16"},"task":"practice","trial_type":"survey-text","trial_index":2,"time_elapsed":184787,"internal_node_id":"0.0-2.0-0.0","prolific_id":"620bdf2aa922fc3f247f706b","session_id":"643c252f772cbbf41693d8fb","study_id":"64370a36d30bfa807bc7e43c"},{"rt":5523,"response":{"practice":5},"accuracy":[],"trial_type":"survey","trial_index":3,"time_elapsed":190386,"internal_node_id":"0.0-2.0-1.0","prolific_id":"620bdf2aa922fc3f247f706b","session_id":"643c252f772cbbf41693d8fb","study_id":"64370a36d30bfa807bc7e43c"},{"rt":null,"stimulus":"\n\t\t\t\t<div class=\"flip_card\">\n\t\t\t\t\t<div class=\"flip_card_inner\">\n\t\t\t\t\t\t<div class=\"flip_card_front\">\n\t\t\t\t\t\t\t<img src=img/practice.png>\n\t\t\t\t\t\t</div>\n\t\t\t\t\t\t<div class=\"flip_card_back\">\n\t\t\t\t\t\t\t<h2>\"How many legs does a lobster have?\"</h2>\n\t\t\t\t\t\t    <br>\n\t\t\t\t\t\t    <p>Answer: <strong>\"10\"</strong></p>\n\t\t\t\t\t    </div>\n\t\t\t\t    </div>\n\t\t\t    </div>\n\t\t\t\t","response":null,"trial_type":"html-keyboard-response","trial_index":4,"time_elapsed":195389,"internal_node_id":"0.0-2.0-2.0","prolific_id":"620bdf2aa922fc3f247f706b","session_id":"643c252f772cbbf41693d8fb","study_id":"64370a36d30bfa807bc7e43c"},{"rt":6103,"stimulus":"\n\t\t\t\t\t<div>\n\t\t\t\t\t<h2>The practice round is over</h2>\n\t\t\t\t\t<p>Press <span style=\"color: red\"><strong>any key</strong></span> to continue to the actual trials</p>\n\t\t\t\t\t<p>Good Luck!</p>\n\t\t\t\t\t</div>\n\t\t\t\t\t","response":" ","trial_type":"html-keyboard-response","trial_index":5,"time_elapsed":201493,"internal_node_id":"0.0-2.0-3.0","prolific_id":"620bdf2aa922fc3f247f706b","session_id":"643c252f772cbbf41693d8fb","study_id":"64370a36d30bfa807bc7e43c"},{"rt":6889,"response":{"prediction":"4"},"trial_type":"survey-text","trial_index":6,"time_elapsed":208386,"internal_node_id":"0.0-3.0-0.0","prolific_id":"620bdf2aa922fc3f247f706b","session_id":"643c252f772cbbf41693d8fb","study_id":"64370a36d30bfa807bc7e43c"},{"rt":4937,"response":{"prior knowledge":0,"curiosity":5},"accuracy":[],"trial_type":"survey","trial_index":7,"time_elapsed":213348,"internal_node_id":"0.0-3.0-1.0","prolific_id":"620bdf2aa922fc3f247f706b","session_id":"643c252f772cbbf41693d8fb","study_id":"64370a36d30bfa807bc7e43c"},{"rt":null,"stimulus":"\n\t\t\t<div class=\"flip_card\">\n\t\t\t\t<div class=\"flip_card_inner\">\n\t\t\t\t\t<div class=\"flip_card_front\">\n\t\t\t\t\t\t<img src=img/22.png>\n\t\t\t\t\t</div>\n\t\t\t\t\t<div class=\"flip_card_back\">\n\t\t\t\t\t\t<h2>How many books are in the Catholic Bible?</h2>\n\t\t\t\t\t\t<br>\n\t\t\t\t\t\t<p>Answer: <strong>73</strong></p>\n\t\t\t\t\t</div>\n\t\t\t\t</div>\n\t\t\t</div>\n\t\t\t","response":null,"trial_type":"html-keyboard-response","trial_index":8,"time_elapsed":218357,"internal_node_id":"0.0-3.0-2.0","prolific_id":"620bdf2aa922fc3f247f706b","session_id":"643c252f772cbbf41693d8fb","study_id":"64370a36d30bfa807bc7e43c"},{"rt":23487,"stimulus":"\n\t\t\t\t\t<div>\n\t\t\t\t\t<h2>Trial 1 is over</h2>\n\t\t\t\t\t<p>Press <span style=\"color: red\"><strong>any key</strong></span> to continue to the next trial</p>\n\t\t\t\t\t</div>\n\t\t\t\t","response":" ","trial_type":"html-keyboard-response","trial_index":9,"time_elapsed":241845,"internal_node_id":"0.0-3.0-3.0","prolific_id":"620bdf2aa922fc3f247f706b","session_id":"643c252f772cbbf41693d8fb","study_id":"64370a36d30bfa807bc7e43c"},{"rt":21396,"response":{"prediction":"500"},"trial_type":"survey-text","trial_index":10,"time_elapsed":263245,"internal_node_id":"0.0-3.0-0.1","prolific_id":"620bdf2aa922fc3f247f706b","session_id":"643c252f772cbbf41693d8fb","study_id":"64370a36d30bfa807bc7e43c"},{"rt":3559,"response":{"prior knowledge":0,"curiosity":5},"accuracy":[],"trial_type":"survey","trial_index":11,"time_elapsed":266826,"internal_node_id":"0.0-3.0-1.1","prolific_id":"620bdf2aa922fc3f247f706b","session_id":"643c252f772cbbf41693d8fb","study_id":"64370a36d30bfa807bc7e43c"},{"rt":null,"stimulus":"\n\t\t\t<div class=\"flip_card\">\n\t\t\t\t<div class=\"flip_card_inner\">\n\t\t\t\t\t<div class=\"flip_card_front\">\n\t\t\t\t\t\t<img src=img/4.png>\n\t\t\t\t\t</div>\n\t\t\t\t\t<div class=\"flip_card_back\">\n\t\t\t\t\t\t<h2>How long is the Great Wall of China (in miles)?</h2>\n\t\t\t\t\t\t<br>\n\t\t\t\t\t\t<p>Answer: <strong>13171</strong></p>\n\t\t\t\t\t</div>\n\t\t\t\t</div>\n\t\t\t</div>\n\t\t\t","response":null,"trial_type":"html-keyboard-response","trial_index":12,"time_elapsed":271829,"internal_node_id":"0.0-3.0-2.1","prolific_id":"620bdf2aa922fc3f247f706b","session_id":"643c252f772cbbf41693d8fb","study_id":"64370a36d30bfa807bc7e43c"},{"rt":1238,"stimulus":"\n\t\t\t\t\t<div>\n\t\t\t\t\t<h2>Trial 2 is over</h2>\n\t\t\t\t\t<p>Press <span style=\"color: red\"><strong>any key</strong></span> to continue to the next trial</p>\n\t\t\t\t\t</div>\n\t\t\t\t","response":" ","trial_type":"html-keyboard-response","trial_index":13,"time_elapsed":273068,"internal_node_id":"0.0-3.0-3.1","prolific_id":"620bdf2aa922fc3f247f706b","session_id":"643c252f772cbbf41693d8fb","study_id":"64370a36d30bfa807bc7e43c"},{"rt":6917,"response":{"prediction":"98"},"trial_type":"survey-text","trial_index":14,"time_elapsed":279988,"internal_node_id":"0.0-3.0-0.2","prolific_id":"620bdf2aa922fc3f247f706b","session_id":"643c252f772cbbf41693d8fb","study_id":"64370a36d30bfa807bc7e43c"},{"rt":4267,"response":{"prior knowledge":0,"curiosity":5},"accuracy":[],"trial_type":"survey","trial_index":15,"time_elapsed":284277,"internal_node_id":"0.0-3.0-1.2","prolific_id":"620bdf2aa922fc3f247f706b","session_id":"643c252f772cbbf41693d8fb","study_id":"64370a36d30bfa807bc7e43c"},{"rt":null,"stimulus":"\n\t\t\t<div class=\"flip_card\">\n\t\t\t\t<div class=\"flip_card_inner\">\n\t\t\t\t\t<div class=\"flip_card_front\">\n\t\t\t\t\t\t<img src=img/27.png>\n\t\t\t\t\t</div>\n\t\t\t\t\t<div class=\"flip_card_back\">\n\t\t\t\t\t\t<h2>How many books has Stephen King published?</h2>\n\t\t\t\t\t\t<br>\n\t\t\t\t\t\t<p>Answer: <strong>65</strong></p>\n\t\t\t\t\t</div>\n\t\t\t\t</div>\n\t\t\t</div>\n\t\t\t","response":null,"trial_type":"html-keyboard-response","trial_index":16,"time_elapsed":289293,"internal_node_id":"0.0-3.0-2.2","prolific_id":"620bdf2aa922fc3f247f706b","session_id":"643c252f772cbbf41693d8fb","study_id":"64370a36d30bfa807bc7e43c"},{"rt":1108,"stimulus":"\n\t\t\t\t\t<div>\n\t\t\t\t\t<h2>Trial 3 is over</h2>\n\t\t\t\t\t<p>Press <span style=\"color: red\"><strong>any key</strong></span> to continue to the next trial</p>\n\t\t\t\t\t</div>\n\t\t\t\t","response":" ","trial_type":"html-keyboard-response","trial_index":17,"time_elapsed":290402,"internal_node_id":"0.0-3.0-3.2","prolific_id":"620bdf2aa922fc3f247f706b","session_id":"643c252f772cbbf41693d8fb","study_id":"64370a36d30bfa807bc7e43c"},{"rt":10216,"response":{"prediction":"1978"},"trial_type":"survey-text","trial_index":18,"time_elapsed":300621,"internal_node_id":"0.0-3.0-0.3","prolific_id":"620bdf2aa922fc3f247f706b","session_id":"643c252f772cbbf41693d8fb","study_id":"64370a36d30bfa807bc7e43c"},{"rt":4892,"response":{"prior knowledge":0,"curiosity":5},"accuracy":[],"trial_type":"survey","trial_index":19,"time_elapsed":305534,"internal_node_id":"0.0-3.0-1.3","prolific_id":"620bdf2aa922fc3f247f706b","session_id":"643c252f772cbbf41693d8fb","study_id":"64370a36d30bfa807bc7e43c"},{"rt":null,"stimulus":"\n\t\t\t<div class=\"flip_card\">\n\t\t\t\t<div class=\"flip_card_inner\">\n\t\t\t\t\t<div class=\"flip_card_front\">\n\t\t\t\t\t\t<img src=img/20.png>\n\t\t\t\t\t</div>\n\t\t\t\t\t<div class=\"flip_card_back\">\n\t\t\t\t\t\t<h2>In what year did the first Modern Olympic Games take place?</h2>\n\t\t\t\t\t\t<br>\n\t\t\t\t\t\t<p>Answer: <strong>1896</strong></p>\n\t\t\t\t\t</div>\n\t\t\t\t</div>\n\t\t\t</div>\n\t\t\t","response":null,"trial_type":"html-keyboard-response","trial_index":20,"time_elapsed":310547,"internal_node_id":"0.0-3.0-2.3","prolific_id":"620bdf2aa922fc3f247f706b","session_id":"643c252f772cbbf41693d8fb","study_id":"64370a36d30bfa807bc7e43c"},{"rt":41903,"stimulus":"\n\t\t\t\t\t<div>\n\t\t\t\t\t<h2>Trial 4 is over</h2>\n\t\t\t\t\t<p>Press <span style=\"color: red\"><strong>any key</strong></span> to continue to the next trial</p>\n\t\t\t\t\t</div>\n\t\t\t\t","response":" ","trial_type":"html-keyboard-response","trial_index":21,"time_elapsed":352450,"internal_node_id":"0.0-3.0-3.3","prolific_id":"620bdf2aa922fc3f247f706b","session_id":"643c252f772cbbf41693d8fb","study_id":"64370a36d30bfa807bc7e43c"},{"rt":15803,"response":{"prediction":"1955"},"trial_type":"survey-text","trial_index":22,"time_elapsed":368255,"internal_node_id":"0.0-3.0-0.4","prolific_id":"620bdf2aa922fc3f247f706b","session_id":"643c252f772cbbf41693d8fb","study_id":"64370a36d30bfa807bc7e43c"},{"rt":3566,"response":{"prior knowledge":0,"curiosity":5},"accuracy":[],"trial_type":"survey","trial_index":23,"time_elapsed":371840,"internal_node_id":"0.0-3.0-1.4","prolific_id":"620bdf2aa922fc3f247f706b","session_id":"643c252f772cbbf41693d8fb","study_id":"64370a36d30bfa807bc7e43c"},{"rt":null,"stimulus":"\n\t\t\t<div class=\"flip_card\">\n\t\t\t\t<div class=\"flip_card_inner\">\n\t\t\t\t\t<div class=\"flip_card_front\">\n\t\t\t\t\t\t<img src=img/5.png>\n\t\t\t\t\t</div>\n\t\t\t\t\t<div class=\"flip_card_back\">\n\t\t\t\t\t\t<h2>In what year was the Mexican artist Frida Kahlo born?</h2>\n\t\t\t\t\t\t<br>\n\t\t\t\t\t\t<p>Answer: <strong>1907</strong></p>\n\t\t\t\t\t</div>\n\t\t\t\t</div>\n\t\t\t</div>\n\t\t\t","response":null,"trial_type":"html-keyboard-response","trial_index":24,"time_elapsed":376851,"internal_node_id":"0.0-3.0-2.4","prolific_id":"620bdf2aa922fc3f247f706b","session_id":"643c252f772cbbf41693d8fb","study_id":"64370a36d30bfa807bc7e43c"},{"rt":1002,"stimulus":"\n\t\t\t\t\t<div>\n\t\t\t\t\t<h2>Trial 5 is over</h2>\n\t\t\t\t\t<p>Press <span style=\"color: red\"><strong>any key</strong></span> to continue to the next trial</p>\n\t\t\t\t\t</div>\n\t\t\t\t","response":" ","trial_type":"html-keyboard-response","trial_index":25,"time_elapsed":377853,"internal_node_id":"0.0-3.0-3.4","prolific_id":"620bdf2aa922fc3f247f706b","session_id":"643c252f772cbbf41693d8fb","study_id":"64370a36d30bfa807bc7e43c"},{"rt":6929,"response":{"prediction":"16"},"trial_type":"survey-text","trial_index":26,"time_elapsed":384785,"internal_node_id":"0.0-3.0-0.5","prolific_id":"620bdf2aa922fc3f247f706b","session_id":"643c252f772cbbf41693d8fb","study_id":"64370a36d30bfa807bc7e43c"},{"rt":6956,"response":{"prior knowledge":0,"curiosity":5},"accuracy":[],"trial_type":"survey","trial_index":27,"time_elapsed":391757,"internal_node_id":"0.0-3.0-1.5","prolific_id":"620bdf2aa922fc3f247f706b","session_id":"643c252f772cbbf41693d8fb","study_id":"64370a36d30bfa807bc7e43c"},{"rt":null,"stimulus":"\n\t\t\t<div class=\"flip_card\">\n\t\t\t\t<div class=\"flip_card_inner\">\n\t\t\t\t\t<div class=\"flip_card_front\">\n\t\t\t\t\t\t<img src=img/3.png>\n\t\t\t\t\t</div>\n\t\t\t\t\t<div class=\"flip_card_back\">\n\t\t\t\t\t\t<h2>How many main islands make up Japan?</h2>\n\t\t\t\t\t\t<br>\n\t\t\t\t\t\t<p>Answer: <strong>4</strong></p>\n\t\t\t\t\t</div>\n\t\t\t\t</div>\n\t\t\t</div>\n\t\t\t","response":null,"trial_type":"html-keyboard-response","trial_index":28,"time_elapsed":396766,"internal_node_id":"0.0-3.0-2.5","prolific_id":"620bdf2aa922fc3f247f706b","session_id":"643c252f772cbbf41693d8fb","study_id":"64370a36d30bfa807bc7e43c"},{"rt":11839,"stimulus":"\n\t\t\t\t\t<div>\n\t\t\t\t\t<h2>Trial 6 is over</h2>\n\t\t\t\t\t<p>Press <span style=\"color: red\"><strong>any key</strong></span> to continue to the next trial</p>\n\t\t\t\t\t</div>\n\t\t\t\t","response":"e","trial_type":"html-keyboard-response","trial_index":29,"time_elapsed":408606,"internal_node_id":"0.0-3.0-3.5","prolific_id":"620bdf2aa922fc3f247f706b","session_id":"643c252f772cbbf41693d8fb","study_id":"64370a36d30bfa807bc7e43c"},{"rt":26525,"response":{"prediction":"98"},"trial_type":"survey-text","trial_index":30,"time_elapsed":435135,"internal_node_id":"0.0-3.0-0.6","prolific_id":"620bdf2aa922fc3f247f706b","session_id":"643c252f772cbbf41693d8fb","study_id":"64370a36d30bfa807bc7e43c"},{"rt":6501,"response":{"prior knowledge":1,"curiosity":5},"accuracy":[],"trial_type":"survey","trial_index":31,"time_elapsed":441652,"internal_node_id":"0.0-3.0-1.6","prolific_id":"620bdf2aa922fc3f247f706b","session_id":"643c252f772cbbf41693d8fb","study_id":"64370a36d30bfa807bc7e43c"},{"rt":null,"stimulus":"\n\t\t\t<div class=\"flip_card\">\n\t\t\t\t<div class=\"flip_card_inner\">\n\t\t\t\t\t<div class=\"flip_card_front\">\n\t\t\t\t\t\t<img src=img/21.png>\n\t\t\t\t\t</div>\n\t\t\t\t\t<div class=\"flip_card_back\">\n\t\t\t\t\t\t<h2>How many bones is a human baby born with?</h2>\n\t\t\t\t\t\t<br>\n\t\t\t\t\t\t<p>Answer: <strong>300</strong></p>\n\t\t\t\t\t</div>\n\t\t\t\t</div>\n\t\t\t</div>\n\t\t\t","response":null,"trial_type":"html-keyboard-response","trial_index":32,"time_elapsed":446655,"internal_node_id":"0.0-3.0-2.6","prolific_id":"620bdf2aa922fc3f247f706b","session_id":"643c252f772cbbf41693d8fb","study_id":"64370a36d30bfa807bc7e43c"},{"rt":4337,"stimulus":"\n\t\t\t\t\t<div>\n\t\t\t\t\t<h2>Trial 7 is over</h2>\n\t\t\t\t\t<p>Press <span style=\"color: red\"><strong>any key</strong></span> to continue to the next trial</p>\n\t\t\t\t\t</div>\n\t\t\t\t","response":" ","trial_type":"html-keyboard-response","trial_index":33,"time_elapsed":450993,"internal_node_id":"0.0-3.0-3.6","prolific_id":"620bdf2aa922fc3f247f706b","session_id":"643c252f772cbbf41693d8fb","study_id":"64370a36d30bfa807bc7e43c"},{"rt":11622,"response":{"prediction":"5"},"trial_type":"survey-text","trial_index":34,"time_elapsed":462616,"internal_node_id":"0.0-3.0-0.7","prolific_id":"620bdf2aa922fc3f247f706b","session_id":"643c252f772cbbf41693d8fb","study_id":"64370a36d30bfa807bc7e43c"},{"rt":14733,"response":{"prior knowledge":0,"curiosity":5},"accuracy":[],"trial_type":"survey","trial_index":35,"time_elapsed":477367,"internal_node_id":"0.0-3.0-1.7","prolific_id":"620bdf2aa922fc3f247f706b","session_id":"643c252f772cbbf41693d8fb","study_id":"64370a36d30bfa807bc7e43c"},{"rt":null,"stimulus":"\n\t\t\t<div class=\"flip_card\">\n\t\t\t\t<div class=\"flip_card_inner\">\n\t\t\t\t\t<div class=\"flip_card_front\">\n\t\t\t\t\t\t<img src=img/14.png>\n\t\t\t\t\t</div>\n\t\t\t\t\t<div class=\"flip_card_back\">\n\t\t\t\t\t\t<h2>How many lines are in a sonnet?</h2>\n\t\t\t\t\t\t<br>\n\t\t\t\t\t\t<p>Answer: <strong>14</strong></p>\n\t\t\t\t\t</div>\n\t\t\t\t</div>\n\t\t\t</div>\n\t\t\t","response":null,"trial_type":"html-keyboard-response","trial_index":36,"time_elapsed":482380,"internal_node_id":"0.0-3.0-2.7","prolific_id":"620bdf2aa922fc3f247f706b","session_id":"643c252f772cbbf41693d8fb","study_id":"64370a36d30bfa807bc7e43c"},{"rt":808,"stimulus":"\n\t\t\t\t\t<div>\n\t\t\t\t\t<h2>Trial 8 is over</h2>\n\t\t\t\t\t<p>Press <span style=\"color: red\"><strong>any key</strong></span> to continue to the next trial</p>\n\t\t\t\t\t</div>\n\t\t\t\t","response":" ","trial_type":"html-keyboard-response","trial_index":37,"time_elapsed":483189,"internal_node_id":"0.0-3.0-3.7","prolific_id":"620bdf2aa922fc3f247f706b","session_id":"643c252f772cbbf41693d8fb","study_id":"64370a36d30bfa807bc7e43c"},{"rt":19534,"response":{"prediction":"2008"},"trial_type":"survey-text","trial_index":38,"time_elapsed":502725,"internal_node_id":"0.0-3.0-0.8","prolific_id":"620bdf2aa922fc3f247f706b","session_id":"643c252f772cbbf41693d8fb","study_id":"64370a36d30bfa807bc7e43c"},{"rt":7405,"response":{"prior knowledge":0,"curiosity":0},"accuracy":[],"trial_type":"survey","trial_index":39,"time_elapsed":510149,"internal_node_id":"0.0-3.0-1.8","prolific_id":"620bdf2aa922fc3f247f706b","session_id":"643c252f772cbbf41693d8fb","study_id":"64370a36d30bfa807bc7e43c"},{"rt":null,"stimulus":"\n\t\t\t<div class=\"flip_card\">\n\t\t\t\t<div class=\"flip_card_inner\">\n\t\t\t\t\t<div class=\"flip_card_front\">\n\t\t\t\t\t\t<img src=img/24.png>\n\t\t\t\t\t</div>\n\t\t\t\t\t<div class=\"flip_card_back\">\n\t\t\t\t\t\t<h2>What year was the very first model of the iPhone released?</h2>\n\t\t\t\t\t\t<br>\n\t\t\t\t\t\t<p>Answer: <strong>2007</strong></p>\n\t\t\t\t\t</div>\n\t\t\t\t</div>\n\t\t\t</div>\n\t\t\t","response":null,"trial_type":"html-keyboard-response","trial_index":40,"time_elapsed":515163,"internal_node_id":"0.0-3.0-2.8","prolific_id":"620bdf2aa922fc3f247f706b","session_id":"643c252f772cbbf41693d8fb","study_id":"64370a36d30bfa807bc7e43c"},{"rt":2281,"stimulus":"\n\t\t\t\t\t<div>\n\t\t\t\t\t<h2>Trial 9 is over</h2>\n\t\t\t\t\t<p>Press <span style=\"color: red\"><strong>any key</strong></span> to continue to the next trial</p>\n\t\t\t\t\t</div>\n\t\t\t\t","response":" ","trial_type":"html-keyboard-response","trial_index":41,"time_elapsed":517445,"internal_node_id":"0.0-3.0-3.8","prolific_id":"620bdf2aa922fc3f247f706b","session_id":"643c252f772cbbf41693d8fb","study_id":"64370a36d30bfa807bc7e43c"},{"rt":10552,"response":{"prediction":"3"},"trial_type":"survey-text","trial_index":42,"time_elapsed":527998,"internal_node_id":"0.0-3.0-0.9","prolific_id":"620bdf2aa922fc3f247f706b","session_id":"643c252f772cbbf41693d8fb","study_id":"64370a36d30bfa807bc7e43c"},{"rt":5520,"response":{"prior knowledge":0,"curiosity":5},"accuracy":[],"trial_type":"survey","trial_index":43,"time_elapsed":533536,"internal_node_id":"0.0-3.0-1.9","prolific_id":"620bdf2aa922fc3f247f706b","session_id":"643c252f772cbbf41693d8fb","study_id":"64370a36d30bfa807bc7e43c"},{"rt":null,"stimulus":"\n\t\t\t<div class=\"flip_card\">\n\t\t\t\t<div class=\"flip_card_inner\">\n\t\t\t\t\t<div class=\"flip_card_front\">\n\t\t\t\t\t\t<img src=img/18.png>\n\t\t\t\t\t</div>\n\t\t\t\t\t<div class=\"flip_card_back\">\n\t\t\t\t\t\t<h2>How many times a day do Muslims pray?</h2>\n\t\t\t\t\t\t<br>\n\t\t\t\t\t\t<p>Answer: <strong>5</strong></p>\n\t\t\t\t\t</div>\n\t\t\t\t</div>\n\t\t\t</div>\n\t\t\t","response":null,"trial_type":"html-keyboard-response","trial_index":44,"time_elapsed":538547,"internal_node_id":"0.0-3.0-2.9","prolific_id":"620bdf2aa922fc3f247f706b","session_id":"643c252f772cbbf41693d8fb","study_id":"64370a36d30bfa807bc7e43c"},{"rt":3237,"stimulus":"\n\t\t\t\t\t<div>\n\t\t\t\t\t<h2>Trial 10 is over</h2>\n\t\t\t\t\t<p>Press <span style=\"color: red\"><strong>any key</strong></span> to continue to the next trial</p>\n\t\t\t\t\t</div>\n\t\t\t\t","response":" ","trial_type":"html-keyboard-response","trial_index":45,"time_elapsed":541784,"internal_node_id":"0.0-3.0-3.9","prolific_id":"620bdf2aa922fc3f247f706b","session_id":"643c252f772cbbf41693d8fb","study_id":"64370a36d30bfa807bc7e43c"},{"rt":60178,"response":{"prediction":"100"},"trial_type":"survey-text","trial_index":46,"time_elapsed":601964,"internal_node_id":"0.0-3.0-0.10","prolific_id":"620bdf2aa922fc3f247f706b","session_id":"643c252f772cbbf41693d8fb","study_id":"64370a36d30bfa807bc7e43c"},{"rt":19136,"response":{"prior knowledge":0,"curiosity":5},"accuracy":[],"trial_type":"survey","trial_index":47,"time_elapsed":621122,"internal_node_id":"0.0-3.0-1.10","prolific_id":"620bdf2aa922fc3f247f706b","session_id":"643c252f772cbbf41693d8fb","study_id":"64370a36d30bfa807bc7e43c"},{"rt":null,"stimulus":"\n\t\t\t<div class=\"flip_card\">\n\t\t\t\t<div class=\"flip_card_inner\">\n\t\t\t\t\t<div class=\"flip_card_front\">\n\t\t\t\t\t\t<img src=img/30.png>\n\t\t\t\t\t</div>\n\t\t\t\t\t<div class=\"flip_card_back\">\n\t\t\t\t\t\t<h2>How many single hand gestures, or mudras, are used in Indian classical dance?</h2>\n\t\t\t\t\t\t<br>\n\t\t\t\t\t\t<p>Answer: <strong>28</strong></p>\n\t\t\t\t\t</div>\n\t\t\t\t</div>\n\t\t\t</div>\n\t\t\t","response":null,"trial_type":"html-keyboard-response","trial_index":48,"time_elapsed":626136,"internal_node_id":"0.0-3.0-2.10","prolific_id":"620bdf2aa922fc3f247f706b","session_id":"643c252f772cbbf41693d8fb","study_id":"64370a36d30bfa807bc7e43c"},{"rt":5591,"stimulus":"\n\t\t\t\t\t<div>\n\t\t\t\t\t<h2>Trial 11 is over</h2>\n\t\t\t\t\t<p>Press <span style=\"color: red\"><strong>any key</strong></span> to continue to the next trial</p>\n\t\t\t\t\t</div>\n\t\t\t\t","response":" ","trial_type":"html-keyboard-response","trial_index":49,"time_elapsed":631727,"internal_node_id":"0.0-3.0-3.10","prolific_id":"620bdf2aa922fc3f247f706b","session_id":"643c252f772cbbf41693d8fb","study_id":"64370a36d30bfa807bc7e43c"},{"rt":12152,"response":{"prediction":"30"},"trial_type":"survey-text","trial_index":50,"time_elapsed":643882,"internal_node_id":"0.0-3.0-0.11","prolific_id":"620bdf2aa922fc3f247f706b","session_id":"643c252f772cbbf41693d8fb","study_id":"64370a36d30bfa807bc7e43c"},{"rt":3606,"response":{"prior knowledge":0,"curiosity":5},"accuracy":[],"trial_type":"survey","trial_index":51,"time_elapsed":647505,"internal_node_id":"0.0-3.0-1.11","prolific_id":"620bdf2aa922fc3f247f706b","session_id":"643c252f772cbbf41693d8fb","study_id":"64370a36d30bfa807bc7e43c"},{"rt":null,"stimulus":"\n\t\t\t<div class=\"flip_card\">\n\t\t\t\t<div class=\"flip_card_inner\">\n\t\t\t\t\t<div class=\"flip_card_front\">\n\t\t\t\t\t\t<img src=img/28.png>\n\t\t\t\t\t</div>\n\t\t\t\t\t<div class=\"flip_card_back\">\n\t\t\t\t\t\t<h2>How many double stitches does a baseball have?</h2>\n\t\t\t\t\t\t<br>\n\t\t\t\t\t\t<p>Answer: <strong>108</strong></p>\n\t\t\t\t\t</div>\n\t\t\t\t</div>\n\t\t\t</div>\n\t\t\t","response":null,"trial_type":"html-keyboard-response","trial_index":52,"time_elapsed":652514,"internal_node_id":"0.0-3.0-2.11","prolific_id":"620bdf2aa922fc3f247f706b","session_id":"643c252f772cbbf41693d8fb","study_id":"64370a36d30bfa807bc7e43c"},{"rt":1370,"stimulus":"\n\t\t\t\t\t<div>\n\t\t\t\t\t<h2>Trial 12 is over</h2>\n\t\t\t\t\t<p>Press <span style=\"color: red\"><strong>any key</strong></span> to continue to the next trial</p>\n\t\t\t\t\t</div>\n\t\t\t\t","response":" ","trial_type":"html-keyboard-response","trial_index":53,"time_elapsed":653885,"internal_node_id":"0.0-3.0-3.11","prolific_id":"620bdf2aa922fc3f247f706b","session_id":"643c252f772cbbf41693d8fb","study_id":"64370a36d30bfa807bc7e43c"},{"rt":179303,"response":{"prediction":"14"},"trial_type":"survey-text","trial_index":54,"time_elapsed":833190,"internal_node_id":"0.0-3.0-0.12","prolific_id":"620bdf2aa922fc3f247f706b","session_id":"643c252f772cbbf41693d8fb","study_id":"64370a36d30bfa807bc7e43c"},{"rt":9092,"response":{"prior knowledge":0,"curiosity":5},"accuracy":[],"trial_type":"survey","trial_index":55,"time_elapsed":842302,"internal_node_id":"0.0-3.0-1.12","prolific_id":"620bdf2aa922fc3f247f706b","session_id":"643c252f772cbbf41693d8fb","study_id":"64370a36d30bfa807bc7e43c"},{"rt":null,"stimulus":"\n\t\t\t<div class=\"flip_card\">\n\t\t\t\t<div class=\"flip_card_inner\">\n\t\t\t\t\t<div class=\"flip_card_front\">\n\t\t\t\t\t\t<img src=img/16.png>\n\t\t\t\t\t</div>\n\t\t\t\t\t<div class=\"flip_card_back\">\n\t\t\t\t\t\t<h2>How many soccer players should each team have on the field at the start of each match?</h2>\n\t\t\t\t\t\t<br>\n\t\t\t\t\t\t<p>Answer: <strong>11</strong></p>\n\t\t\t\t\t</div>\n\t\t\t\t</div>\n\t\t\t</div>\n\t\t\t","response":null,"trial_type":"html-keyboard-response","trial_index":56,"time_elapsed":847310,"internal_node_id":"0.0-3.0-2.12","prolific_id":"620bdf2aa922fc3f247f706b","session_id":"643c252f772cbbf41693d8fb","study_id":"64370a36d30bfa807bc7e43c"},{"rt":1171,"stimulus":"\n\t\t\t\t\t<div>\n\t\t\t\t\t<h2>Trial 13 is over</h2>\n\t\t\t\t\t<p>Press <span style=\"color: red\"><strong>any key</strong></span> to continue to the next trial</p>\n\t\t\t\t\t</div>\n\t\t\t\t","response":" ","trial_type":"html-keyboard-response","trial_index":57,"time_elapsed":848481,"internal_node_id":"0.0-3.0-3.12","prolific_id":"620bdf2aa922fc3f247f706b","session_id":"643c252f772cbbf41693d8fb","study_id":"64370a36d30bfa807bc7e43c"},{"rt":9370,"response":{"prediction":"24"},"trial_type":"survey-text","trial_index":58,"time_elapsed":857853,"internal_node_id":"0.0-3.0-0.13","prolific_id":"620bdf2aa922fc3f247f706b","session_id":"643c252f772cbbf41693d8fb","study_id":"64370a36d30bfa807bc7e43c"},{"rt":5850,"response":{"prior knowledge":0,"curiosity":5},"accuracy":[],"trial_type":"survey","trial_index":59,"time_elapsed":863719,"internal_node_id":"0.0-3.0-1.13","prolific_id":"620bdf2aa922fc3f247f706b","session_id":"643c252f772cbbf41693d8fb","study_id":"64370a36d30bfa807bc7e43c"},{"rt":null,"stimulus":"\n\t\t\t<div class=\"flip_card\">\n\t\t\t\t<div class=\"flip_card_inner\">\n\t\t\t\t\t<div class=\"flip_card_front\">\n\t\t\t\t\t\t<img src=img/17.png>\n\t\t\t\t\t</div>\n\t\t\t\t\t<div class=\"flip_card_back\">\n\t\t\t\t\t\t<h2>How many tones are in the Vietnamese language?</h2>\n\t\t\t\t\t\t<br>\n\t\t\t\t\t\t<p>Answer: <strong>6</strong></p>\n\t\t\t\t\t</div>\n\t\t\t\t</div>\n\t\t\t</div>\n\t\t\t","response":null,"trial_type":"html-keyboard-response","trial_index":60,"time_elapsed":868726,"internal_node_id":"0.0-3.0-2.13","prolific_id":"620bdf2aa922fc3f247f706b","session_id":"643c252f772cbbf41693d8fb","study_id":"64370a36d30bfa807bc7e43c"},{"rt":2159,"stimulus":"\n\t\t\t\t\t<div>\n\t\t\t\t\t<h2>Trial 14 is over</h2>\n\t\t\t\t\t<p>Press <span style=\"color: red\"><strong>any key</strong></span> to continue to the next trial</p>\n\t\t\t\t\t</div>\n\t\t\t\t","response":" ","trial_type":"html-keyboard-response","trial_index":61,"time_elapsed":870886,"internal_node_id":"0.0-3.0-3.13","prolific_id":"620bdf2aa922fc3f247f706b","session_id":"643c252f772cbbf41693d8fb","study_id":"64370a36d30bfa807bc7e43c"},{"rt":4258,"response":{"prediction":"12"},"trial_type":"survey-text","trial_index":62,"time_elapsed":875146,"internal_node_id":"0.0-3.0-0.14","prolific_id":"620bdf2aa922fc3f247f706b","session_id":"643c252f772cbbf41693d8fb","study_id":"64370a36d30bfa807bc7e43c"},{"rt":5962,"response":{"prior knowledge":2,"curiosity":5},"accuracy":[],"trial_type":"survey","trial_index":63,"time_elapsed":881127,"internal_node_id":"0.0-3.0-1.14","prolific_id":"620bdf2aa922fc3f247f706b","session_id":"643c252f772cbbf41693d8fb","study_id":"64370a36d30bfa807bc7e43c"},{"rt":null,"stimulus":"\n\t\t\t<div class=\"flip_card\">\n\t\t\t\t<div class=\"flip_card_inner\">\n\t\t\t\t\t<div class=\"flip_card_front\">\n\t\t\t\t\t\t<img src=img/6.png>\n\t\t\t\t\t</div>\n\t\t\t\t\t<div class=\"flip_card_back\">\n\t\t\t\t\t\t<h2>How much is in a Baker's Dozen?</h2>\n\t\t\t\t\t\t<br>\n\t\t\t\t\t\t<p>Answer: <strong>13</strong></p>\n\t\t\t\t\t</div>\n\t\t\t\t</div>\n\t\t\t</div>\n\t\t\t","response":null,"trial_type":"html-keyboard-response","trial_index":64,"time_elapsed":886141,"internal_node_id":"0.0-3.0-2.14","prolific_id":"620bdf2aa922fc3f247f706b","session_id":"643c252f772cbbf41693d8fb","study_id":"64370a36d30bfa807bc7e43c"},{"rt":6802,"stimulus":"\n\t\t\t\t\t<div>\n\t\t\t\t\t<h2>Trial 15 is over</h2>\n\t\t\t\t\t<p>Press <span style=\"color: red\"><strong>any key</strong></span> to continue to the next trial</p>\n\t\t\t\t\t</div>\n\t\t\t\t","response":" ","trial_type":"html-keyboard-response","trial_index":65,"time_elapsed":892944,"internal_node_id":"0.0-3.0-3.14","prolific_id":"620bdf2aa922fc3f247f706b","session_id":"643c252f772cbbf41693d8fb","study_id":"64370a36d30bfa807bc7e43c"},{"rt":17718,"response":{"prediction":"1934"},"trial_type":"survey-text","trial_index":66,"time_elapsed":910664,"internal_node_id":"0.0-3.0-0.15","prolific_id":"620bdf2aa922fc3f247f706b","session_id":"643c252f772cbbf41693d8fb","study_id":"64370a36d30bfa807bc7e43c"},{"rt":5001,"response":{"prior knowledge":0,"curiosity":5},"accuracy":[],"trial_type":"survey","trial_index":67,"time_elapsed":915681,"internal_node_id":"0.0-3.0-1.15","prolific_id":"620bdf2aa922fc3f247f706b","session_id":"643c252f772cbbf41693d8fb","study_id":"64370a36d30bfa807bc7e43c"},{"rt":null,"stimulus":"\n\t\t\t<div class=\"flip_card\">\n\t\t\t\t<div class=\"flip_card_inner\">\n\t\t\t\t\t<div class=\"flip_card_front\">\n\t\t\t\t\t\t<img src=img/15.png>\n\t\t\t\t\t</div>\n\t\t\t\t\t<div class=\"flip_card_back\">\n\t\t\t\t\t\t<h2>What year did the Berlin Wall fall?</h2>\n\t\t\t\t\t\t<br>\n\t\t\t\t\t\t<p>Answer: <strong>1989</strong></p>\n\t\t\t\t\t</div>\n\t\t\t\t</div>\n\t\t\t</div>\n\t\t\t","response":null,"trial_type":"html-keyboard-response","trial_index":68,"time_elapsed":920698,"internal_node_id":"0.0-3.0-2.15","prolific_id":"620bdf2aa922fc3f247f706b","session_id":"643c252f772cbbf41693d8fb","study_id":"64370a36d30bfa807bc7e43c"},{"rt":92058,"stimulus":"\n\t\t\t\t\t<div>\n\t\t\t\t\t<h2>Trial 16 is over</h2>\n\t\t\t\t\t<p>Press <span style=\"color: red\"><strong>any key</strong></span> to continue to the next trial</p>\n\t\t\t\t\t</div>\n\t\t\t\t","response":" ","trial_type":"html-keyboard-response","trial_index":69,"time_elapsed":1012757,"internal_node_id":"0.0-3.0-3.15","prolific_id":"620bdf2aa922fc3f247f706b","session_id":"643c252f772cbbf41693d8fb","study_id":"64370a36d30bfa807bc7e43c"},{"rt":4823,"response":{"prediction":"7"},"trial_type":"survey-text","trial_index":70,"time_elapsed":1017582,"internal_node_id":"0.0-3.0-0.16","prolific_id":"620bdf2aa922fc3f247f706b","session_id":"643c252f772cbbf41693d8fb","study_id":"64370a36d30bfa807bc7e43c"},{"rt":4070,"response":{"prior knowledge":0,"curiosity":5},"accuracy":[],"trial_type":"survey","trial_index":71,"time_elapsed":1021670,"internal_node_id":"0.0-3.0-1.16","prolific_id":"620bdf2aa922fc3f247f706b","session_id":"643c252f772cbbf41693d8fb","study_id":"64370a36d30bfa807bc7e43c"},{"rt":null,"stimulus":"\n\t\t\t<div class=\"flip_card\">\n\t\t\t\t<div class=\"flip_card_inner\">\n\t\t\t\t\t<div class=\"flip_card_front\">\n\t\t\t\t\t\t<img src=img/26.png>\n\t\t\t\t\t</div>\n\t\t\t\t\t<div class=\"flip_card_back\">\n\t\t\t\t\t\t<h2>How many native species of kangaroos are found in Australia?</h2>\n\t\t\t\t\t\t<br>\n\t\t\t\t\t\t<p>Answer: <strong>4</strong></p>\n\t\t\t\t\t</div>\n\t\t\t\t</div>\n\t\t\t</div>\n\t\t\t","response":null,"trial_type":"html-keyboard-response","trial_index":72,"time_elapsed":1026683,"internal_node_id":"0.0-3.0-2.16","prolific_id":"620bdf2aa922fc3f247f706b","session_id":"643c252f772cbbf41693d8fb","study_id":"64370a36d30bfa807bc7e43c"},{"rt":161391,"stimulus":"\n\t\t\t\t\t<div>\n\t\t\t\t\t<h2>Trial 17 is over</h2>\n\t\t\t\t\t<p>Press <span style=\"color: red\"><strong>any key</strong></span> to continue to the next trial</p>\n\t\t\t\t\t</div>\n\t\t\t\t","response":" ","trial_type":"html-keyboard-response","trial_index":73,"time_elapsed":1188075,"internal_node_id":"0.0-3.0-3.16","prolific_id":"620bdf2aa922fc3f247f706b","session_id":"643c252f772cbbf41693d8fb","study_id":"64370a36d30bfa807bc7e43c"},{"rt":17836,"response":{"prediction":"98"},"trial_type":"survey-text","trial_index":74,"time_elapsed":1205912,"internal_node_id":"0.0-3.0-0.17","prolific_id":"620bdf2aa922fc3f247f706b","session_id":"643c252f772cbbf41693d8fb","study_id":"64370a36d30bfa807bc7e43c"},{"rt":9018,"response":{"prior knowledge":3,"curiosity":5},"accuracy":[],"trial_type":"survey","trial_index":75,"time_elapsed":1214947,"internal_node_id":"0.0-3.0-1.17","prolific_id":"620bdf2aa922fc3f247f706b","session_id":"643c252f772cbbf41693d8fb","study_id":"64370a36d30bfa807bc7e43c"},{"rt":null,"stimulus":"\n\t\t\t<div class=\"flip_card\">\n\t\t\t\t<div class=\"flip_card_inner\">\n\t\t\t\t\t<div class=\"flip_card_front\">\n\t\t\t\t\t\t<img src=img/2.png>\n\t\t\t\t\t</div>\n\t\t\t\t\t<div class=\"flip_card_back\">\n\t\t\t\t\t\t<h2>How many people are vegan globally (in millions)?</h2>\n\t\t\t\t\t\t<br>\n\t\t\t\t\t\t<p>Answer: <strong>79</strong></p>\n\t\t\t\t\t</div>\n\t\t\t\t</div>\n\t\t\t</div>\n\t\t\t","response":null,"trial_type":"html-keyboard-response","trial_index":76,"time_elapsed":1219957,"internal_node_id":"0.0-3.0-2.17","prolific_id":"620bdf2aa922fc3f247f706b","session_id":"643c252f772cbbf41693d8fb","study_id":"64370a36d30bfa807bc7e43c"},{"rt":1413,"stimulus":"\n\t\t\t\t\t<div>\n\t\t\t\t\t<h2>Trial 18 is over</h2>\n\t\t\t\t\t<p>Press <span style=\"color: red\"><strong>any key</strong></span> to continue to the next trial</p>\n\t\t\t\t\t</div>\n\t\t\t\t","response":" ","trial_type":"html-keyboard-response","trial_index":77,"time_elapsed":1221371,"internal_node_id":"0.0-3.0-3.17","prolific_id":"620bdf2aa922fc3f247f706b","session_id":"643c252f772cbbf41693d8fb","study_id":"64370a36d30bfa807bc7e43c"},{"rt":11822,"response":{"prediction":"4"},"trial_type":"survey-text","trial_index":78,"time_elapsed":1233196,"internal_node_id":"0.0-3.0-0.18","prolific_id":"620bdf2aa922fc3f247f706b","session_id":"643c252f772cbbf41693d8fb","study_id":"64370a36d30bfa807bc7e43c"},{"rt":4332,"response":{"prior knowledge":0,"curiosity":5},"accuracy":[],"trial_type":"survey","trial_index":79,"time_elapsed":1237546,"internal_node_id":"0.0-3.0-1.18","prolific_id":"620bdf2aa922fc3f247f706b","session_id":"643c252f772cbbf41693d8fb","study_id":"64370a36d30bfa807bc7e43c"},{"rt":null,"stimulus":"\n\t\t\t<div class=\"flip_card\">\n\t\t\t\t<div class=\"flip_card_inner\">\n\t\t\t\t\t<div class=\"flip_card_front\">\n\t\t\t\t\t\t<img src=img/12.png>\n\t\t\t\t\t</div>\n\t\t\t\t\t<div class=\"flip_card_back\">\n\t\t\t\t\t\t<h2>How many countries in Africa have French as the official language?</h2>\n\t\t\t\t\t\t<br>\n\t\t\t\t\t\t<p>Answer: <strong>21</strong></p>\n\t\t\t\t\t</div>\n\t\t\t\t</div>\n\t\t\t</div>\n\t\t\t","response":null,"trial_type":"html-keyboard-response","trial_index":80,"time_elapsed":1242562,"internal_node_id":"0.0-3.0-2.18","prolific_id":"620bdf2aa922fc3f247f706b","session_id":"643c252f772cbbf41693d8fb","study_id":"64370a36d30bfa807bc7e43c"},{"rt":30029,"stimulus":"\n\t\t\t\t\t<div>\n\t\t\t\t\t<h2>Trial 19 is over</h2>\n\t\t\t\t\t<p>Press <span style=\"color: red\"><strong>any key</strong></span> to continue to the next trial</p>\n\t\t\t\t\t</div>\n\t\t\t\t","response":" ","trial_type":"html-keyboard-response","trial_index":81,"time_elapsed":1272591,"internal_node_id":"0.0-3.0-3.18","prolific_id":"620bdf2aa922fc3f247f706b","session_id":"643c252f772cbbf41693d8fb","study_id":"64370a36d30bfa807bc7e43c"},{"rt":16918,"response":{"prediction":"20"},"trial_type":"survey-text","trial_index":82,"time_elapsed":1289512,"internal_node_id":"0.0-3.0-0.19","prolific_id":"620bdf2aa922fc3f247f706b","session_id":"643c252f772cbbf41693d8fb","study_id":"64370a36d30bfa807bc7e43c"},{"rt":4606,"response":{"prior knowledge":0,"curiosity":5},"accuracy":[],"trial_type":"survey","trial_index":83,"time_elapsed":1294134,"internal_node_id":"0.0-3.0-1.19","prolific_id":"620bdf2aa922fc3f247f706b","session_id":"643c252f772cbbf41693d8fb","study_id":"64370a36d30bfa807bc7e43c"},{"rt":null,"stimulus":"\n\t\t\t<div class=\"flip_card\">\n\t\t\t\t<div class=\"flip_card_inner\">\n\t\t\t\t\t<div class=\"flip_card_front\">\n\t\t\t\t\t\t<img src=img/13.png>\n\t\t\t\t\t</div>\n\t\t\t\t\t<div class=\"flip_card_back\">\n\t\t\t\t\t\t<h2>How many different animals (real or imaginary) are represented in the Chinese calendar?</h2>\n\t\t\t\t\t\t<br>\n\t\t\t\t\t\t<p>Answer: <strong>12</strong></p>\n\t\t\t\t\t</div>\n\t\t\t\t</div>\n\t\t\t</div>\n\t\t\t","response":null,"trial_type":"html-keyboard-response","trial_index":84,"time_elapsed":1299136,"internal_node_id":"0.0-3.0-2.19","prolific_id":"620bdf2aa922fc3f247f706b","session_id":"643c252f772cbbf41693d8fb","study_id":"64370a36d30bfa807bc7e43c"},{"rt":327769,"stimulus":"\n\t\t\t\t\t<div>\n\t\t\t\t\t<h2>Trial 20 is over</h2>\n\t\t\t\t\t<p>Press <span style=\"color: red\"><strong>any key</strong></span> to continue to the next trial</p>\n\t\t\t\t\t</div>\n\t\t\t\t","response":" ","trial_type":"html-keyboard-response","trial_index":85,"time_elapsed":1626906,"internal_node_id":"0.0-3.0-3.19","prolific_id":"620bdf2aa922fc3f247f706b","session_id":"643c252f772cbbf41693d8fb","study_id":"64370a36d30bfa807bc7e43c"},{"rt":13085,"response":{"prediction":"16"},"trial_type":"survey-text","trial_index":86,"time_elapsed":1639994,"internal_node_id":"0.0-3.0-0.20","prolific_id":"620bdf2aa922fc3f247f706b","session_id":"643c252f772cbbf41693d8fb","study_id":"64370a36d30bfa807bc7e43c"},{"rt":5237,"response":{"prior knowledge":0,"curiosity":5},"accuracy":[],"trial_type":"survey","trial_index":87,"time_elapsed":1645248,"internal_node_id":"0.0-3.0-1.20","prolific_id":"620bdf2aa922fc3f247f706b","session_id":"643c252f772cbbf41693d8fb","study_id":"64370a36d30bfa807bc7e43c"},{"rt":null,"stimulus":"\n\t\t\t<div class=\"flip_card\">\n\t\t\t\t<div class=\"flip_card_inner\">\n\t\t\t\t\t<div class=\"flip_card_front\">\n\t\t\t\t\t\t<img src=img/11.png>\n\t\t\t\t\t</div>\n\t\t\t\t\t<div class=\"flip_card_back\">\n\t\t\t\t\t\t<h2>A bar mitzvah is traditionally celebrated when Jewish males turn what age?</h2>\n\t\t\t\t\t\t<br>\n\t\t\t\t\t\t<p>Answer: <strong>13</strong></p>\n\t\t\t\t\t</div>\n\t\t\t\t</div>\n\t\t\t</div>\n\t\t\t","response":null,"trial_type":"html-keyboard-response","trial_index":88,"time_elapsed":1650254,"internal_node_id":"0.0-3.0-2.20","prolific_id":"620bdf2aa922fc3f247f706b","session_id":"643c252f772cbbf41693d8fb","study_id":"64370a36d30bfa807bc7e43c"},{"rt":2943,"stimulus":"\n\t\t\t\t\t<div>\n\t\t\t\t\t<h2>Trial 21 is over</h2>\n\t\t\t\t\t<p>Press <span style=\"color: red\"><strong>any key</strong></span> to continue to the next trial</p>\n\t\t\t\t\t</div>\n\t\t\t\t","response":" ","trial_type":"html-keyboard-response","trial_index":89,"time_elapsed":1653198,"internal_node_id":"0.0-3.0-3.20","prolific_id":"620bdf2aa922fc3f247f706b","session_id":"643c252f772cbbf41693d8fb","study_id":"64370a36d30bfa807bc7e43c"},{"rt":5904,"response":{"prediction":"3"},"trial_type":"survey-text","trial_index":90,"time_elapsed":1659104,"internal_node_id":"0.0-3.0-0.21","prolific_id":"620bdf2aa922fc3f247f706b","session_id":"643c252f772cbbf41693d8fb","study_id":"64370a36d30bfa807bc7e43c"},{"rt":3175,"response":{"prior knowledge":0,"curiosity":5},"accuracy":[],"trial_type":"survey","trial_index":91,"time_elapsed":1662295,"internal_node_id":"0.0-3.0-1.21","prolific_id":"620bdf2aa922fc3f247f706b","session_id":"643c252f772cbbf41693d8fb","study_id":"64370a36d30bfa807bc7e43c"},{"rt":null,"stimulus":"\n\t\t\t<div class=\"flip_card\">\n\t\t\t\t<div class=\"flip_card_inner\">\n\t\t\t\t\t<div class=\"flip_card_front\">\n\t\t\t\t\t\t<img src=img/19.png>\n\t\t\t\t\t</div>\n\t\t\t\t\t<div class=\"flip_card_back\">\n\t\t\t\t\t\t<h2>How many countries have territory in the Arctic Circle?</h2>\n\t\t\t\t\t\t<br>\n\t\t\t\t\t\t<p>Answer: <strong>8</strong></p>\n\t\t\t\t\t</div>\n\t\t\t\t</div>\n\t\t\t</div>\n\t\t\t","response":null,"trial_type":"html-keyboard-response","trial_index":92,"time_elapsed":1667312,"internal_node_id":"0.0-3.0-2.21","prolific_id":"620bdf2aa922fc3f247f706b","session_id":"643c252f772cbbf41693d8fb","study_id":"64370a36d30bfa807bc7e43c"},{"rt":847,"stimulus":"\n\t\t\t\t\t<div>\n\t\t\t\t\t<h2>Trial 22 is over</h2>\n\t\t\t\t\t<p>Press <span style=\"color: red\"><strong>any key</strong></span> to continue to the next trial</p>\n\t\t\t\t\t</div>\n\t\t\t\t","response":" ","trial_type":"html-keyboard-response","trial_index":93,"time_elapsed":1668160,"internal_node_id":"0.0-3.0-3.21","prolific_id":"620bdf2aa922fc3f247f706b","session_id":"643c252f772cbbf41693d8fb","study_id":"64370a36d30bfa807bc7e43c"},{"rt":9549,"response":{"prediction":"364"},"trial_type":"survey-text","trial_index":94,"time_elapsed":1677711,"internal_node_id":"0.0-3.0-0.22","prolific_id":"620bdf2aa922fc3f247f706b","session_id":"643c252f772cbbf41693d8fb","study_id":"64370a36d30bfa807bc7e43c"},{"rt":5211,"response":{"prior knowledge":0,"curiosity":5},"accuracy":[],"trial_type":"survey","trial_index":95,"time_elapsed":1682940,"internal_node_id":"0.0-3.0-1.22","prolific_id":"620bdf2aa922fc3f247f706b","session_id":"643c252f772cbbf41693d8fb","study_id":"64370a36d30bfa807bc7e43c"},{"rt":null,"stimulus":"\n\t\t\t<div class=\"flip_card\">\n\t\t\t\t<div class=\"flip_card_inner\">\n\t\t\t\t\t<div class=\"flip_card_front\">\n\t\t\t\t\t\t<img src=img/10.png>\n\t\t\t\t\t</div>\n\t\t\t\t\t<div class=\"flip_card_back\">\n\t\t\t\t\t\t<h2>How many floors are in the Burj Khalifa, the tallest building in the world?</h2>\n\t\t\t\t\t\t<br>\n\t\t\t\t\t\t<p>Answer: <strong>163</strong></p>\n\t\t\t\t\t</div>\n\t\t\t\t</div>\n\t\t\t</div>\n\t\t\t","response":null,"trial_type":"html-keyboard-response","trial_index":96,"time_elapsed":1687957,"internal_node_id":"0.0-3.0-2.22","prolific_id":"620bdf2aa922fc3f247f706b","session_id":"643c252f772cbbf41693d8fb","study_id":"64370a36d30bfa807bc7e43c"},{"rt":770,"stimulus":"\n\t\t\t\t\t<div>\n\t\t\t\t\t<h2>Trial 23 is over</h2>\n\t\t\t\t\t<p>Press <span style=\"color: red\"><strong>any key</strong></span> to continue to the next trial</p>\n\t\t\t\t\t</div>\n\t\t\t\t","response":" ","trial_type":"html-keyboard-response","trial_index":97,"time_elapsed":1688727,"internal_node_id":"0.0-3.0-3.22","prolific_id":"620bdf2aa922fc3f247f706b","session_id":"643c252f772cbbf41693d8fb","study_id":"64370a36d30bfa807bc7e43c"},{"rt":7726,"response":{"prediction":"37"},"trial_type":"survey-text","trial_index":98,"time_elapsed":1696455,"internal_node_id":"0.0-3.0-0.23","prolific_id":"620bdf2aa922fc3f247f706b","session_id":"643c252f772cbbf41693d8fb","study_id":"64370a36d30bfa807bc7e43c"},{"rt":3865,"response":{"prior knowledge":0,"curiosity":5},"accuracy":[],"trial_type":"survey","trial_index":99,"time_elapsed":1700336,"internal_node_id":"0.0-3.0-1.23","prolific_id":"620bdf2aa922fc3f247f706b","session_id":"643c252f772cbbf41693d8fb","study_id":"64370a36d30bfa807bc7e43c"},{"rt":null,"stimulus":"\n\t\t\t<div class=\"flip_card\">\n\t\t\t\t<div class=\"flip_card_inner\">\n\t\t\t\t\t<div class=\"flip_card_front\">\n\t\t\t\t\t\t<img src=img/25.png>\n\t\t\t\t\t</div>\n\t\t\t\t\t<div class=\"flip_card_back\">\n\t\t\t\t\t\t<h2>How old was King Tut when he died?</h2>\n\t\t\t\t\t\t<br>\n\t\t\t\t\t\t<p>Answer: <strong>19</strong></p>\n\t\t\t\t\t</div>\n\t\t\t\t</div>\n\t\t\t</div>\n\t\t\t","response":null,"trial_type":"html-keyboard-response","trial_index":100,"time_elapsed":1705337,"internal_node_id":"0.0-3.0-2.23","prolific_id":"620bdf2aa922fc3f247f706b","session_id":"643c252f772cbbf41693d8fb","study_id":"64370a36d30bfa807bc7e43c"},{"rt":5390,"stimulus":"\n\t\t\t\t\t<div>\n\t\t\t\t\t<h2>Trial 24 is over</h2>\n\t\t\t\t\t<p>Press <span style=\"color: red\"><strong>any key</strong></span> to continue to the next trial</p>\n\t\t\t\t\t</div>\n\t\t\t\t","response":" ","trial_type":"html-keyboard-response","trial_index":101,"time_elapsed":1710728,"internal_node_id":"0.0-3.0-3.23","prolific_id":"620bdf2aa922fc3f247f706b","session_id":"643c252f772cbbf41693d8fb","study_id":"64370a36d30bfa807bc7e43c"},{"rt":10230,"response":{"prediction":"1962"},"trial_type":"survey-text","trial_index":102,"time_elapsed":1720960,"internal_node_id":"0.0-3.0-0.24","prolific_id":"620bdf2aa922fc3f247f706b","session_id":"643c252f772cbbf41693d8fb","study_id":"64370a36d30bfa807bc7e43c"},{"rt":27797,"response":{"prior knowledge":0,"curiosity":5},"accuracy":[],"trial_type":"survey","trial_index":103,"time_elapsed":1748780,"internal_node_id":"0.0-3.0-1.24","prolific_id":"620bdf2aa922fc3f247f706b","session_id":"643c252f772cbbf41693d8fb","study_id":"64370a36d30bfa807bc7e43c"},{"rt":null,"stimulus":"\n\t\t\t<div class=\"flip_card\">\n\t\t\t\t<div class=\"flip_card_inner\">\n\t\t\t\t\t<div class=\"flip_card_front\">\n\t\t\t\t\t\t<img src=img/1.png>\n\t\t\t\t\t</div>\n\t\t\t\t\t<div class=\"flip_card_back\">\n\t\t\t\t\t\t<h2>What year did the titanic sink?</h2>\n\t\t\t\t\t\t<br>\n\t\t\t\t\t\t<p>Answer: <strong>1912</strong></p>\n\t\t\t\t\t</div>\n\t\t\t\t</div>\n\t\t\t</div>\n\t\t\t","response":null,"trial_type":"html-keyboard-response","trial_index":104,"time_elapsed":1753790,"internal_node_id":"0.0-3.0-2.24","prolific_id":"620bdf2aa922fc3f247f706b","session_id":"643c252f772cbbf41693d8fb","study_id":"64370a36d30bfa807bc7e43c"},{"rt":1770,"stimulus":"\n\t\t\t\t\t<div>\n\t\t\t\t\t<h2>Trial 25 is over</h2>\n\t\t\t\t\t<p>Press <span style=\"color: red\"><strong>any key</strong></span> to continue to the next trial</p>\n\t\t\t\t\t</div>\n\t\t\t\t","response":" ","trial_type":"html-keyboard-response","trial_index":105,"time_elapsed":1755561,"internal_node_id":"0.0-3.0-3.24","prolific_id":"620bdf2aa922fc3f247f706b","session_id":"643c252f772cbbf41693d8fb","study_id":"64370a36d30bfa807bc7e43c"},{"rt":7487,"response":{"prediction":"1934"},"trial_type":"survey-text","trial_index":106,"time_elapsed":1763050,"internal_node_id":"0.0-3.0-0.25","prolific_id":"620bdf2aa922fc3f247f706b","session_id":"643c252f772cbbf41693d8fb","study_id":"64370a36d30bfa807bc7e43c"},{"rt":11956,"response":{"prior knowledge":0,"curiosity":5},"accuracy":[],"trial_type":"survey","trial_index":107,"time_elapsed":1775023,"internal_node_id":"0.0-3.0-1.25","prolific_id":"620bdf2aa922fc3f247f706b","session_id":"643c252f772cbbf41693d8fb","study_id":"64370a36d30bfa807bc7e43c"},{"rt":null,"stimulus":"\n\t\t\t<div class=\"flip_card\">\n\t\t\t\t<div class=\"flip_card_inner\">\n\t\t\t\t\t<div class=\"flip_card_front\">\n\t\t\t\t\t\t<img src=img/7.png>\n\t\t\t\t\t</div>\n\t\t\t\t\t<div class=\"flip_card_back\">\n\t\t\t\t\t\t<h2>In what year was the first Nobel Prize awarded?</h2>\n\t\t\t\t\t\t<br>\n\t\t\t\t\t\t<p>Answer: <strong>1901</strong></p>\n\t\t\t\t\t</div>\n\t\t\t\t</div>\n\t\t\t</div>\n\t\t\t","response":null,"trial_type":"html-keyboard-response","trial_index":108,"time_elapsed":1780027,"internal_node_id":"0.0-3.0-2.25","prolific_id":"620bdf2aa922fc3f247f706b","session_id":"643c252f772cbbf41693d8fb","study_id":"64370a36d30bfa807bc7e43c"},{"rt":3949,"stimulus":"\n\t\t\t\t\t<div>\n\t\t\t\t\t<h2>Trial 26 is over</h2>\n\t\t\t\t\t<p>Press <span style=\"color: red\"><strong>any key</strong></span> to continue to the next trial</p>\n\t\t\t\t\t</div>\n\t\t\t\t","response":" ","trial_type":"html-keyboard-response","trial_index":109,"time_elapsed":1783978,"internal_node_id":"0.0-3.0-3.25","prolific_id":"620bdf2aa922fc3f247f706b","session_id":"643c252f772cbbf41693d8fb","study_id":"64370a36d30bfa807bc7e43c"},{"rt":5678,"response":{"prediction":"12"},"trial_type":"survey-text","trial_index":110,"time_elapsed":1789657,"internal_node_id":"0.0-3.0-0.26","prolific_id":"620bdf2aa922fc3f247f706b","session_id":"643c252f772cbbf41693d8fb","study_id":"64370a36d30bfa807bc7e43c"},{"rt":299642,"response":{"prior knowledge":0,"curiosity":5},"accuracy":[],"trial_type":"survey","trial_index":111,"time_elapsed":2089322,"internal_node_id":"0.0-3.0-1.26","prolific_id":"620bdf2aa922fc3f247f706b","session_id":"643c252f772cbbf41693d8fb","study_id":"64370a36d30bfa807bc7e43c"},{"rt":null,"stimulus":"\n\t\t\t<div class=\"flip_card\">\n\t\t\t\t<div class=\"flip_card_inner\">\n\t\t\t\t\t<div class=\"flip_card_front\">\n\t\t\t\t\t\t<img src=img/9.png>\n\t\t\t\t\t</div>\n\t\t\t\t\t<div class=\"flip_card_back\">\n\t\t\t\t\t\t<h2>How many moons does Neptune have?</h2>\n\t\t\t\t\t\t<br>\n\t\t\t\t\t\t<p>Answer: <strong>14</strong></p>\n\t\t\t\t\t</div>\n\t\t\t\t</div>\n\t\t\t</div>\n\t\t\t","response":null,"trial_type":"html-keyboard-response","trial_index":112,"time_elapsed":2094334,"internal_node_id":"0.0-3.0-2.26","prolific_id":"620bdf2aa922fc3f247f706b","session_id":"643c252f772cbbf41693d8fb","study_id":"64370a36d30bfa807bc7e43c"},{"rt":5425,"stimulus":"\n\t\t\t\t\t<div>\n\t\t\t\t\t<h2>Trial 27 is over</h2>\n\t\t\t\t\t<p>Press <span style=\"color: red\"><strong>any key</strong></span> to continue to the next trial</p>\n\t\t\t\t\t</div>\n\t\t\t\t","response":" ","trial_type":"html-keyboard-response","trial_index":113,"time_elapsed":2099760,"internal_node_id":"0.0-3.0-3.26","prolific_id":"620bdf2aa922fc3f247f706b","session_id":"643c252f772cbbf41693d8fb","study_id":"64370a36d30bfa807bc7e43c"},{"rt":11105,"response":{"prediction":"2898"},"trial_type":"survey-text","trial_index":114,"time_elapsed":2110866,"internal_node_id":"0.0-3.0-0.27","prolific_id":"620bdf2aa922fc3f247f706b","session_id":"643c252f772cbbf41693d8fb","study_id":"64370a36d30bfa807bc7e43c"},{"rt":4784,"response":{"prior knowledge":0,"curiosity":5},"accuracy":[],"trial_type":"survey","trial_index":115,"time_elapsed":2115667,"internal_node_id":"0.0-3.0-1.27","prolific_id":"620bdf2aa922fc3f247f706b","session_id":"643c252f772cbbf41693d8fb","study_id":"64370a36d30bfa807bc7e43c"},{"rt":null,"stimulus":"\n\t\t\t<div class=\"flip_card\">\n\t\t\t\t<div class=\"flip_card_inner\">\n\t\t\t\t\t<div class=\"flip_card_front\">\n\t\t\t\t\t\t<img src=img/29.png>\n\t\t\t\t\t</div>\n\t\t\t\t\t<div class=\"flip_card_back\">\n\t\t\t\t\t\t<h2>What is the diameter of Earth in miles?</h2>\n\t\t\t\t\t\t<br>\n\t\t\t\t\t\t<p>Answer: <strong>7917.5</strong></p>\n\t\t\t\t\t</div>\n\t\t\t\t</div>\n\t\t\t</div>\n\t\t\t","response":null,"trial_type":"html-keyboard-response","trial_index":116,"time_elapsed":2120669,"internal_node_id":"0.0-3.0-2.27","prolific_id":"620bdf2aa922fc3f247f706b","session_id":"643c252f772cbbf41693d8fb","study_id":"64370a36d30bfa807bc7e43c"},{"rt":1049,"stimulus":"\n\t\t\t\t\t<div>\n\t\t\t\t\t<h2>Trial 28 is over</h2>\n\t\t\t\t\t<p>Press <span style=\"color: red\"><strong>any key</strong></span> to continue to the next trial</p>\n\t\t\t\t\t</div>\n\t\t\t\t","response":" ","trial_type":"html-keyboard-response","trial_index":117,"time_elapsed":2121718,"internal_node_id":"0.0-3.0-3.27","prolific_id":"620bdf2aa922fc3f247f706b","session_id":"643c252f772cbbf41693d8fb","study_id":"64370a36d30bfa807bc7e43c"},{"rt":8290,"response":{"prediction":"19"},"trial_type":"survey-text","trial_index":118,"time_elapsed":2130010,"internal_node_id":"0.0-3.0-0.28","prolific_id":"620bdf2aa922fc3f247f706b","session_id":"643c252f772cbbf41693d8fb","study_id":"64370a36d30bfa807bc7e43c"},{"rt":3408,"response":{"prior knowledge":0,"curiosity":5},"accuracy":[],"trial_type":"survey","trial_index":119,"time_elapsed":2133434,"internal_node_id":"0.0-3.0-1.28","prolific_id":"620bdf2aa922fc3f247f706b","session_id":"643c252f772cbbf41693d8fb","study_id":"64370a36d30bfa807bc7e43c"},{"rt":null,"stimulus":"\n\t\t\t<div class=\"flip_card\">\n\t\t\t\t<div class=\"flip_card_inner\">\n\t\t\t\t\t<div class=\"flip_card_front\">\n\t\t\t\t\t\t<img src=img/23.png>\n\t\t\t\t\t</div>\n\t\t\t\t\t<div class=\"flip_card_back\">\n\t\t\t\t\t\t<h2>How many countries are in Africa?</h2>\n\t\t\t\t\t\t<br>\n\t\t\t\t\t\t<p>Answer: <strong>54</strong></p>\n\t\t\t\t\t</div>\n\t\t\t\t</div>\n\t\t\t</div>\n\t\t\t","response":null,"trial_type":"html-keyboard-response","trial_index":120,"time_elapsed":2138449,"internal_node_id":"0.0-3.0-2.28","prolific_id":"620bdf2aa922fc3f247f706b","session_id":"643c252f772cbbf41693d8fb","study_id":"64370a36d30bfa807bc7e43c"},{"rt":11538,"stimulus":"\n\t\t\t\t\t<div>\n\t\t\t\t\t<h2>Trial 29 is over</h2>\n\t\t\t\t\t<p>Press <span style=\"color: red\"><strong>any key</strong></span> to continue to the next trial</p>\n\t\t\t\t\t</div>\n\t\t\t\t","response":" ","trial_type":"html-keyboard-response","trial_index":121,"time_elapsed":2149988,"internal_node_id":"0.0-3.0-3.28","prolific_id":"620bdf2aa922fc3f247f706b","session_id":"643c252f772cbbf41693d8fb","study_id":"64370a36d30bfa807bc7e43c"},{"rt":31546,"response":{"prediction":"7"},"trial_type":"survey-text","trial_index":122,"time_elapsed":2181536,"internal_node_id":"0.0-3.0-0.29","prolific_id":"620bdf2aa922fc3f247f706b","session_id":"643c252f772cbbf41693d8fb","study_id":"64370a36d30bfa807bc7e43c"},{"rt":5652,"response":{"prior knowledge":0,"curiosity":5},"accuracy":[],"trial_type":"survey","trial_index":123,"time_elapsed":2187207,"internal_node_id":"0.0-3.0-1.29","prolific_id":"620bdf2aa922fc3f247f706b","session_id":"643c252f772cbbf41693d8fb","study_id":"64370a36d30bfa807bc7e43c"},{"rt":null,"stimulus":"\n\t\t\t<div class=\"flip_card\">\n\t\t\t\t<div class=\"flip_card_inner\">\n\t\t\t\t\t<div class=\"flip_card_front\">\n\t\t\t\t\t\t<img src=img/8.png>\n\t\t\t\t\t</div>\n\t\t\t\t\t<div class=\"flip_card_back\">\n\t\t\t\t\t\t<h2>How many constellations are there?</h2>\n\t\t\t\t\t\t<br>\n\t\t\t\t\t\t<p>Answer: <strong>88</strong></p>\n\t\t\t\t\t</div>\n\t\t\t\t</div>\n\t\t\t</div>\n\t\t\t","response":null,"trial_type":"html-keyboard-response","trial_index":124,"time_elapsed":2192214,"internal_node_id":"0.0-3.0-2.29","prolific_id":"620bdf2aa922fc3f247f706b","session_id":"643c252f772cbbf41693d8fb","study_id":"64370a36d30bfa807bc7e43c"},{"rt":2176,"stimulus":"\n\t\t\t\t\t<div>\n\t\t\t\t\t<h2>Trial 30 is over</h2>\n\t\t\t\t\t<p>Press <span style=\"color: red\"><strong>any key</strong></span> to continue to the next trial</p>\n\t\t\t\t\t</div>\n\t\t\t\t","response":" ","trial_type":"html-keyboard-response","trial_index":125,"time_elapsed":2194391,"internal_node_id":"0.0-3.0-3.29","prolific_id":"620bdf2aa922fc3f247f706b","session_id":"643c252f772cbbf41693d8fb","study_id":"64370a36d30bfa807bc7e43c"},{"rt":null,"stimulus":"\n\t\t\t<h2>Good job! You've finished the 30 trials:p</h2>\n\t\t\t<p>In the next session, you will see two cards on the screen in each trial.</p>\n\t\t\t<p>On one card is a pattern that you have seen before in the experiment,\n\t\t\t\tand on the other card is one you have not seen.</p><br>\n\t\t\t<p>Your task is to choose the one you think you <em>have</em> seen before for every trial.</p>\n\t\t\t<p>Press '<span style=\"color: red;\"><strong>F</strong></span>' to choose the card on the left,\n\t\t\t\tand '<span style=\"color: red;\"><strong>J</strong></span>' to choose the card on the right.</p>\n\t\t\t<p>Have fun!</p>\n\t\t\t<br>\n\t\t\t<p>The trials will begin in 30 seconds</p>\n\t\t\t","response":null,"trial_type":"html-keyboard-response","trial_index":126,"time_elapsed":2224398,"internal_node_id":"0.0-4.0","prolific_id":"620bdf2aa922fc3f247f706b","session_id":"643c252f772cbbf41693d8fb","study_id":"64370a36d30bfa807bc7e43c"},{"rt":10272,"stimulus":"\n\t\t\t\t\t\t<div class=\"two_card_container\">\n\t\t\t\t\t\t<div class=\"card_container\">\n\t\t\t\t\t\t<img src=img/24.png>\n\t\t\t\t\t\t</div>\n\n\t\t\t\t\t\t<div class=\"card_container\">\n\t\t\t\t\t\t<img src=img/39.png>\n\t\t\t\t\t\t</div>","response":"f","task":"response","correct_response":"f","trial_type":"html-keyboard-response","trial_index":127,"time_elapsed":2234672,"internal_node_id":"0.0-5.0-0.0","prolific_id":"620bdf2aa922fc3f247f706b","session_id":"643c252f772cbbf41693d8fb","study_id":"64370a36d30bfa807bc7e43c","correct":true},{"rt":null,"stimulus":"\n\t\t\t\t\t<p>Correct!</p>\n\t\t\t\t\t","response":null,"trial_type":"html-keyboard-response","trial_index":128,"time_elapsed":2235687,"internal_node_id":"0.0-5.0-1.0","prolific_id":"620bdf2aa922fc3f247f706b","session_id":"643c252f772cbbf41693d8fb","study_id":"64370a36d30bfa807bc7e43c"},{"rt":4419,"stimulus":"\n\t\t\t\t\t\t<div class=\"two_card_container\">\n\t\t\t\t\t\t<div class=\"card_container\">\n\t\t\t\t\t\t<img src=img/32.png>\n\t\t\t\t\t\t</div>\n\n\t\t\t\t\t\t<div class=\"card_container\">\n\t\t\t\t\t\t<img src=img/16.png>\n\t\t\t\t\t\t</div>","response":"j","task":"response","correct_response":"j","trial_type":"html-keyboard-response","trial_index":129,"time_elapsed":2240107,"internal_node_id":"0.0-5.0-0.1","prolific_id":"620bdf2aa922fc3f247f706b","session_id":"643c252f772cbbf41693d8fb","study_id":"64370a36d30bfa807bc7e43c","correct":true},{"rt":null,"stimulus":"\n\t\t\t\t\t<p>Correct!</p>\n\t\t\t\t\t","response":null,"trial_type":"html-keyboard-response","trial_index":130,"time_elapsed":2241110,"internal_node_id":"0.0-5.0-1.1","prolific_id":"620bdf2aa922fc3f247f706b","session_id":"643c252f772cbbf41693d8fb","study_id":"64370a36d30bfa807bc7e43c"},{"rt":1920,"stimulus":"\n\t\t\t\t\t\t<div class=\"two_card_container\">\n\t\t\t\t\t\t<div class=\"card_container\">\n\t\t\t\t\t\t<img src=img/36.png>\n\t\t\t\t\t\t</div>\n\n\t\t\t\t\t\t<div class=\"card_container\">\n\t\t\t\t\t\t<img src=img/4.png>\n\t\t\t\t\t\t</div>","response":"j","task":"response","correct_response":"j","trial_type":"html-keyboard-response","trial_index":131,"time_elapsed":2243031,"internal_node_id":"0.0-5.0-0.2","prolific_id":"620bdf2aa922fc3f247f706b","session_id":"643c252f772cbbf41693d8fb","study_id":"64370a36d30bfa807bc7e43c","correct":true},{"rt":null,"stimulus":"\n\t\t\t\t\t<p>Correct!</p>\n\t\t\t\t\t","response":null,"trial_type":"html-keyboard-response","trial_index":132,"time_elapsed":2244042,"internal_node_id":"0.0-5.0-1.2","prolific_id":"620bdf2aa922fc3f247f706b","session_id":"643c252f772cbbf41693d8fb","study_id":"64370a36d30bfa807bc7e43c"},{"rt":1369,"stimulus":"\n\t\t\t\t\t\t<div class=\"two_card_container\">\n\t\t\t\t\t\t<div class=\"card_container\">\n\t\t\t\t\t\t<img src=img/40.png>\n\t\t\t\t\t\t</div>\n\n\t\t\t\t\t\t<div class=\"card_container\">\n\t\t\t\t\t\t<img src=img/20.png>\n\t\t\t\t\t\t</div>","response":"j","task":"response","correct_response":"j","trial_type":"html-keyboard-response","trial_index":133,"time_elapsed":2245412,"internal_node_id":"0.0-5.0-0.3","prolific_id":"620bdf2aa922fc3f247f706b","session_id":"643c252f772cbbf41693d8fb","study_id":"64370a36d30bfa807bc7e43c","correct":true},{"rt":null,"stimulus":"\n\t\t\t\t\t<p>Correct!</p>\n\t\t\t\t\t","response":null,"trial_type":"html-keyboard-response","trial_index":134,"time_elapsed":2246413,"internal_node_id":"0.0-5.0-1.3","prolific_id":"620bdf2aa922fc3f247f706b","session_id":"643c252f772cbbf41693d8fb","study_id":"64370a36d30bfa807bc7e43c"},{"rt":1093,"stimulus":"\n\t\t\t\t\t\t<div class=\"two_card_container\">\n\t\t\t\t\t\t<div class=\"card_container\">\n\t\t\t\t\t\t<img src=img/18.png>\n\t\t\t\t\t\t</div>\n\n\t\t\t\t\t\t<div class=\"card_container\">\n\t\t\t\t\t\t<img src=img/34.png>\n\t\t\t\t\t\t</div>","response":"f","task":"response","correct_response":"f","trial_type":"html-keyboard-response","trial_index":135,"time_elapsed":2247507,"internal_node_id":"0.0-5.0-0.4","prolific_id":"620bdf2aa922fc3f247f706b","session_id":"643c252f772cbbf41693d8fb","study_id":"64370a36d30bfa807bc7e43c","correct":true},{"rt":null,"stimulus":"\n\t\t\t\t\t<p>Correct!</p>\n\t\t\t\t\t","response":null,"trial_type":"html-keyboard-response","trial_index":136,"time_elapsed":2248518,"internal_node_id":"0.0-5.0-1.4","prolific_id":"620bdf2aa922fc3f247f706b","session_id":"643c252f772cbbf41693d8fb","study_id":"64370a36d30bfa807bc7e43c"},{"rt":1002,"stimulus":"\n\t\t\t\t\t\t<div class=\"two_card_container\">\n\t\t\t\t\t\t<div class=\"card_container\">\n\t\t\t\t\t\t<img src=img/33.png>\n\t\t\t\t\t\t</div>\n\n\t\t\t\t\t\t<div class=\"card_container\">\n\t\t\t\t\t\t<img src=img/17.png>\n\t\t\t\t\t\t</div>","response":"j","task":"response","correct_response":"j","trial_type":"html-keyboard-response","trial_index":137,"time_elapsed":2249521,"internal_node_id":"0.0-5.0-0.5","prolific_id":"620bdf2aa922fc3f247f706b","session_id":"643c252f772cbbf41693d8fb","study_id":"64370a36d30bfa807bc7e43c","correct":true},{"rt":null,"stimulus":"\n\t\t\t\t\t<p>Correct!</p>\n\t\t\t\t\t","response":null,"trial_type":"html-keyboard-response","trial_index":138,"time_elapsed":2250523,"internal_node_id":"0.0-5.0-1.5","prolific_id":"620bdf2aa922fc3f247f706b","session_id":"643c252f772cbbf41693d8fb","study_id":"64370a36d30bfa807bc7e43c"},{"rt":1266,"stimulus":"\n\t\t\t\t\t\t<div class=\"two_card_container\">\n\t\t\t\t\t\t<div class=\"card_container\">\n\t\t\t\t\t\t<img src=img/9.png>\n\t\t\t\t\t\t</div>\n\n\t\t\t\t\t\t<div class=\"card_container\">\n\t\t\t\t\t\t<img src=img/31.png>\n\t\t\t\t\t\t</div>","response":"f","task":"response","correct_response":"f","trial_type":"html-keyboard-response","trial_index":139,"time_elapsed":2251791,"internal_node_id":"0.0-5.0-0.6","prolific_id":"620bdf2aa922fc3f247f706b","session_id":"643c252f772cbbf41693d8fb","study_id":"64370a36d30bfa807bc7e43c","correct":true},{"rt":null,"stimulus":"\n\t\t\t\t\t<p>Correct!</p>\n\t\t\t\t\t","response":null,"trial_type":"html-keyboard-response","trial_index":140,"time_elapsed":2252792,"internal_node_id":"0.0-5.0-1.6","prolific_id":"620bdf2aa922fc3f247f706b","session_id":"643c252f772cbbf41693d8fb","study_id":"64370a36d30bfa807bc7e43c"},{"rt":1352,"stimulus":"\n\t\t\t\t\t\t<div class=\"two_card_container\">\n\t\t\t\t\t\t<div class=\"card_container\">\n\t\t\t\t\t\t<img src=img/30.png>\n\t\t\t\t\t\t</div>\n\n\t\t\t\t\t\t<div class=\"card_container\">\n\t\t\t\t\t\t<img src=img/37.png>\n\t\t\t\t\t\t</div>","response":"f","task":"response","correct_response":"f","trial_type":"html-keyboard-response","trial_index":141,"time_elapsed":2254145,"internal_node_id":"0.0-5.0-0.7","prolific_id":"620bdf2aa922fc3f247f706b","session_id":"643c252f772cbbf41693d8fb","study_id":"64370a36d30bfa807bc7e43c","correct":true},{"rt":null,"stimulus":"\n\t\t\t\t\t<p>Correct!</p>\n\t\t\t\t\t","response":null,"trial_type":"html-keyboard-response","trial_index":142,"time_elapsed":2255155,"internal_node_id":"0.0-5.0-1.7","prolific_id":"620bdf2aa922fc3f247f706b","session_id":"643c252f772cbbf41693d8fb","study_id":"64370a36d30bfa807bc7e43c"},{"rt":1268,"stimulus":"\n\t\t\t\t\t\t<div class=\"two_card_container\">\n\t\t\t\t\t\t<div class=\"card_container\">\n\t\t\t\t\t\t<img src=img/26.png>\n\t\t\t\t\t\t</div>\n\n\t\t\t\t\t\t<div class=\"card_container\">\n\t\t\t\t\t\t<img src=img/35.png>\n\t\t\t\t\t\t</div>","response":"f","task":"response","correct_response":"f","trial_type":"html-keyboard-response","trial_index":143,"time_elapsed":2256424,"internal_node_id":"0.0-5.0-0.8","prolific_id":"620bdf2aa922fc3f247f706b","session_id":"643c252f772cbbf41693d8fb","study_id":"64370a36d30bfa807bc7e43c","correct":true},{"rt":null,"stimulus":"\n\t\t\t\t\t<p>Correct!</p>\n\t\t\t\t\t","response":null,"trial_type":"html-keyboard-response","trial_index":144,"time_elapsed":2257439,"internal_node_id":"0.0-5.0-1.8","prolific_id":"620bdf2aa922fc3f247f706b","session_id":"643c252f772cbbf41693d8fb","study_id":"64370a36d30bfa807bc7e43c"},{"rt":970,"stimulus":"\n\t\t\t\t\t\t<div class=\"two_card_container\">\n\t\t\t\t\t\t<div class=\"card_container\">\n\t\t\t\t\t\t<img src=img/38.png>\n\t\t\t\t\t\t</div>\n\n\t\t\t\t\t\t<div class=\"card_container\">\n\t\t\t\t\t\t<img src=img/10.png>\n\t\t\t\t\t\t</div>","response":"j","task":"response","correct_response":"j","trial_type":"html-keyboard-response","trial_index":145,"time_elapsed":2258410,"internal_node_id":"0.0-5.0-0.9","prolific_id":"620bdf2aa922fc3f247f706b","session_id":"643c252f772cbbf41693d8fb","study_id":"64370a36d30bfa807bc7e43c","correct":true},{"rt":null,"stimulus":"\n\t\t\t\t\t<p>Correct!</p>\n\t\t\t\t\t","response":null,"trial_type":"html-keyboard-response","trial_index":146,"time_elapsed":2259427,"internal_node_id":"0.0-5.0-1.9","prolific_id":"620bdf2aa922fc3f247f706b","session_id":"643c252f772cbbf41693d8fb","study_id":"64370a36d30bfa807bc7e43c"},{"rt":null,"stimulus":"\n\t\t\t<h2>Good job :p</h2>\n\t\t\t<p>In the next session, you will see a trivia question on the screen in each trial.</p>\n\t\t\t<p>Each of these trivia questions is chosen from the questions you have already seen in the first session of the experiment.</p><br>\n\t\t\t<p>Your task is to answer the trivia question based on what you remember as accurately as you can.</p>\n\t\t\t<p>Have fun!</p>\n\t\t\t<br>\n\t\t\t<p>The trials will begin in 30 seconds</p>\n\t\t\t","response":null,"trial_type":"html-keyboard-response","trial_index":147,"time_elapsed":2289444,"internal_node_id":"0.0-6.0","prolific_id":"620bdf2aa922fc3f247f706b","session_id":"643c252f772cbbf41693d8fb","study_id":"64370a36d30bfa807bc7e43c"},{"rt":27558,"response":{"answer":"1314"},"task":"response","correct_response":"13171","trial_type":"survey-text","trial_index":148,"time_elapsed":2317004,"internal_node_id":"0.0-7.0-0.0","prolific_id":"620bdf2aa922fc3f247f706b","session_id":"643c252f772cbbf41693d8fb","study_id":"64370a36d30bfa807bc7e43c","difference":90},{"rt":null,"stimulus":"<h2>The correct answer is 13171.</h2><p>Your answer was different from the answer by 11857.</p><p>Not even close... do better next time!</p>","response":null,"trial_type":"html-keyboard-response","trial_index":149,"time_elapsed":2319506,"internal_node_id":"0.0-7.0-1.0","prolific_id":"620bdf2aa922fc3f247f706b","session_id":"643c252f772cbbf41693d8fb","study_id":"64370a36d30bfa807bc7e43c"},{"rt":6500,"response":{"answer":"5"},"task":"response","correct_response":"5","trial_type":"survey-text","trial_index":150,"time_elapsed":2326007,"internal_node_id":"0.0-7.0-0.1","prolific_id":"620bdf2aa922fc3f247f706b","session_id":"643c252f772cbbf41693d8fb","study_id":"64370a36d30bfa807bc7e43c","difference":0},{"rt":null,"stimulus":"<h2>The correct answer is 5.</h2><p>Your answer was different from the answer by 0.</p><p>You got the right answer. Amazing work!</p>","response":null,"trial_type":"html-keyboard-response","trial_index":151,"time_elapsed":2328509,"internal_node_id":"0.0-7.0-1.1","prolific_id":"620bdf2aa922fc3f247f706b","session_id":"643c252f772cbbf41693d8fb","study_id":"64370a36d30bfa807bc7e43c"},{"rt":10503,"response":{"answer":"13"},"task":"response","correct_response":"21","trial_type":"survey-text","trial_index":152,"time_elapsed":2339015,"internal_node_id":"0.0-7.0-0.2","prolific_id":"620bdf2aa922fc3f247f706b","session_id":"643c252f772cbbf41693d8fb","study_id":"64370a36d30bfa807bc7e43c","difference":38},{"rt":null,"stimulus":"<h2>The correct answer is 21.</h2><p>Your answer was different from the answer by 8.</p><p>Not the worst. Can you do better on the next?</p>","response":null,"trial_type":"html-keyboard-response","trial_index":153,"time_elapsed":2341520,"internal_node_id":"0.0-7.0-1.2","prolific_id":"620bdf2aa922fc3f247f706b","session_id":"643c252f772cbbf41693d8fb","study_id":"64370a36d30bfa807bc7e43c"},{"rt":4878,"response":{"answer":"1912"},"task":"response","correct_response":"1912","trial_type":"survey-text","trial_index":154,"time_elapsed":2346400,"internal_node_id":"0.0-7.0-0.3","prolific_id":"620bdf2aa922fc3f247f706b","session_id":"643c252f772cbbf41693d8fb","study_id":"64370a36d30bfa807bc7e43c","difference":0},{"rt":null,"stimulus":"<h2>The correct answer is 1912.</h2><p>Your answer was different from the answer by 0.</p><p>You got the right answer. Amazing work!</p>","response":null,"trial_type":"html-keyboard-response","trial_index":155,"time_elapsed":2348909,"internal_node_id":"0.0-7.0-1.3","prolific_id":"620bdf2aa922fc3f247f706b","session_id":"643c252f772cbbf41693d8fb","study_id":"64370a36d30bfa807bc7e43c"},{"rt":4018,"response":{"answer":"11"},"task":"response","correct_response":"11","trial_type":"survey-text","trial_index":156,"time_elapsed":2352929,"internal_node_id":"0.0-7.0-0.4","prolific_id":"620bdf2aa922fc3f247f706b","session_id":"643c252f772cbbf41693d8fb","study_id":"64370a36d30bfa807bc7e43c","difference":0},{"rt":null,"stimulus":"<h2>The correct answer is 11.</h2><p>Your answer was different from the answer by 0.</p><p>You got the right answer. Amazing work!</p>","response":null,"trial_type":"html-keyboard-response","trial_index":157,"time_elapsed":2355444,"internal_node_id":"0.0-7.0-1.4","prolific_id":"620bdf2aa922fc3f247f706b","session_id":"643c252f772cbbf41693d8fb","study_id":"64370a36d30bfa807bc7e43c"},{"rt":4838,"response":{"answer":"1989"},"task":"response","correct_response":"1907","trial_type":"survey-text","trial_index":158,"time_elapsed":2360284,"internal_node_id":"0.0-7.0-0.5","prolific_id":"620bdf2aa922fc3f247f706b","session_id":"643c252f772cbbf41693d8fb","study_id":"64370a36d30bfa807bc7e43c","difference":4},{"rt":null,"stimulus":"<h2>The correct answer is 1907.</h2><p>Your answer was different from the answer by 82.</p><p>Excellent. Kudos to you!</p>","response":null,"trial_type":"html-keyboard-response","trial_index":159,"time_elapsed":2362802,"internal_node_id":"0.0-7.0-1.5","prolific_id":"620bdf2aa922fc3f247f706b","session_id":"643c252f772cbbf41693d8fb","study_id":"64370a36d30bfa807bc7e43c"},{"rt":7578,"response":{"answer":"12"},"task":"response","correct_response":"12","trial_type":"survey-text","trial_index":160,"time_elapsed":2370382,"internal_node_id":"0.0-7.0-0.6","prolific_id":"620bdf2aa922fc3f247f706b","session_id":"643c252f772cbbf41693d8fb","study_id":"64370a36d30bfa807bc7e43c","difference":0},{"rt":null,"stimulus":"<h2>The correct answer is 12.</h2><p>Your answer was different from the answer by 0.</p><p>You got the right answer. Amazing work!</p>","response":null,"trial_type":"html-keyboard-response","trial_index":161,"time_elapsed":2372891,"internal_node_id":"0.0-7.0-1.6","prolific_id":"620bdf2aa922fc3f247f706b","session_id":"643c252f772cbbf41693d8fb","study_id":"64370a36d30bfa807bc7e43c"},{"rt":12100,"response":{"answer":"1901"},"task":"response","correct_response":"1896","trial_type":"survey-text","trial_index":162,"time_elapsed":2384993,"internal_node_id":"0.0-7.0-0.7","prolific_id":"620bdf2aa922fc3f247f706b","session_id":"643c252f772cbbf41693d8fb","study_id":"64370a36d30bfa807bc7e43c","difference":0},{"rt":null,"stimulus":"<h2>The correct answer is 1896.</h2><p>Your answer was different from the answer by 5.</p><p>Excellent. Kudos to you!</p>","response":null,"trial_type":"html-keyboard-response","trial_index":163,"time_elapsed":2387494,"internal_node_id":"0.0-7.0-1.7","prolific_id":"620bdf2aa922fc3f247f706b","session_id":"643c252f772cbbf41693d8fb","study_id":"64370a36d30bfa807bc7e43c"},{"rt":7081,"response":{"answer":"4"},"task":"response","correct_response":"4","trial_type":"survey-text","trial_index":164,"time_elapsed":2394577,"internal_node_id":"0.0-7.0-0.8","prolific_id":"620bdf2aa922fc3f247f706b","session_id":"643c252f772cbbf41693d8fb","study_id":"64370a36d30bfa807bc7e43c","difference":0},{"rt":null,"stimulus":"<h2>The correct answer is 4.</h2><p>Your answer was different from the answer by 0.</p><p>You got the right answer. Amazing work!</p>","response":null,"trial_type":"html-keyboard-response","trial_index":165,"time_elapsed":2397085,"internal_node_id":"0.0-7.0-1.8","prolific_id":"620bdf2aa922fc3f247f706b","session_id":"643c252f772cbbf41693d8fb","study_id":"64370a36d30bfa807bc7e43c"},{"rt":19164,"response":{"answer":"136"},"task":"response","correct_response":"163","trial_type":"survey-text","trial_index":166,"time_elapsed":2416251,"internal_node_id":"0.0-7.0-0.9","prolific_id":"620bdf2aa922fc3f247f706b","session_id":"643c252f772cbbf41693d8fb","study_id":"64370a36d30bfa807bc7e43c","difference":17},{"rt":null,"stimulus":"<h2>The correct answer is 163.</h2><p>Your answer was different from the answer by 27.</p><p>A pretty good job indeed.</p>","response":null,"trial_type":"html-keyboard-response","trial_index":167,"time_elapsed":2418762,"internal_node_id":"0.0-7.0-1.9","prolific_id":"620bdf2aa922fc3f247f706b","session_id":"643c252f772cbbf41693d8fb","study_id":"64370a36d30bfa807bc7e43c"}]