[{"success":true,"timeout":false,"failed_images":[],"failed_audio":[],"failed_video":[],"trial_type":"preload","trial_index":0,"time_elapsed":19650,"internal_node_id":"0.0-0.0","prolific_id":"622e06e4046635b0eb64f103","session_id":"643c24ed130c4d059d95586d","study_id":"64370a36d30bfa807bc7e43c"},{"rt":10677,"stimulus":"\n\t\t\t\t\t<p>Welcome and thank you for participating in this study!</p>\n\t\t\t\t\t<p>In each trial, you will be given a trivia question and then be asked to:</p><br>\n\t\t\t\t\t<div class=\"list\">\n\t\t\t\t\t<p>1) Predict the answer</p>\n\t\t\t\t\t<p>2) Rate how much you already know about the topic</p>\n\t\t\t\t\t<p>3) Rate how much you want to know the answer</p>\n\t\t\t\t\t</div>\n\t\t\t\t\t<br>\n\t\t\t\t\t<p>Then, you will see a card that flips over to reveal the answer.</p>\n\t\t\t\t\t<br>\n\t\t\t\t\t<p>Let's try a practice round. Press <span style=\"color: red\"><strong>any key</strong></span> to move to the next slide</p>\n\t\t\t\t\t","response":" ","trial_type":"html-keyboard-response","trial_index":1,"time_elapsed":30330,"internal_node_id":"0.0-1.0","prolific_id":"622e06e4046635b0eb64f103","session_id":"643c24ed130c4d059d95586d","study_id":"64370a36d30bfa807bc7e43c"},{"rt":19792,"response":{"practice prediction":"0"},"task":"practice","trial_type":"survey-text","trial_index":2,"time_elapsed":50187,"internal_node_id":"0.0-2.0-0.0","prolific_id":"622e06e4046635b0eb64f103","session_id":"643c24ed130c4d059d95586d","study_id":"64370a36d30bfa807bc7e43c"},{"rt":5496,"response":{"practice":3},"accuracy":[],"trial_type":"survey","trial_index":3,"time_elapsed":55859,"internal_node_id":"0.0-2.0-1.0","prolific_id":"622e06e4046635b0eb64f103","session_id":"643c24ed130c4d059d95586d","study_id":"64370a36d30bfa807bc7e43c"},{"rt":null,"stimulus":"\n\t\t\t\t<div class=\"flip_card\">\n\t\t\t\t\t<div class=\"flip_card_inner\">\n\t\t\t\t\t\t<div class=\"flip_card_front\">\n\t\t\t\t\t\t\t<img src=img/practice.png>\n\t\t\t\t\t\t</div>\n\t\t\t\t\t\t<div class=\"flip_card_back\">\n\t\t\t\t\t\t\t<h2>\"How many legs does a lobster have?\"</h2>\n\t\t\t\t\t\t    <br>\n\t\t\t\t\t\t    <p>Answer: <strong>\"10\"</strong></p>\n\t\t\t\t\t    </div>\n\t\t\t\t    </div>\n\t\t\t    </div>\n\t\t\t\t","response":null,"trial_type":"html-keyboard-response","trial_index":4,"time_elapsed":60869,"internal_node_id":"0.0-2.0-2.0","prolific_id":"622e06e4046635b0eb64f103","session_id":"643c24ed130c4d059d95586d","study_id":"64370a36d30bfa807bc7e43c"},{"rt":3281,"stimulus":"\n\t\t\t\t\t<div>\n\t\t\t\t\t<h2>The practice round is over</h2>\n\t\t\t\t\t<p>Press <span style=\"color: red\"><strong>any key</strong></span> to continue to the actual trials</p>\n\t\t\t\t\t<p>Good Luck!</p>\n\t\t\t\t\t</div>\n\t\t\t\t\t","response":" ","trial_type":"html-keyboard-response","trial_index":5,"time_elapsed":64152,"internal_node_id":"0.0-2.0-3.0","prolific_id":"622e06e4046635b0eb64f103","session_id":"643c24ed130c4d059d95586d","study_id":"64370a36d30bfa807bc7e43c"},{"rt":12984,"response":{"prediction":"16"},"trial_type":"survey-text","trial_index":6,"time_elapsed":77146,"internal_node_id":"0.0-3.0-0.0","prolific_id":"622e06e4046635b0eb64f103","session_id":"643c24ed130c4d059d95586d","study_id":"64370a36d30bfa807bc7e43c"},{"rt":14523,"response":{"prior knowledge":2,"curiosity":5},"accuracy":[],"trial_type":"survey","trial_index":7,"time_elapsed":91730,"internal_node_id":"0.0-3.0-1.0","prolific_id":"622e06e4046635b0eb64f103","session_id":"643c24ed130c4d059d95586d","study_id":"64370a36d30bfa807bc7e43c"},{"rt":null,"stimulus":"\n\t\t\t<div class=\"flip_card\">\n\t\t\t\t<div class=\"flip_card_inner\">\n\t\t\t\t\t<div class=\"flip_card_front\">\n\t\t\t\t\t\t<img src=img/2.png>\n\t\t\t\t\t</div>\n\t\t\t\t\t<div class=\"flip_card_back\">\n\t\t\t\t\t\t<h2>How many countries are in Africa?</h2>\n\t\t\t\t\t\t<br>\n\t\t\t\t\t\t<p>Answer: <strong>54</strong></p>\n\t\t\t\t\t</div>\n\t\t\t\t</div>\n\t\t\t</div>\n\t\t\t","response":null,"trial_type":"html-keyboard-response","trial_index":8,"time_elapsed":96744,"internal_node_id":"0.0-3.0-2.0","prolific_id":"622e06e4046635b0eb64f103","session_id":"643c24ed130c4d059d95586d","study_id":"64370a36d30bfa807bc7e43c"},{"rt":4558,"stimulus":"\n\t\t\t\t\t<div>\n\t\t\t\t\t<h2>Trial 1 is over</h2>\n\t\t\t\t\t<p>Press <span style=\"color: red\"><strong>any key</strong></span> to continue to the next trial</p>\n\t\t\t\t\t</div>\n\t\t\t\t","response":"enter","trial_type":"html-keyboard-response","trial_index":9,"time_elapsed":101304,"internal_node_id":"0.0-3.0-3.0","prolific_id":"622e06e4046635b0eb64f103","session_id":"643c24ed130c4d059d95586d","study_id":"64370a36d30bfa807bc7e43c"},{"rt":21722,"response":{"prediction":"1995"},"trial_type":"survey-text","trial_index":10,"time_elapsed":123034,"internal_node_id":"0.0-3.0-0.1","prolific_id":"622e06e4046635b0eb64f103","session_id":"643c24ed130c4d059d95586d","study_id":"64370a36d30bfa807bc7e43c"},{"rt":8780,"response":{"prior knowledge":1,"curiosity":1},"accuracy":[],"trial_type":"survey","trial_index":11,"time_elapsed":131863,"internal_node_id":"0.0-3.0-1.1","prolific_id":"622e06e4046635b0eb64f103","session_id":"643c24ed130c4d059d95586d","study_id":"64370a36d30bfa807bc7e43c"},{"rt":null,"stimulus":"\n\t\t\t<div class=\"flip_card\">\n\t\t\t\t<div class=\"flip_card_inner\">\n\t\t\t\t\t<div class=\"flip_card_front\">\n\t\t\t\t\t\t<img src=img/21.png>\n\t\t\t\t\t</div>\n\t\t\t\t\t<div class=\"flip_card_back\">\n\t\t\t\t\t\t<h2>What year was the very first model of the iPhone released?</h2>\n\t\t\t\t\t\t<br>\n\t\t\t\t\t\t<p>Answer: <strong>2007</strong></p>\n\t\t\t\t\t</div>\n\t\t\t\t</div>\n\t\t\t</div>\n\t\t\t","response":null,"trial_type":"html-keyboard-response","trial_index":12,"time_elapsed":136880,"internal_node_id":"0.0-3.0-2.1","prolific_id":"622e06e4046635b0eb64f103","session_id":"643c24ed130c4d059d95586d","study_id":"64370a36d30bfa807bc7e43c"},{"rt":2605,"stimulus":"\n\t\t\t\t\t<div>\n\t\t\t\t\t<h2>Trial 2 is over</h2>\n\t\t\t\t\t<p>Press <span style=\"color: red\"><strong>any key</strong></span> to continue to the next trial</p>\n\t\t\t\t\t</div>\n\t\t\t\t","response":"enter","trial_type":"html-keyboard-response","trial_index":13,"time_elapsed":139487,"internal_node_id":"0.0-3.0-3.1","prolific_id":"622e06e4046635b0eb64f103","session_id":"643c24ed130c4d059d95586d","study_id":"64370a36d30bfa807bc7e43c"},{"rt":16086,"response":{"prediction":"55"},"trial_type":"survey-text","trial_index":14,"time_elapsed":155578,"internal_node_id":"0.0-3.0-0.2","prolific_id":"622e06e4046635b0eb64f103","session_id":"643c24ed130c4d059d95586d","study_id":"64370a36d30bfa807bc7e43c"},{"rt":5353,"response":{"prior knowledge":0,"curiosity":2},"accuracy":[],"trial_type":"survey","trial_index":15,"time_elapsed":160979,"internal_node_id":"0.0-3.0-1.2","prolific_id":"622e06e4046635b0eb64f103","session_id":"643c24ed130c4d059d95586d","study_id":"64370a36d30bfa807bc7e43c"},{"rt":null,"stimulus":"\n\t\t\t<div class=\"flip_card\">\n\t\t\t\t<div class=\"flip_card_inner\">\n\t\t\t\t\t<div class=\"flip_card_front\">\n\t\t\t\t\t\t<img src=img/4.png>\n\t\t\t\t\t</div>\n\t\t\t\t\t<div class=\"flip_card_back\">\n\t\t\t\t\t\t<h2>How many books are in the Catholic Bible?</h2>\n\t\t\t\t\t\t<br>\n\t\t\t\t\t\t<p>Answer: <strong>73</strong></p>\n\t\t\t\t\t</div>\n\t\t\t\t</div>\n\t\t\t</div>\n\t\t\t","response":null,"trial_type":"html-keyboard-response","trial_index":16,"time_elapsed":165982,"internal_node_id":"0.0-3.0-2.2","prolific_id":"622e06e4046635b0eb64f103","session_id":"643c24ed130c4d059d95586d","study_id":"64370a36d30bfa807bc7e43c"},{"rt":2408,"stimulus":"\n\t\t\t\t\t<div>\n\t\t\t\t\t<h2>Trial 3 is over</h2>\n\t\t\t\t\t<p>Press <span style=\"color: red\"><strong>any key</strong></span> to continue to the next trial</p>\n\t\t\t\t\t</div>\n\t\t\t\t","response":"enter","trial_type":"html-keyboard-response","trial_index":17,"time_elapsed":168392,"internal_node_id":"0.0-3.0-3.2","prolific_id":"622e06e4046635b0eb64f103","session_id":"643c24ed130c4d059d95586d","study_id":"64370a36d30bfa807bc7e43c"},{"rt":31851,"response":{"prediction":"1907"},"trial_type":"survey-text","trial_index":18,"time_elapsed":200250,"internal_node_id":"0.0-3.0-0.3","prolific_id":"622e06e4046635b0eb64f103","session_id":"643c24ed130c4d059d95586d","study_id":"64370a36d30bfa807bc7e43c"},{"rt":7525,"response":{"prior knowledge":1,"curiosity":3},"accuracy":[],"trial_type":"survey","trial_index":19,"time_elapsed":207819,"internal_node_id":"0.0-3.0-1.3","prolific_id":"622e06e4046635b0eb64f103","session_id":"643c24ed130c4d059d95586d","study_id":"64370a36d30bfa807bc7e43c"},{"rt":null,"stimulus":"\n\t\t\t<div class=\"flip_card\">\n\t\t\t\t<div class=\"flip_card_inner\">\n\t\t\t\t\t<div class=\"flip_card_front\">\n\t\t\t\t\t\t<img src=img/15.png>\n\t\t\t\t\t</div>\n\t\t\t\t\t<div class=\"flip_card_back\">\n\t\t\t\t\t\t<h2>In what year was the Mexican artist Frida Kahlo born?</h2>\n\t\t\t\t\t\t<br>\n\t\t\t\t\t\t<p>Answer: <strong>1907</strong></p>\n\t\t\t\t\t</div>\n\t\t\t\t</div>\n\t\t\t</div>\n\t\t\t","response":null,"trial_type":"html-keyboard-response","trial_index":20,"time_elapsed":212822,"internal_node_id":"0.0-3.0-2.3","prolific_id":"622e06e4046635b0eb64f103","session_id":"643c24ed130c4d059d95586d","study_id":"64370a36d30bfa807bc7e43c"},{"rt":5440,"stimulus":"\n\t\t\t\t\t<div>\n\t\t\t\t\t<h2>Trial 4 is over</h2>\n\t\t\t\t\t<p>Press <span style=\"color: red\"><strong>any key</strong></span> to continue to the next trial</p>\n\t\t\t\t\t</div>\n\t\t\t\t","response":"enter","trial_type":"html-keyboard-response","trial_index":21,"time_elapsed":218264,"internal_node_id":"0.0-3.0-3.3","prolific_id":"622e06e4046635b0eb64f103","session_id":"643c24ed130c4d059d95586d","study_id":"64370a36d30bfa807bc7e43c"},{"rt":10197,"response":{"prediction":"3"},"trial_type":"survey-text","trial_index":22,"time_elapsed":228466,"internal_node_id":"0.0-3.0-0.4","prolific_id":"622e06e4046635b0eb64f103","session_id":"643c24ed130c4d059d95586d","study_id":"64370a36d30bfa807bc7e43c"},{"rt":5093,"response":{"prior knowledge":0,"curiosity":4},"accuracy":[],"trial_type":"survey","trial_index":23,"time_elapsed":233603,"internal_node_id":"0.0-3.0-1.4","prolific_id":"622e06e4046635b0eb64f103","session_id":"643c24ed130c4d059d95586d","study_id":"64370a36d30bfa807bc7e43c"},{"rt":null,"stimulus":"\n\t\t\t<div class=\"flip_card\">\n\t\t\t\t<div class=\"flip_card_inner\">\n\t\t\t\t\t<div class=\"flip_card_front\">\n\t\t\t\t\t\t<img src=img/10.png>\n\t\t\t\t\t</div>\n\t\t\t\t\t<div class=\"flip_card_back\">\n\t\t\t\t\t\t<h2>How many times a day do Muslims pray?</h2>\n\t\t\t\t\t\t<br>\n\t\t\t\t\t\t<p>Answer: <strong>5</strong></p>\n\t\t\t\t\t</div>\n\t\t\t\t</div>\n\t\t\t</div>\n\t\t\t","response":null,"trial_type":"html-keyboard-response","trial_index":24,"time_elapsed":238606,"internal_node_id":"0.0-3.0-2.4","prolific_id":"622e06e4046635b0eb64f103","session_id":"643c24ed130c4d059d95586d","study_id":"64370a36d30bfa807bc7e43c"},{"rt":1649,"stimulus":"\n\t\t\t\t\t<div>\n\t\t\t\t\t<h2>Trial 5 is over</h2>\n\t\t\t\t\t<p>Press <span style=\"color: red\"><strong>any key</strong></span> to continue to the next trial</p>\n\t\t\t\t\t</div>\n\t\t\t\t","response":"enter","trial_type":"html-keyboard-response","trial_index":25,"time_elapsed":240256,"internal_node_id":"0.0-3.0-3.4","prolific_id":"622e06e4046635b0eb64f103","session_id":"643c24ed130c4d059d95586d","study_id":"64370a36d30bfa807bc7e43c"},{"rt":18790,"response":{"prediction":"0"},"trial_type":"survey-text","trial_index":26,"time_elapsed":259050,"internal_node_id":"0.0-3.0-0.5","prolific_id":"622e06e4046635b0eb64f103","session_id":"643c24ed130c4d059d95586d","study_id":"64370a36d30bfa807bc7e43c"},{"rt":10194,"response":{"prior knowledge":5,"curiosity":3},"accuracy":[],"trial_type":"survey","trial_index":27,"time_elapsed":269283,"internal_node_id":"0.0-3.0-1.5","prolific_id":"622e06e4046635b0eb64f103","session_id":"643c24ed130c4d059d95586d","study_id":"64370a36d30bfa807bc7e43c"},{"rt":null,"stimulus":"\n\t\t\t<div class=\"flip_card\">\n\t\t\t\t<div class=\"flip_card_inner\">\n\t\t\t\t\t<div class=\"flip_card_front\">\n\t\t\t\t\t\t<img src=img/22.png>\n\t\t\t\t\t</div>\n\t\t\t\t\t<div class=\"flip_card_back\">\n\t\t\t\t\t\t<h2>How many countries have territory in the Arctic Circle?</h2>\n\t\t\t\t\t\t<br>\n\t\t\t\t\t\t<p>Answer: <strong>8</strong></p>\n\t\t\t\t\t</div>\n\t\t\t\t</div>\n\t\t\t</div>\n\t\t\t","response":null,"trial_type":"html-keyboard-response","trial_index":28,"time_elapsed":274292,"internal_node_id":"0.0-3.0-2.5","prolific_id":"622e06e4046635b0eb64f103","session_id":"643c24ed130c4d059d95586d","study_id":"64370a36d30bfa807bc7e43c"},{"rt":4146,"stimulus":"\n\t\t\t\t\t<div>\n\t\t\t\t\t<h2>Trial 6 is over</h2>\n\t\t\t\t\t<p>Press <span style=\"color: red\"><strong>any key</strong></span> to continue to the next trial</p>\n\t\t\t\t\t</div>\n\t\t\t\t","response":"enter","trial_type":"html-keyboard-response","trial_index":29,"time_elapsed":278440,"internal_node_id":"0.0-3.0-3.5","prolific_id":"622e06e4046635b0eb64f103","session_id":"643c24ed130c4d059d95586d","study_id":"64370a36d30bfa807bc7e43c"},{"rt":9140,"response":{"prediction":"7"},"trial_type":"survey-text","trial_index":30,"time_elapsed":287586,"internal_node_id":"0.0-3.0-0.6","prolific_id":"622e06e4046635b0eb64f103","session_id":"643c24ed130c4d059d95586d","study_id":"64370a36d30bfa807bc7e43c"},{"rt":5342,"response":{"prior knowledge":0,"curiosity":5},"accuracy":[],"trial_type":"survey","trial_index":31,"time_elapsed":292970,"internal_node_id":"0.0-3.0-1.6","prolific_id":"622e06e4046635b0eb64f103","session_id":"643c24ed130c4d059d95586d","study_id":"64370a36d30bfa807bc7e43c"},{"rt":null,"stimulus":"\n\t\t\t<div class=\"flip_card\">\n\t\t\t\t<div class=\"flip_card_inner\">\n\t\t\t\t\t<div class=\"flip_card_front\">\n\t\t\t\t\t\t<img src=img/19.png>\n\t\t\t\t\t</div>\n\t\t\t\t\t<div class=\"flip_card_back\">\n\t\t\t\t\t\t<h2>How many countries in Africa have French as the official language?</h2>\n\t\t\t\t\t\t<br>\n\t\t\t\t\t\t<p>Answer: <strong>21</strong></p>\n\t\t\t\t\t</div>\n\t\t\t\t</div>\n\t\t\t</div>\n\t\t\t","response":null,"trial_type":"html-keyboard-response","trial_index":32,"time_elapsed":297978,"internal_node_id":"0.0-3.0-2.6","prolific_id":"622e06e4046635b0eb64f103","session_id":"643c24ed130c4d059d95586d","study_id":"64370a36d30bfa807bc7e43c"},{"rt":2316,"stimulus":"\n\t\t\t\t\t<div>\n\t\t\t\t\t<h2>Trial 7 is over</h2>\n\t\t\t\t\t<p>Press <span style=\"color: red\"><strong>any key</strong></span> to continue to the next trial</p>\n\t\t\t\t\t</div>\n\t\t\t\t","response":"enter","trial_type":"html-keyboard-response","trial_index":33,"time_elapsed":300296,"internal_node_id":"0.0-3.0-3.6","prolific_id":"622e06e4046635b0eb64f103","session_id":"643c24ed130c4d059d95586d","study_id":"64370a36d30bfa807bc7e43c"},{"rt":6349,"response":{"prediction":"13"},"trial_type":"survey-text","trial_index":34,"time_elapsed":306650,"internal_node_id":"0.0-3.0-0.7","prolific_id":"622e06e4046635b0eb64f103","session_id":"643c24ed130c4d059d95586d","study_id":"64370a36d30bfa807bc7e43c"},{"rt":7095,"response":{"prior knowledge":1,"curiosity":4},"accuracy":[],"trial_type":"survey","trial_index":35,"time_elapsed":313786,"internal_node_id":"0.0-3.0-1.7","prolific_id":"622e06e4046635b0eb64f103","session_id":"643c24ed130c4d059d95586d","study_id":"64370a36d30bfa807bc7e43c"},{"rt":null,"stimulus":"\n\t\t\t<div class=\"flip_card\">\n\t\t\t\t<div class=\"flip_card_inner\">\n\t\t\t\t\t<div class=\"flip_card_front\">\n\t\t\t\t\t\t<img src=img/18.png>\n\t\t\t\t\t</div>\n\t\t\t\t\t<div class=\"flip_card_back\">\n\t\t\t\t\t\t<h2>How old was King Tut when he died?</h2>\n\t\t\t\t\t\t<br>\n\t\t\t\t\t\t<p>Answer: <strong>19</strong></p>\n\t\t\t\t\t</div>\n\t\t\t\t</div>\n\t\t\t</div>\n\t\t\t","response":null,"trial_type":"html-keyboard-response","trial_index":36,"time_elapsed":318803,"internal_node_id":"0.0-3.0-2.7","prolific_id":"622e06e4046635b0eb64f103","session_id":"643c24ed130c4d059d95586d","study_id":"64370a36d30bfa807bc7e43c"},{"rt":2082,"stimulus":"\n\t\t\t\t\t<div>\n\t\t\t\t\t<h2>Trial 8 is over</h2>\n\t\t\t\t\t<p>Press <span style=\"color: red\"><strong>any key</strong></span> to continue to the next trial</p>\n\t\t\t\t\t</div>\n\t\t\t\t","response":"enter","trial_type":"html-keyboard-response","trial_index":37,"time_elapsed":320887,"internal_node_id":"0.0-3.0-3.7","prolific_id":"622e06e4046635b0eb64f103","session_id":"643c24ed130c4d059d95586d","study_id":"64370a36d30bfa807bc7e43c"},{"rt":7668,"response":{"prediction":"12"},"trial_type":"survey-text","trial_index":38,"time_elapsed":328562,"internal_node_id":"0.0-3.0-0.8","prolific_id":"622e06e4046635b0eb64f103","session_id":"643c24ed130c4d059d95586d","study_id":"64370a36d30bfa807bc7e43c"},{"rt":11218,"response":{"prior knowledge":3,"curiosity":4},"accuracy":[],"trial_type":"survey","trial_index":39,"time_elapsed":339826,"internal_node_id":"0.0-3.0-1.8","prolific_id":"622e06e4046635b0eb64f103","session_id":"643c24ed130c4d059d95586d","study_id":"64370a36d30bfa807bc7e43c"},{"rt":null,"stimulus":"\n\t\t\t<div class=\"flip_card\">\n\t\t\t\t<div class=\"flip_card_inner\">\n\t\t\t\t\t<div class=\"flip_card_front\">\n\t\t\t\t\t\t<img src=img/11.png>\n\t\t\t\t\t</div>\n\t\t\t\t\t<div class=\"flip_card_back\">\n\t\t\t\t\t\t<h2>How many different animals (real or imaginary) are represented in the Chinese calendar?</h2>\n\t\t\t\t\t\t<br>\n\t\t\t\t\t\t<p>Answer: <strong>12</strong></p>\n\t\t\t\t\t</div>\n\t\t\t\t</div>\n\t\t\t</div>\n\t\t\t","response":null,"trial_type":"html-keyboard-response","trial_index":40,"time_elapsed":344834,"internal_node_id":"0.0-3.0-2.8","prolific_id":"622e06e4046635b0eb64f103","session_id":"643c24ed130c4d059d95586d","study_id":"64370a36d30bfa807bc7e43c"},{"rt":2517,"stimulus":"\n\t\t\t\t\t<div>\n\t\t\t\t\t<h2>Trial 9 is over</h2>\n\t\t\t\t\t<p>Press <span style=\"color: red\"><strong>any key</strong></span> to continue to the next trial</p>\n\t\t\t\t\t</div>\n\t\t\t\t","response":"enter","trial_type":"html-keyboard-response","trial_index":41,"time_elapsed":347351,"internal_node_id":"0.0-3.0-3.8","prolific_id":"622e06e4046635b0eb64f103","session_id":"643c24ed130c4d059d95586d","study_id":"64370a36d30bfa807bc7e43c"},{"rt":20718,"response":{"prediction":"30"},"trial_type":"survey-text","trial_index":42,"time_elapsed":368073,"internal_node_id":"0.0-3.0-0.9","prolific_id":"622e06e4046635b0eb64f103","session_id":"643c24ed130c4d059d95586d","study_id":"64370a36d30bfa807bc7e43c"},{"rt":8129,"response":{"prior knowledge":1,"curiosity":1},"accuracy":[],"trial_type":"survey","trial_index":43,"time_elapsed":376241,"internal_node_id":"0.0-3.0-1.9","prolific_id":"622e06e4046635b0eb64f103","session_id":"643c24ed130c4d059d95586d","study_id":"64370a36d30bfa807bc7e43c"},{"rt":null,"stimulus":"\n\t\t\t<div class=\"flip_card\">\n\t\t\t\t<div class=\"flip_card_inner\">\n\t\t\t\t\t<div class=\"flip_card_front\">\n\t\t\t\t\t\t<img src=img/6.png>\n\t\t\t\t\t</div>\n\t\t\t\t\t<div class=\"flip_card_back\">\n\t\t\t\t\t\t<h2>How many double stitches does a baseball have?</h2>\n\t\t\t\t\t\t<br>\n\t\t\t\t\t\t<p>Answer: <strong>108</strong></p>\n\t\t\t\t\t</div>\n\t\t\t\t</div>\n\t\t\t</div>\n\t\t\t","response":null,"trial_type":"html-keyboard-response","trial_index":44,"time_elapsed":381266,"internal_node_id":"0.0-3.0-2.9","prolific_id":"622e06e4046635b0eb64f103","session_id":"643c24ed130c4d059d95586d","study_id":"64370a36d30bfa807bc7e43c"},{"rt":1483,"stimulus":"\n\t\t\t\t\t<div>\n\t\t\t\t\t<h2>Trial 10 is over</h2>\n\t\t\t\t\t<p>Press <span style=\"color: red\"><strong>any key</strong></span> to continue to the next trial</p>\n\t\t\t\t\t</div>\n\t\t\t\t","response":"enter","trial_type":"html-keyboard-response","trial_index":45,"time_elapsed":382750,"internal_node_id":"0.0-3.0-3.9","prolific_id":"622e06e4046635b0eb64f103","session_id":"643c24ed130c4d059d95586d","study_id":"64370a36d30bfa807bc7e43c"},{"rt":7703,"response":{"prediction":"1"},"trial_type":"survey-text","trial_index":46,"time_elapsed":390458,"internal_node_id":"0.0-3.0-0.10","prolific_id":"622e06e4046635b0eb64f103","session_id":"643c24ed130c4d059d95586d","study_id":"64370a36d30bfa807bc7e43c"},{"rt":6113,"response":{"prior knowledge":0,"curiosity":4},"accuracy":[],"trial_type":"survey","trial_index":47,"time_elapsed":396609,"internal_node_id":"0.0-3.0-1.10","prolific_id":"622e06e4046635b0eb64f103","session_id":"643c24ed130c4d059d95586d","study_id":"64370a36d30bfa807bc7e43c"},{"rt":null,"stimulus":"\n\t\t\t<div class=\"flip_card\">\n\t\t\t\t<div class=\"flip_card_inner\">\n\t\t\t\t\t<div class=\"flip_card_front\">\n\t\t\t\t\t\t<img src=img/1.png>\n\t\t\t\t\t</div>\n\t\t\t\t\t<div class=\"flip_card_back\">\n\t\t\t\t\t\t<h2>How many native species of kangaroos are found in Australia?</h2>\n\t\t\t\t\t\t<br>\n\t\t\t\t\t\t<p>Answer: <strong>4</strong></p>\n\t\t\t\t\t</div>\n\t\t\t\t</div>\n\t\t\t</div>\n\t\t\t","response":null,"trial_type":"html-keyboard-response","trial_index":48,"time_elapsed":401613,"internal_node_id":"0.0-3.0-2.10","prolific_id":"622e06e4046635b0eb64f103","session_id":"643c24ed130c4d059d95586d","study_id":"64370a36d30bfa807bc7e43c"},{"rt":3400,"stimulus":"\n\t\t\t\t\t<div>\n\t\t\t\t\t<h2>Trial 11 is over</h2>\n\t\t\t\t\t<p>Press <span style=\"color: red\"><strong>any key</strong></span> to continue to the next trial</p>\n\t\t\t\t\t</div>\n\t\t\t\t","response":"enter","trial_type":"html-keyboard-response","trial_index":49,"time_elapsed":405014,"internal_node_id":"0.0-3.0-3.10","prolific_id":"622e06e4046635b0eb64f103","session_id":"643c24ed130c4d059d95586d","study_id":"64370a36d30bfa807bc7e43c"},{"rt":8391,"response":{"prediction":"1918"},"trial_type":"survey-text","trial_index":50,"time_elapsed":413410,"internal_node_id":"0.0-3.0-0.11","prolific_id":"622e06e4046635b0eb64f103","session_id":"643c24ed130c4d059d95586d","study_id":"64370a36d30bfa807bc7e43c"},{"rt":7314,"response":{"prior knowledge":4,"curiosity":4},"accuracy":[],"trial_type":"survey","trial_index":51,"time_elapsed":420769,"internal_node_id":"0.0-3.0-1.11","prolific_id":"622e06e4046635b0eb64f103","session_id":"643c24ed130c4d059d95586d","study_id":"64370a36d30bfa807bc7e43c"},{"rt":null,"stimulus":"\n\t\t\t<div class=\"flip_card\">\n\t\t\t\t<div class=\"flip_card_inner\">\n\t\t\t\t\t<div class=\"flip_card_front\">\n\t\t\t\t\t\t<img src=img/5.png>\n\t\t\t\t\t</div>\n\t\t\t\t\t<div class=\"flip_card_back\">\n\t\t\t\t\t\t<h2>What year did the titanic sink?</h2>\n\t\t\t\t\t\t<br>\n\t\t\t\t\t\t<p>Answer: <strong>1912</strong></p>\n\t\t\t\t\t</div>\n\t\t\t\t</div>\n\t\t\t</div>\n\t\t\t","response":null,"trial_type":"html-keyboard-response","trial_index":52,"time_elapsed":425773,"internal_node_id":"0.0-3.0-2.11","prolific_id":"622e06e4046635b0eb64f103","session_id":"643c24ed130c4d059d95586d","study_id":"64370a36d30bfa807bc7e43c"},{"rt":2048,"stimulus":"\n\t\t\t\t\t<div>\n\t\t\t\t\t<h2>Trial 12 is over</h2>\n\t\t\t\t\t<p>Press <span style=\"color: red\"><strong>any key</strong></span> to continue to the next trial</p>\n\t\t\t\t\t</div>\n\t\t\t\t","response":"enter","trial_type":"html-keyboard-response","trial_index":53,"time_elapsed":427822,"internal_node_id":"0.0-3.0-3.11","prolific_id":"622e06e4046635b0eb64f103","session_id":"643c24ed130c4d059d95586d","study_id":"64370a36d30bfa807bc7e43c"},{"rt":8967,"response":{"prediction":"5"},"trial_type":"survey-text","trial_index":54,"time_elapsed":436794,"internal_node_id":"0.0-3.0-0.12","prolific_id":"622e06e4046635b0eb64f103","session_id":"643c24ed130c4d059d95586d","study_id":"64370a36d30bfa807bc7e43c"},{"rt":6961,"response":{"prior knowledge":0,"curiosity":2},"accuracy":[],"trial_type":"survey","trial_index":55,"time_elapsed":443794,"internal_node_id":"0.0-3.0-1.12","prolific_id":"622e06e4046635b0eb64f103","session_id":"643c24ed130c4d059d95586d","study_id":"64370a36d30bfa807bc7e43c"},{"rt":null,"stimulus":"\n\t\t\t<div class=\"flip_card\">\n\t\t\t\t<div class=\"flip_card_inner\">\n\t\t\t\t\t<div class=\"flip_card_front\">\n\t\t\t\t\t\t<img src=img/16.png>\n\t\t\t\t\t</div>\n\t\t\t\t\t<div class=\"flip_card_back\">\n\t\t\t\t\t\t<h2>How many soccer players should each team have on the field at the start of each match?</h2>\n\t\t\t\t\t\t<br>\n\t\t\t\t\t\t<p>Answer: <strong>11</strong></p>\n\t\t\t\t\t</div>\n\t\t\t\t</div>\n\t\t\t</div>\n\t\t\t","response":null,"trial_type":"html-keyboard-response","trial_index":56,"time_elapsed":448797,"internal_node_id":"0.0-3.0-2.12","prolific_id":"622e06e4046635b0eb64f103","session_id":"643c24ed130c4d059d95586d","study_id":"64370a36d30bfa807bc7e43c"},{"rt":1841,"stimulus":"\n\t\t\t\t\t<div>\n\t\t\t\t\t<h2>Trial 13 is over</h2>\n\t\t\t\t\t<p>Press <span style=\"color: red\"><strong>any key</strong></span> to continue to the next trial</p>\n\t\t\t\t\t</div>\n\t\t\t\t","response":"enter","trial_type":"html-keyboard-response","trial_index":57,"time_elapsed":450638,"internal_node_id":"0.0-3.0-3.12","prolific_id":"622e06e4046635b0eb64f103","session_id":"643c24ed130c4d059d95586d","study_id":"64370a36d30bfa807bc7e43c"},{"rt":5924,"response":{"prediction":"13"},"trial_type":"survey-text","trial_index":58,"time_elapsed":456570,"internal_node_id":"0.0-3.0-0.13","prolific_id":"622e06e4046635b0eb64f103","session_id":"643c24ed130c4d059d95586d","study_id":"64370a36d30bfa807bc7e43c"},{"rt":6784,"response":{"prior knowledge":5,"curiosity":3},"accuracy":[],"trial_type":"survey","trial_index":59,"time_elapsed":463394,"internal_node_id":"0.0-3.0-1.13","prolific_id":"622e06e4046635b0eb64f103","session_id":"643c24ed130c4d059d95586d","study_id":"64370a36d30bfa807bc7e43c"},{"rt":null,"stimulus":"\n\t\t\t<div class=\"flip_card\">\n\t\t\t\t<div class=\"flip_card_inner\">\n\t\t\t\t\t<div class=\"flip_card_front\">\n\t\t\t\t\t\t<img src=img/17.png>\n\t\t\t\t\t</div>\n\t\t\t\t\t<div class=\"flip_card_back\">\n\t\t\t\t\t\t<h2>How much is in a Baker's Dozen?</h2>\n\t\t\t\t\t\t<br>\n\t\t\t\t\t\t<p>Answer: <strong>13</strong></p>\n\t\t\t\t\t</div>\n\t\t\t\t</div>\n\t\t\t</div>\n\t\t\t","response":null,"trial_type":"html-keyboard-response","trial_index":60,"time_elapsed":468409,"internal_node_id":"0.0-3.0-2.13","prolific_id":"622e06e4046635b0eb64f103","session_id":"643c24ed130c4d059d95586d","study_id":"64370a36d30bfa807bc7e43c"},{"rt":1573,"stimulus":"\n\t\t\t\t\t<div>\n\t\t\t\t\t<h2>Trial 14 is over</h2>\n\t\t\t\t\t<p>Press <span style=\"color: red\"><strong>any key</strong></span> to continue to the next trial</p>\n\t\t\t\t\t</div>\n\t\t\t\t","response":"enter","trial_type":"html-keyboard-response","trial_index":61,"time_elapsed":469983,"internal_node_id":"0.0-3.0-3.13","prolific_id":"622e06e4046635b0eb64f103","session_id":"643c24ed130c4d059d95586d","study_id":"64370a36d30bfa807bc7e43c"},{"rt":18397,"response":{"prediction":"1898"},"trial_type":"survey-text","trial_index":62,"time_elapsed":488386,"internal_node_id":"0.0-3.0-0.14","prolific_id":"622e06e4046635b0eb64f103","session_id":"643c24ed130c4d059d95586d","study_id":"64370a36d30bfa807bc7e43c"},{"rt":7256,"response":{"prior knowledge":1,"curiosity":4},"accuracy":[],"trial_type":"survey","trial_index":63,"time_elapsed":495682,"internal_node_id":"0.0-3.0-1.14","prolific_id":"622e06e4046635b0eb64f103","session_id":"643c24ed130c4d059d95586d","study_id":"64370a36d30bfa807bc7e43c"},{"rt":null,"stimulus":"\n\t\t\t<div class=\"flip_card\">\n\t\t\t\t<div class=\"flip_card_inner\">\n\t\t\t\t\t<div class=\"flip_card_front\">\n\t\t\t\t\t\t<img src=img/3.png>\n\t\t\t\t\t</div>\n\t\t\t\t\t<div class=\"flip_card_back\">\n\t\t\t\t\t\t<h2>In what year did the first Modern Olympic Games take place?</h2>\n\t\t\t\t\t\t<br>\n\t\t\t\t\t\t<p>Answer: <strong>1896</strong></p>\n\t\t\t\t\t</div>\n\t\t\t\t</div>\n\t\t\t</div>\n\t\t\t","response":null,"trial_type":"html-keyboard-response","trial_index":64,"time_elapsed":500695,"internal_node_id":"0.0-3.0-2.14","prolific_id":"622e06e4046635b0eb64f103","session_id":"643c24ed130c4d059d95586d","study_id":"64370a36d30bfa807bc7e43c"},{"rt":1671,"stimulus":"\n\t\t\t\t\t<div>\n\t\t\t\t\t<h2>Trial 15 is over</h2>\n\t\t\t\t\t<p>Press <span style=\"color: red\"><strong>any key</strong></span> to continue to the next trial</p>\n\t\t\t\t\t</div>\n\t\t\t\t","response":"enter","trial_type":"html-keyboard-response","trial_index":65,"time_elapsed":502367,"internal_node_id":"0.0-3.0-3.14","prolific_id":"622e06e4046635b0eb64f103","session_id":"643c24ed130c4d059d95586d","study_id":"64370a36d30bfa807bc7e43c"},{"rt":23900,"response":{"prediction":"8000"},"trial_type":"survey-text","trial_index":66,"time_elapsed":526273,"internal_node_id":"0.0-3.0-0.15","prolific_id":"622e06e4046635b0eb64f103","session_id":"643c24ed130c4d059d95586d","study_id":"64370a36d30bfa807bc7e43c"},{"rt":6522,"response":{"prior knowledge":1,"curiosity":5},"accuracy":[],"trial_type":"survey","trial_index":67,"time_elapsed":532834,"internal_node_id":"0.0-3.0-1.15","prolific_id":"622e06e4046635b0eb64f103","session_id":"643c24ed130c4d059d95586d","study_id":"64370a36d30bfa807bc7e43c"},{"rt":null,"stimulus":"\n\t\t\t<div class=\"flip_card\">\n\t\t\t\t<div class=\"flip_card_inner\">\n\t\t\t\t\t<div class=\"flip_card_front\">\n\t\t\t\t\t\t<img src=img/9.png>\n\t\t\t\t\t</div>\n\t\t\t\t\t<div class=\"flip_card_back\">\n\t\t\t\t\t\t<h2>What is the diameter of Earth in miles?</h2>\n\t\t\t\t\t\t<br>\n\t\t\t\t\t\t<p>Answer: <strong>7917.5</strong></p>\n\t\t\t\t\t</div>\n\t\t\t\t</div>\n\t\t\t</div>\n\t\t\t","response":null,"trial_type":"html-keyboard-response","trial_index":68,"time_elapsed":537837,"internal_node_id":"0.0-3.0-2.15","prolific_id":"622e06e4046635b0eb64f103","session_id":"643c24ed130c4d059d95586d","study_id":"64370a36d30bfa807bc7e43c"},{"rt":1841,"stimulus":"\n\t\t\t\t\t<div>\n\t\t\t\t\t<h2>Trial 16 is over</h2>\n\t\t\t\t\t<p>Press <span style=\"color: red\"><strong>any key</strong></span> to continue to the next trial</p>\n\t\t\t\t\t</div>\n\t\t\t\t","response":"enter","trial_type":"html-keyboard-response","trial_index":69,"time_elapsed":539679,"internal_node_id":"0.0-3.0-3.15","prolific_id":"622e06e4046635b0eb64f103","session_id":"643c24ed130c4d059d95586d","study_id":"64370a36d30bfa807bc7e43c"},{"rt":9398,"response":{"prediction":"208"},"trial_type":"survey-text","trial_index":70,"time_elapsed":549082,"internal_node_id":"0.0-3.0-0.16","prolific_id":"622e06e4046635b0eb64f103","session_id":"643c24ed130c4d059d95586d","study_id":"64370a36d30bfa807bc7e43c"},{"rt":7578,"response":{"prior knowledge":3,"curiosity":3},"accuracy":[],"trial_type":"survey","trial_index":71,"time_elapsed":556706,"internal_node_id":"0.0-3.0-1.16","prolific_id":"622e06e4046635b0eb64f103","session_id":"643c24ed130c4d059d95586d","study_id":"64370a36d30bfa807bc7e43c"},{"rt":null,"stimulus":"\n\t\t\t<div class=\"flip_card\">\n\t\t\t\t<div class=\"flip_card_inner\">\n\t\t\t\t\t<div class=\"flip_card_front\">\n\t\t\t\t\t\t<img src=img/25.png>\n\t\t\t\t\t</div>\n\t\t\t\t\t<div class=\"flip_card_back\">\n\t\t\t\t\t\t<h2>How many bones is a human baby born with?</h2>\n\t\t\t\t\t\t<br>\n\t\t\t\t\t\t<p>Answer: <strong>300</strong></p>\n\t\t\t\t\t</div>\n\t\t\t\t</div>\n\t\t\t</div>\n\t\t\t","response":null,"trial_type":"html-keyboard-response","trial_index":72,"time_elapsed":561723,"internal_node_id":"0.0-3.0-2.16","prolific_id":"622e06e4046635b0eb64f103","session_id":"643c24ed130c4d059d95586d","study_id":"64370a36d30bfa807bc7e43c"},{"rt":227,"stimulus":"\n\t\t\t\t\t<div>\n\t\t\t\t\t<h2>Trial 17 is over</h2>\n\t\t\t\t\t<p>Press <span style=\"color: red\"><strong>any key</strong></span> to continue to the next trial</p>\n\t\t\t\t\t</div>\n\t\t\t\t","response":"enter","trial_type":"html-keyboard-response","trial_index":73,"time_elapsed":561951,"internal_node_id":"0.0-3.0-3.16","prolific_id":"622e06e4046635b0eb64f103","session_id":"643c24ed130c4d059d95586d","study_id":"64370a36d30bfa807bc7e43c"},{"rt":8694,"response":{"prediction":"1989"},"trial_type":"survey-text","trial_index":74,"time_elapsed":570650,"internal_node_id":"0.0-3.0-0.17","prolific_id":"622e06e4046635b0eb64f103","session_id":"643c24ed130c4d059d95586d","study_id":"64370a36d30bfa807bc7e43c"},{"rt":8122,"response":{"prior knowledge":3,"curiosity":5},"accuracy":[],"trial_type":"survey","trial_index":75,"time_elapsed":578809,"internal_node_id":"0.0-3.0-1.17","prolific_id":"622e06e4046635b0eb64f103","session_id":"643c24ed130c4d059d95586d","study_id":"64370a36d30bfa807bc7e43c"},{"rt":null,"stimulus":"\n\t\t\t<div class=\"flip_card\">\n\t\t\t\t<div class=\"flip_card_inner\">\n\t\t\t\t\t<div class=\"flip_card_front\">\n\t\t\t\t\t\t<img src=img/23.png>\n\t\t\t\t\t</div>\n\t\t\t\t\t<div class=\"flip_card_back\">\n\t\t\t\t\t\t<h2>What year did the Berlin Wall fall?</h2>\n\t\t\t\t\t\t<br>\n\t\t\t\t\t\t<p>Answer: <strong>1989</strong></p>\n\t\t\t\t\t</div>\n\t\t\t\t</div>\n\t\t\t</div>\n\t\t\t","response":null,"trial_type":"html-keyboard-response","trial_index":76,"time_elapsed":583827,"internal_node_id":"0.0-3.0-2.17","prolific_id":"622e06e4046635b0eb64f103","session_id":"643c24ed130c4d059d95586d","study_id":"64370a36d30bfa807bc7e43c"},{"rt":1490,"stimulus":"\n\t\t\t\t\t<div>\n\t\t\t\t\t<h2>Trial 18 is over</h2>\n\t\t\t\t\t<p>Press <span style=\"color: red\"><strong>any key</strong></span> to continue to the next trial</p>\n\t\t\t\t\t</div>\n\t\t\t\t","response":"enter","trial_type":"html-keyboard-response","trial_index":77,"time_elapsed":585318,"internal_node_id":"0.0-3.0-3.17","prolific_id":"622e06e4046635b0eb64f103","session_id":"643c24ed130c4d059d95586d","study_id":"64370a36d30bfa807bc7e43c"},{"rt":6862,"response":{"prediction":"54"},"trial_type":"survey-text","trial_index":78,"time_elapsed":592185,"internal_node_id":"0.0-3.0-0.18","prolific_id":"622e06e4046635b0eb64f103","session_id":"643c24ed130c4d059d95586d","study_id":"64370a36d30bfa807bc7e43c"},{"rt":7747,"response":{"prior knowledge":2,"curiosity":4},"accuracy":[],"trial_type":"survey","trial_index":79,"time_elapsed":599969,"internal_node_id":"0.0-3.0-1.18","prolific_id":"622e06e4046635b0eb64f103","session_id":"643c24ed130c4d059d95586d","study_id":"64370a36d30bfa807bc7e43c"},{"rt":null,"stimulus":"\n\t\t\t<div class=\"flip_card\">\n\t\t\t\t<div class=\"flip_card_inner\">\n\t\t\t\t\t<div class=\"flip_card_front\">\n\t\t\t\t\t\t<img src=img/24.png>\n\t\t\t\t\t</div>\n\t\t\t\t\t<div class=\"flip_card_back\">\n\t\t\t\t\t\t<h2>How many books has Stephen King published?</h2>\n\t\t\t\t\t\t<br>\n\t\t\t\t\t\t<p>Answer: <strong>65</strong></p>\n\t\t\t\t\t</div>\n\t\t\t\t</div>\n\t\t\t</div>\n\t\t\t","response":null,"trial_type":"html-keyboard-response","trial_index":80,"time_elapsed":604973,"internal_node_id":"0.0-3.0-2.18","prolific_id":"622e06e4046635b0eb64f103","session_id":"643c24ed130c4d059d95586d","study_id":"64370a36d30bfa807bc7e43c"},{"rt":1169,"stimulus":"\n\t\t\t\t\t<div>\n\t\t\t\t\t<h2>Trial 19 is over</h2>\n\t\t\t\t\t<p>Press <span style=\"color: red\"><strong>any key</strong></span> to continue to the next trial</p>\n\t\t\t\t\t</div>\n\t\t\t\t","response":"enter","trial_type":"html-keyboard-response","trial_index":81,"time_elapsed":606143,"internal_node_id":"0.0-3.0-3.18","prolific_id":"622e06e4046635b0eb64f103","session_id":"643c24ed130c4d059d95586d","study_id":"64370a36d30bfa807bc7e43c"},{"rt":8765,"response":{"prediction":"23"},"trial_type":"survey-text","trial_index":82,"time_elapsed":614913,"internal_node_id":"0.0-3.0-0.19","prolific_id":"622e06e4046635b0eb64f103","session_id":"643c24ed130c4d059d95586d","study_id":"64370a36d30bfa807bc7e43c"},{"rt":6945,"response":{"prior knowledge":0,"curiosity":5},"accuracy":[],"trial_type":"survey","trial_index":83,"time_elapsed":621897,"internal_node_id":"0.0-3.0-1.19","prolific_id":"622e06e4046635b0eb64f103","session_id":"643c24ed130c4d059d95586d","study_id":"64370a36d30bfa807bc7e43c"},{"rt":null,"stimulus":"\n\t\t\t<div class=\"flip_card\">\n\t\t\t\t<div class=\"flip_card_inner\">\n\t\t\t\t\t<div class=\"flip_card_front\">\n\t\t\t\t\t\t<img src=img/28.png>\n\t\t\t\t\t</div>\n\t\t\t\t\t<div class=\"flip_card_back\">\n\t\t\t\t\t\t<h2>How many tones are in the Vietnamese language?</h2>\n\t\t\t\t\t\t<br>\n\t\t\t\t\t\t<p>Answer: <strong>6</strong></p>\n\t\t\t\t\t</div>\n\t\t\t\t</div>\n\t\t\t</div>\n\t\t\t","response":null,"trial_type":"html-keyboard-response","trial_index":84,"time_elapsed":626903,"internal_node_id":"0.0-3.0-2.19","prolific_id":"622e06e4046635b0eb64f103","session_id":"643c24ed130c4d059d95586d","study_id":"64370a36d30bfa807bc7e43c"},{"rt":2359,"stimulus":"\n\t\t\t\t\t<div>\n\t\t\t\t\t<h2>Trial 20 is over</h2>\n\t\t\t\t\t<p>Press <span style=\"color: red\"><strong>any key</strong></span> to continue to the next trial</p>\n\t\t\t\t\t</div>\n\t\t\t\t","response":"enter","trial_type":"html-keyboard-response","trial_index":85,"time_elapsed":629263,"internal_node_id":"0.0-3.0-3.19","prolific_id":"622e06e4046635b0eb64f103","session_id":"643c24ed130c4d059d95586d","study_id":"64370a36d30bfa807bc7e43c"},{"rt":13245,"response":{"prediction":"25"},"trial_type":"survey-text","trial_index":86,"time_elapsed":642514,"internal_node_id":"0.0-3.0-0.20","prolific_id":"622e06e4046635b0eb64f103","session_id":"643c24ed130c4d059d95586d","study_id":"64370a36d30bfa807bc7e43c"},{"rt":7667,"response":{"prior knowledge":1,"curiosity":4},"accuracy":[],"trial_type":"survey","trial_index":87,"time_elapsed":650218,"internal_node_id":"0.0-3.0-1.20","prolific_id":"622e06e4046635b0eb64f103","session_id":"643c24ed130c4d059d95586d","study_id":"64370a36d30bfa807bc7e43c"},{"rt":null,"stimulus":"\n\t\t\t<div class=\"flip_card\">\n\t\t\t\t<div class=\"flip_card_inner\">\n\t\t\t\t\t<div class=\"flip_card_front\">\n\t\t\t\t\t\t<img src=img/8.png>\n\t\t\t\t\t</div>\n\t\t\t\t\t<div class=\"flip_card_back\">\n\t\t\t\t\t\t<h2>How many people are vegan globally (in millions)?</h2>\n\t\t\t\t\t\t<br>\n\t\t\t\t\t\t<p>Answer: <strong>79</strong></p>\n\t\t\t\t\t</div>\n\t\t\t\t</div>\n\t\t\t</div>\n\t\t\t","response":null,"trial_type":"html-keyboard-response","trial_index":88,"time_elapsed":655229,"internal_node_id":"0.0-3.0-2.20","prolific_id":"622e06e4046635b0eb64f103","session_id":"643c24ed130c4d059d95586d","study_id":"64370a36d30bfa807bc7e43c"},{"rt":1440,"stimulus":"\n\t\t\t\t\t<div>\n\t\t\t\t\t<h2>Trial 21 is over</h2>\n\t\t\t\t\t<p>Press <span style=\"color: red\"><strong>any key</strong></span> to continue to the next trial</p>\n\t\t\t\t\t</div>\n\t\t\t\t","response":"enter","trial_type":"html-keyboard-response","trial_index":89,"time_elapsed":656670,"internal_node_id":"0.0-3.0-3.20","prolific_id":"622e06e4046635b0eb64f103","session_id":"643c24ed130c4d059d95586d","study_id":"64370a36d30bfa807bc7e43c"},{"rt":11686,"response":{"prediction":"23"},"trial_type":"survey-text","trial_index":90,"time_elapsed":668362,"internal_node_id":"0.0-3.0-0.21","prolific_id":"622e06e4046635b0eb64f103","session_id":"643c24ed130c4d059d95586d","study_id":"64370a36d30bfa807bc7e43c"},{"rt":9928,"response":{"prior knowledge":0,"curiosity":5},"accuracy":[],"trial_type":"survey","trial_index":91,"time_elapsed":678329,"internal_node_id":"0.0-3.0-1.21","prolific_id":"622e06e4046635b0eb64f103","session_id":"643c24ed130c4d059d95586d","study_id":"64370a36d30bfa807bc7e43c"},{"rt":null,"stimulus":"\n\t\t\t<div class=\"flip_card\">\n\t\t\t\t<div class=\"flip_card_inner\">\n\t\t\t\t\t<div class=\"flip_card_front\">\n\t\t\t\t\t\t<img src=img/30.png>\n\t\t\t\t\t</div>\n\t\t\t\t\t<div class=\"flip_card_back\">\n\t\t\t\t\t\t<h2>How many single hand gestures, or mudras, are used in Indian classical dance?</h2>\n\t\t\t\t\t\t<br>\n\t\t\t\t\t\t<p>Answer: <strong>28</strong></p>\n\t\t\t\t\t</div>\n\t\t\t\t</div>\n\t\t\t</div>\n\t\t\t","response":null,"trial_type":"html-keyboard-response","trial_index":92,"time_elapsed":683334,"internal_node_id":"0.0-3.0-2.21","prolific_id":"622e06e4046635b0eb64f103","session_id":"643c24ed130c4d059d95586d","study_id":"64370a36d30bfa807bc7e43c"},{"rt":1783,"stimulus":"\n\t\t\t\t\t<div>\n\t\t\t\t\t<h2>Trial 22 is over</h2>\n\t\t\t\t\t<p>Press <span style=\"color: red\"><strong>any key</strong></span> to continue to the next trial</p>\n\t\t\t\t\t</div>\n\t\t\t\t","response":"enter","trial_type":"html-keyboard-response","trial_index":93,"time_elapsed":685118,"internal_node_id":"0.0-3.0-3.21","prolific_id":"622e06e4046635b0eb64f103","session_id":"643c24ed130c4d059d95586d","study_id":"64370a36d30bfa807bc7e43c"},{"rt":31502,"response":{"prediction":"1901"},"trial_type":"survey-text","trial_index":94,"time_elapsed":716626,"internal_node_id":"0.0-3.0-0.22","prolific_id":"622e06e4046635b0eb64f103","session_id":"643c24ed130c4d059d95586d","study_id":"64370a36d30bfa807bc7e43c"},{"rt":8537,"response":{"prior knowledge":1,"curiosity":4},"accuracy":[],"trial_type":"survey","trial_index":95,"time_elapsed":725202,"internal_node_id":"0.0-3.0-1.22","prolific_id":"622e06e4046635b0eb64f103","session_id":"643c24ed130c4d059d95586d","study_id":"64370a36d30bfa807bc7e43c"},{"rt":null,"stimulus":"\n\t\t\t<div class=\"flip_card\">\n\t\t\t\t<div class=\"flip_card_inner\">\n\t\t\t\t\t<div class=\"flip_card_front\">\n\t\t\t\t\t\t<img src=img/27.png>\n\t\t\t\t\t</div>\n\t\t\t\t\t<div class=\"flip_card_back\">\n\t\t\t\t\t\t<h2>In what year was the first Nobel Prize awarded?</h2>\n\t\t\t\t\t\t<br>\n\t\t\t\t\t\t<p>Answer: <strong>1901</strong></p>\n\t\t\t\t\t</div>\n\t\t\t\t</div>\n\t\t\t</div>\n\t\t\t","response":null,"trial_type":"html-keyboard-response","trial_index":96,"time_elapsed":730214,"internal_node_id":"0.0-3.0-2.22","prolific_id":"622e06e4046635b0eb64f103","session_id":"643c24ed130c4d059d95586d","study_id":"64370a36d30bfa807bc7e43c"},{"rt":1992,"stimulus":"\n\t\t\t\t\t<div>\n\t\t\t\t\t<h2>Trial 23 is over</h2>\n\t\t\t\t\t<p>Press <span style=\"color: red\"><strong>any key</strong></span> to continue to the next trial</p>\n\t\t\t\t\t</div>\n\t\t\t\t","response":"enter","trial_type":"html-keyboard-response","trial_index":97,"time_elapsed":732207,"internal_node_id":"0.0-3.0-3.22","prolific_id":"622e06e4046635b0eb64f103","session_id":"643c24ed130c4d059d95586d","study_id":"64370a36d30bfa807bc7e43c"},{"rt":5886,"response":{"prediction":"12"},"trial_type":"survey-text","trial_index":98,"time_elapsed":738097,"internal_node_id":"0.0-3.0-0.23","prolific_id":"622e06e4046635b0eb64f103","session_id":"643c24ed130c4d059d95586d","study_id":"64370a36d30bfa807bc7e43c"},{"rt":6012,"response":{"prior knowledge":1,"curiosity":5},"accuracy":[],"trial_type":"survey","trial_index":99,"time_elapsed":744146,"internal_node_id":"0.0-3.0-1.23","prolific_id":"622e06e4046635b0eb64f103","session_id":"643c24ed130c4d059d95586d","study_id":"64370a36d30bfa807bc7e43c"},{"rt":null,"stimulus":"\n\t\t\t<div class=\"flip_card\">\n\t\t\t\t<div class=\"flip_card_inner\">\n\t\t\t\t\t<div class=\"flip_card_front\">\n\t\t\t\t\t\t<img src=img/12.png>\n\t\t\t\t\t</div>\n\t\t\t\t\t<div class=\"flip_card_back\">\n\t\t\t\t\t\t<h2>How many constellations are there?</h2>\n\t\t\t\t\t\t<br>\n\t\t\t\t\t\t<p>Answer: <strong>88</strong></p>\n\t\t\t\t\t</div>\n\t\t\t\t</div>\n\t\t\t</div>\n\t\t\t","response":null,"trial_type":"html-keyboard-response","trial_index":100,"time_elapsed":749161,"internal_node_id":"0.0-3.0-2.23","prolific_id":"622e06e4046635b0eb64f103","session_id":"643c24ed130c4d059d95586d","study_id":"64370a36d30bfa807bc7e43c"},{"rt":1092,"stimulus":"\n\t\t\t\t\t<div>\n\t\t\t\t\t<h2>Trial 24 is over</h2>\n\t\t\t\t\t<p>Press <span style=\"color: red\"><strong>any key</strong></span> to continue to the next trial</p>\n\t\t\t\t\t</div>\n\t\t\t\t","response":"enter","trial_type":"html-keyboard-response","trial_index":101,"time_elapsed":750254,"internal_node_id":"0.0-3.0-3.23","prolific_id":"622e06e4046635b0eb64f103","session_id":"643c24ed130c4d059d95586d","study_id":"64370a36d30bfa807bc7e43c"},{"rt":32638,"response":{"prediction":"1200"},"trial_type":"survey-text","trial_index":102,"time_elapsed":782898,"internal_node_id":"0.0-3.0-0.24","prolific_id":"622e06e4046635b0eb64f103","session_id":"643c24ed130c4d059d95586d","study_id":"64370a36d30bfa807bc7e43c"},{"rt":6187,"response":{"prior knowledge":0,"curiosity":4},"accuracy":[],"trial_type":"survey","trial_index":103,"time_elapsed":789121,"internal_node_id":"0.0-3.0-1.24","prolific_id":"622e06e4046635b0eb64f103","session_id":"643c24ed130c4d059d95586d","study_id":"64370a36d30bfa807bc7e43c"},{"rt":null,"stimulus":"\n\t\t\t<div class=\"flip_card\">\n\t\t\t\t<div class=\"flip_card_inner\">\n\t\t\t\t\t<div class=\"flip_card_front\">\n\t\t\t\t\t\t<img src=img/14.png>\n\t\t\t\t\t</div>\n\t\t\t\t\t<div class=\"flip_card_back\">\n\t\t\t\t\t\t<h2>How many main islands make up Japan?</h2>\n\t\t\t\t\t\t<br>\n\t\t\t\t\t\t<p>Answer: <strong>4</strong></p>\n\t\t\t\t\t</div>\n\t\t\t\t</div>\n\t\t\t</div>\n\t\t\t","response":null,"trial_type":"html-keyboard-response","trial_index":104,"time_elapsed":794129,"internal_node_id":"0.0-3.0-2.24","prolific_id":"622e06e4046635b0eb64f103","session_id":"643c24ed130c4d059d95586d","study_id":"64370a36d30bfa807bc7e43c"},{"rt":2573,"stimulus":"\n\t\t\t\t\t<div>\n\t\t\t\t\t<h2>Trial 25 is over</h2>\n\t\t\t\t\t<p>Press <span style=\"color: red\"><strong>any key</strong></span> to continue to the next trial</p>\n\t\t\t\t\t</div>\n\t\t\t\t","response":"enter","trial_type":"html-keyboard-response","trial_index":105,"time_elapsed":796702,"internal_node_id":"0.0-3.0-3.24","prolific_id":"622e06e4046635b0eb64f103","session_id":"643c24ed130c4d059d95586d","study_id":"64370a36d30bfa807bc7e43c"},{"rt":39005,"response":{"prediction":"150"},"trial_type":"survey-text","trial_index":106,"time_elapsed":835713,"internal_node_id":"0.0-3.0-0.25","prolific_id":"622e06e4046635b0eb64f103","session_id":"643c24ed130c4d059d95586d","study_id":"64370a36d30bfa807bc7e43c"},{"rt":8073,"response":{"prior knowledge":1,"curiosity":5},"accuracy":[],"trial_type":"survey","trial_index":107,"time_elapsed":843825,"internal_node_id":"0.0-3.0-1.25","prolific_id":"622e06e4046635b0eb64f103","session_id":"643c24ed130c4d059d95586d","study_id":"64370a36d30bfa807bc7e43c"},{"rt":null,"stimulus":"\n\t\t\t<div class=\"flip_card\">\n\t\t\t\t<div class=\"flip_card_inner\">\n\t\t\t\t\t<div class=\"flip_card_front\">\n\t\t\t\t\t\t<img src=img/13.png>\n\t\t\t\t\t</div>\n\t\t\t\t\t<div class=\"flip_card_back\">\n\t\t\t\t\t\t<h2>How many floors are in the Burj Khalifa, the tallest building in the world?</h2>\n\t\t\t\t\t\t<br>\n\t\t\t\t\t\t<p>Answer: <strong>163</strong></p>\n\t\t\t\t\t</div>\n\t\t\t\t</div>\n\t\t\t</div>\n\t\t\t","response":null,"trial_type":"html-keyboard-response","trial_index":108,"time_elapsed":848837,"internal_node_id":"0.0-3.0-2.25","prolific_id":"622e06e4046635b0eb64f103","session_id":"643c24ed130c4d059d95586d","study_id":"64370a36d30bfa807bc7e43c"},{"rt":128,"stimulus":"\n\t\t\t\t\t<div>\n\t\t\t\t\t<h2>Trial 26 is over</h2>\n\t\t\t\t\t<p>Press <span style=\"color: red\"><strong>any key</strong></span> to continue to the next trial</p>\n\t\t\t\t\t</div>\n\t\t\t\t","response":"enter","trial_type":"html-keyboard-response","trial_index":109,"time_elapsed":848966,"internal_node_id":"0.0-3.0-3.25","prolific_id":"622e06e4046635b0eb64f103","session_id":"643c24ed130c4d059d95586d","study_id":"64370a36d30bfa807bc7e43c"},{"rt":21311,"response":{"prediction":"14"},"trial_type":"survey-text","trial_index":110,"time_elapsed":870281,"internal_node_id":"0.0-3.0-0.26","prolific_id":"622e06e4046635b0eb64f103","session_id":"643c24ed130c4d059d95586d","study_id":"64370a36d30bfa807bc7e43c"},{"rt":8555,"response":{"prior knowledge":5,"curiosity":3},"accuracy":[],"trial_type":"survey","trial_index":111,"time_elapsed":878873,"internal_node_id":"0.0-3.0-1.26","prolific_id":"622e06e4046635b0eb64f103","session_id":"643c24ed130c4d059d95586d","study_id":"64370a36d30bfa807bc7e43c"},{"rt":null,"stimulus":"\n\t\t\t<div class=\"flip_card\">\n\t\t\t\t<div class=\"flip_card_inner\">\n\t\t\t\t\t<div class=\"flip_card_front\">\n\t\t\t\t\t\t<img src=img/26.png>\n\t\t\t\t\t</div>\n\t\t\t\t\t<div class=\"flip_card_back\">\n\t\t\t\t\t\t<h2>How many moons does Neptune have?</h2>\n\t\t\t\t\t\t<br>\n\t\t\t\t\t\t<p>Answer: <strong>14</strong></p>\n\t\t\t\t\t</div>\n\t\t\t\t</div>\n\t\t\t</div>\n\t\t\t","response":null,"trial_type":"html-keyboard-response","trial_index":112,"time_elapsed":883880,"internal_node_id":"0.0-3.0-2.26","prolific_id":"622e06e4046635b0eb64f103","session_id":"643c24ed130c4d059d95586d","study_id":"64370a36d30bfa807bc7e43c"},{"rt":1869,"stimulus":"\n\t\t\t\t\t<div>\n\t\t\t\t\t<h2>Trial 27 is over</h2>\n\t\t\t\t\t<p>Press <span style=\"color: red\"><strong>any key</strong></span> to continue to the next trial</p>\n\t\t\t\t\t</div>\n\t\t\t\t","response":"enter","trial_type":"html-keyboard-response","trial_index":113,"time_elapsed":885750,"internal_node_id":"0.0-3.0-3.26","prolific_id":"622e06e4046635b0eb64f103","session_id":"643c24ed130c4d059d95586d","study_id":"64370a36d30bfa807bc7e43c"},{"rt":7470,"response":{"prediction":"13"},"trial_type":"survey-text","trial_index":114,"time_elapsed":893225,"internal_node_id":"0.0-3.0-0.27","prolific_id":"622e06e4046635b0eb64f103","session_id":"643c24ed130c4d059d95586d","study_id":"64370a36d30bfa807bc7e43c"},{"rt":8452,"response":{"prior knowledge":5,"curiosity":5},"accuracy":[],"trial_type":"survey","trial_index":115,"time_elapsed":901721,"internal_node_id":"0.0-3.0-1.27","prolific_id":"622e06e4046635b0eb64f103","session_id":"643c24ed130c4d059d95586d","study_id":"64370a36d30bfa807bc7e43c"},{"rt":null,"stimulus":"\n\t\t\t<div class=\"flip_card\">\n\t\t\t\t<div class=\"flip_card_inner\">\n\t\t\t\t\t<div class=\"flip_card_front\">\n\t\t\t\t\t\t<img src=img/20.png>\n\t\t\t\t\t</div>\n\t\t\t\t\t<div class=\"flip_card_back\">\n\t\t\t\t\t\t<h2>A bar mitzvah is traditionally celebrated when Jewish males turn what age?</h2>\n\t\t\t\t\t\t<br>\n\t\t\t\t\t\t<p>Answer: <strong>13</strong></p>\n\t\t\t\t\t</div>\n\t\t\t\t</div>\n\t\t\t</div>\n\t\t\t","response":null,"trial_type":"html-keyboard-response","trial_index":116,"time_elapsed":906739,"internal_node_id":"0.0-3.0-2.27","prolific_id":"622e06e4046635b0eb64f103","session_id":"643c24ed130c4d059d95586d","study_id":"64370a36d30bfa807bc7e43c"},{"rt":1049,"stimulus":"\n\t\t\t\t\t<div>\n\t\t\t\t\t<h2>Trial 28 is over</h2>\n\t\t\t\t\t<p>Press <span style=\"color: red\"><strong>any key</strong></span> to continue to the next trial</p>\n\t\t\t\t\t</div>\n\t\t\t\t","response":"enter","trial_type":"html-keyboard-response","trial_index":117,"time_elapsed":907790,"internal_node_id":"0.0-3.0-3.27","prolific_id":"622e06e4046635b0eb64f103","session_id":"643c24ed130c4d059d95586d","study_id":"64370a36d30bfa807bc7e43c"},{"rt":10279,"response":{"prediction":"3000"},"trial_type":"survey-text","trial_index":118,"time_elapsed":918073,"internal_node_id":"0.0-3.0-0.28","prolific_id":"622e06e4046635b0eb64f103","session_id":"643c24ed130c4d059d95586d","study_id":"64370a36d30bfa807bc7e43c"},{"rt":5941,"response":{"prior knowledge":2,"curiosity":5},"accuracy":[],"trial_type":"survey","trial_index":119,"time_elapsed":924056,"internal_node_id":"0.0-3.0-1.28","prolific_id":"622e06e4046635b0eb64f103","session_id":"643c24ed130c4d059d95586d","study_id":"64370a36d30bfa807bc7e43c"},{"rt":null,"stimulus":"\n\t\t\t<div class=\"flip_card\">\n\t\t\t\t<div class=\"flip_card_inner\">\n\t\t\t\t\t<div class=\"flip_card_front\">\n\t\t\t\t\t\t<img src=img/29.png>\n\t\t\t\t\t</div>\n\t\t\t\t\t<div class=\"flip_card_back\">\n\t\t\t\t\t\t<h2>How long is the Great Wall of China (in miles)?</h2>\n\t\t\t\t\t\t<br>\n\t\t\t\t\t\t<p>Answer: <strong>13171</strong></p>\n\t\t\t\t\t</div>\n\t\t\t\t</div>\n\t\t\t</div>\n\t\t\t","response":null,"trial_type":"html-keyboard-response","trial_index":120,"time_elapsed":929067,"internal_node_id":"0.0-3.0-2.28","prolific_id":"622e06e4046635b0eb64f103","session_id":"643c24ed130c4d059d95586d","study_id":"64370a36d30bfa807bc7e43c"},{"rt":882,"stimulus":"\n\t\t\t\t\t<div>\n\t\t\t\t\t<h2>Trial 29 is over</h2>\n\t\t\t\t\t<p>Press <span style=\"color: red\"><strong>any key</strong></span> to continue to the next trial</p>\n\t\t\t\t\t</div>\n\t\t\t\t","response":"enter","trial_type":"html-keyboard-response","trial_index":121,"time_elapsed":929950,"internal_node_id":"0.0-3.0-3.28","prolific_id":"622e06e4046635b0eb64f103","session_id":"643c24ed130c4d059d95586d","study_id":"64370a36d30bfa807bc7e43c"},{"rt":6047,"response":{"prediction":"16"},"trial_type":"survey-text","trial_index":122,"time_elapsed":936001,"internal_node_id":"0.0-3.0-0.29","prolific_id":"622e06e4046635b0eb64f103","session_id":"643c24ed130c4d059d95586d","study_id":"64370a36d30bfa807bc7e43c"},{"rt":6071,"response":{"prior knowledge":0,"curiosity":3},"accuracy":[],"trial_type":"survey","trial_index":123,"time_elapsed":942113,"internal_node_id":"0.0-3.0-1.29","prolific_id":"622e06e4046635b0eb64f103","session_id":"643c24ed130c4d059d95586d","study_id":"64370a36d30bfa807bc7e43c"},{"rt":null,"stimulus":"\n\t\t\t<div class=\"flip_card\">\n\t\t\t\t<div class=\"flip_card_inner\">\n\t\t\t\t\t<div class=\"flip_card_front\">\n\t\t\t\t\t\t<img src=img/7.png>\n\t\t\t\t\t</div>\n\t\t\t\t\t<div class=\"flip_card_back\">\n\t\t\t\t\t\t<h2>How many lines are in a sonnet?</h2>\n\t\t\t\t\t\t<br>\n\t\t\t\t\t\t<p>Answer: <strong>14</strong></p>\n\t\t\t\t\t</div>\n\t\t\t\t</div>\n\t\t\t</div>\n\t\t\t","response":null,"trial_type":"html-keyboard-response","trial_index":124,"time_elapsed":947124,"internal_node_id":"0.0-3.0-2.29","prolific_id":"622e06e4046635b0eb64f103","session_id":"643c24ed130c4d059d95586d","study_id":"64370a36d30bfa807bc7e43c"},{"rt":880,"stimulus":"\n\t\t\t\t\t<div>\n\t\t\t\t\t<h2>Trial 30 is over</h2>\n\t\t\t\t\t<p>Press <span style=\"color: red\"><strong>any key</strong></span> to continue to the next trial</p>\n\t\t\t\t\t</div>\n\t\t\t\t","response":"enter","trial_type":"html-keyboard-response","trial_index":125,"time_elapsed":948006,"internal_node_id":"0.0-3.0-3.29","prolific_id":"622e06e4046635b0eb64f103","session_id":"643c24ed130c4d059d95586d","study_id":"64370a36d30bfa807bc7e43c"},{"rt":null,"stimulus":"\n\t\t\t<h2>Good job! You've finished the 30 trials:p</h2>\n\t\t\t<p>In the next session, you will see two cards on the screen in each trial.</p>\n\t\t\t<p>On one card is a pattern that you have seen before in the experiment,\n\t\t\t\tand on the other card is one you have not seen.</p><br>\n\t\t\t<p>Your task is to choose the one you think you <em>have</em> seen before for every trial.</p>\n\t\t\t<p>Press '<span style=\"color: red;\"><strong>F</strong></span>' to choose the card on the left,\n\t\t\t\tand '<span style=\"color: red;\"><strong>J</strong></span>' to choose the card on the right.</p>\n\t\t\t<p>Have fun!</p>\n\t\t\t<br>\n\t\t\t<p>The trials will begin in 30 seconds</p>\n\t\t\t","response":null,"trial_type":"html-keyboard-response","trial_index":126,"time_elapsed":978019,"internal_node_id":"0.0-4.0","prolific_id":"622e06e4046635b0eb64f103","session_id":"643c24ed130c4d059d95586d","study_id":"64370a36d30bfa807bc7e43c"},{"rt":2928,"stimulus":"\n\t\t\t\t\t\t<div class=\"two_card_container\">\n\t\t\t\t\t\t<div class=\"card_container\">\n\t\t\t\t\t\t<img src=img/16.png>\n\t\t\t\t\t\t</div>\n\n\t\t\t\t\t\t<div class=\"card_container\">\n\t\t\t\t\t\t<img src=img/31.png>\n\t\t\t\t\t\t</div>","response":"j","task":"response","correct_response":"f","trial_type":"html-keyboard-response","trial_index":127,"time_elapsed":980951,"internal_node_id":"0.0-5.0-0.0","prolific_id":"622e06e4046635b0eb64f103","session_id":"643c24ed130c4d059d95586d","study_id":"64370a36d30bfa807bc7e43c","correct":false},{"rt":null,"stimulus":"\n\t\t\t\t\t<p>Wrong answer</p>\n\t\t\t\t\t","response":null,"trial_type":"html-keyboard-response","trial_index":128,"time_elapsed":981958,"internal_node_id":"0.0-5.0-1.0","prolific_id":"622e06e4046635b0eb64f103","session_id":"643c24ed130c4d059d95586d","study_id":"64370a36d30bfa807bc7e43c"},{"rt":1566,"stimulus":"\n\t\t\t\t\t\t<div class=\"two_card_container\">\n\t\t\t\t\t\t<div class=\"card_container\">\n\t\t\t\t\t\t<img src=img/37.png>\n\t\t\t\t\t\t</div>\n\n\t\t\t\t\t\t<div class=\"card_container\">\n\t\t\t\t\t\t<img src=img/20.png>\n\t\t\t\t\t\t</div>","response":"f","task":"response","correct_response":"j","trial_type":"html-keyboard-response","trial_index":129,"time_elapsed":983526,"internal_node_id":"0.0-5.0-0.1","prolific_id":"622e06e4046635b0eb64f103","session_id":"643c24ed130c4d059d95586d","study_id":"64370a36d30bfa807bc7e43c","correct":false},{"rt":null,"stimulus":"\n\t\t\t\t\t<p>Wrong answer</p>\n\t\t\t\t\t","response":null,"trial_type":"html-keyboard-response","trial_index":130,"time_elapsed":984535,"internal_node_id":"0.0-5.0-1.1","prolific_id":"622e06e4046635b0eb64f103","session_id":"643c24ed130c4d059d95586d","study_id":"64370a36d30bfa807bc7e43c"},{"rt":1917,"stimulus":"\n\t\t\t\t\t\t<div class=\"two_card_container\">\n\t\t\t\t\t\t<div class=\"card_container\">\n\t\t\t\t\t\t<img src=img/33.png>\n\t\t\t\t\t\t</div>\n\n\t\t\t\t\t\t<div class=\"card_container\">\n\t\t\t\t\t\t<img src=img/14.png>\n\t\t\t\t\t\t</div>","response":"j","task":"response","correct_response":"j","trial_type":"html-keyboard-response","trial_index":131,"time_elapsed":986454,"internal_node_id":"0.0-5.0-0.2","prolific_id":"622e06e4046635b0eb64f103","session_id":"643c24ed130c4d059d95586d","study_id":"64370a36d30bfa807bc7e43c","correct":true},{"rt":null,"stimulus":"\n\t\t\t\t\t<p>Correct!</p>\n\t\t\t\t\t","response":null,"trial_type":"html-keyboard-response","trial_index":132,"time_elapsed":987463,"internal_node_id":"0.0-5.0-1.2","prolific_id":"622e06e4046635b0eb64f103","session_id":"643c24ed130c4d059d95586d","study_id":"64370a36d30bfa807bc7e43c"},{"rt":1877,"stimulus":"\n\t\t\t\t\t\t<div class=\"two_card_container\">\n\t\t\t\t\t\t<div class=\"card_container\">\n\t\t\t\t\t\t<img src=img/39.png>\n\t\t\t\t\t\t</div>\n\n\t\t\t\t\t\t<div class=\"card_container\">\n\t\t\t\t\t\t<img src=img/21.png>\n\t\t\t\t\t\t</div>","response":"j","task":"response","correct_response":"j","trial_type":"html-keyboard-response","trial_index":133,"time_elapsed":989342,"internal_node_id":"0.0-5.0-0.3","prolific_id":"622e06e4046635b0eb64f103","session_id":"643c24ed130c4d059d95586d","study_id":"64370a36d30bfa807bc7e43c","correct":true},{"rt":null,"stimulus":"\n\t\t\t\t\t<p>Correct!</p>\n\t\t\t\t\t","response":null,"trial_type":"html-keyboard-response","trial_index":134,"time_elapsed":990346,"internal_node_id":"0.0-5.0-1.3","prolific_id":"622e06e4046635b0eb64f103","session_id":"643c24ed130c4d059d95586d","study_id":"64370a36d30bfa807bc7e43c"},{"rt":1835,"stimulus":"\n\t\t\t\t\t\t<div class=\"two_card_container\">\n\t\t\t\t\t\t<div class=\"card_container\">\n\t\t\t\t\t\t<img src=img/17.png>\n\t\t\t\t\t\t</div>\n\n\t\t\t\t\t\t<div class=\"card_container\">\n\t\t\t\t\t\t<img src=img/40.png>\n\t\t\t\t\t\t</div>","response":"f","task":"response","correct_response":"f","trial_type":"html-keyboard-response","trial_index":135,"time_elapsed":992183,"internal_node_id":"0.0-5.0-0.4","prolific_id":"622e06e4046635b0eb64f103","session_id":"643c24ed130c4d059d95586d","study_id":"64370a36d30bfa807bc7e43c","correct":true},{"rt":null,"stimulus":"\n\t\t\t\t\t<p>Correct!</p>\n\t\t\t\t\t","response":null,"trial_type":"html-keyboard-response","trial_index":136,"time_elapsed":993191,"internal_node_id":"0.0-5.0-1.4","prolific_id":"622e06e4046635b0eb64f103","session_id":"643c24ed130c4d059d95586d","study_id":"64370a36d30bfa807bc7e43c"},{"rt":2741,"stimulus":"\n\t\t\t\t\t\t<div class=\"two_card_container\">\n\t\t\t\t\t\t<div class=\"card_container\">\n\t\t\t\t\t\t<img src=img/38.png>\n\t\t\t\t\t\t</div>\n\n\t\t\t\t\t\t<div class=\"card_container\">\n\t\t\t\t\t\t<img src=img/9.png>\n\t\t\t\t\t\t</div>","response":"j","task":"response","correct_response":"j","trial_type":"html-keyboard-response","trial_index":137,"time_elapsed":995934,"internal_node_id":"0.0-5.0-0.5","prolific_id":"622e06e4046635b0eb64f103","session_id":"643c24ed130c4d059d95586d","study_id":"64370a36d30bfa807bc7e43c","correct":true},{"rt":null,"stimulus":"\n\t\t\t\t\t<p>Correct!</p>\n\t\t\t\t\t","response":null,"trial_type":"html-keyboard-response","trial_index":138,"time_elapsed":996942,"internal_node_id":"0.0-5.0-1.5","prolific_id":"622e06e4046635b0eb64f103","session_id":"643c24ed130c4d059d95586d","study_id":"64370a36d30bfa807bc7e43c"},{"rt":1854,"stimulus":"\n\t\t\t\t\t\t<div class=\"two_card_container\">\n\t\t\t\t\t\t<div class=\"card_container\">\n\t\t\t\t\t\t<img src=img/34.png>\n\t\t\t\t\t\t</div>\n\n\t\t\t\t\t\t<div class=\"card_container\">\n\t\t\t\t\t\t<img src=img/11.png>\n\t\t\t\t\t\t</div>","response":"j","task":"response","correct_response":"j","trial_type":"html-keyboard-response","trial_index":139,"time_elapsed":998798,"internal_node_id":"0.0-5.0-0.6","prolific_id":"622e06e4046635b0eb64f103","session_id":"643c24ed130c4d059d95586d","study_id":"64370a36d30bfa807bc7e43c","correct":true},{"rt":null,"stimulus":"\n\t\t\t\t\t<p>Correct!</p>\n\t\t\t\t\t","response":null,"trial_type":"html-keyboard-response","trial_index":140,"time_elapsed":999801,"internal_node_id":"0.0-5.0-1.6","prolific_id":"622e06e4046635b0eb64f103","session_id":"643c24ed130c4d059d95586d","study_id":"64370a36d30bfa807bc7e43c"},{"rt":1395,"stimulus":"\n\t\t\t\t\t\t<div class=\"two_card_container\">\n\t\t\t\t\t\t<div class=\"card_container\">\n\t\t\t\t\t\t<img src=img/29.png>\n\t\t\t\t\t\t</div>\n\n\t\t\t\t\t\t<div class=\"card_container\">\n\t\t\t\t\t\t<img src=img/32.png>\n\t\t\t\t\t\t</div>","response":"f","task":"response","correct_response":"f","trial_type":"html-keyboard-response","trial_index":141,"time_elapsed":1001198,"internal_node_id":"0.0-5.0-0.7","prolific_id":"622e06e4046635b0eb64f103","session_id":"643c24ed130c4d059d95586d","study_id":"64370a36d30bfa807bc7e43c","correct":true},{"rt":null,"stimulus":"\n\t\t\t\t\t<p>Correct!</p>\n\t\t\t\t\t","response":null,"trial_type":"html-keyboard-response","trial_index":142,"time_elapsed":1002212,"internal_node_id":"0.0-5.0-1.7","prolific_id":"622e06e4046635b0eb64f103","session_id":"643c24ed130c4d059d95586d","study_id":"64370a36d30bfa807bc7e43c"},{"rt":1433,"stimulus":"\n\t\t\t\t\t\t<div class=\"two_card_container\">\n\t\t\t\t\t\t<div class=\"card_container\">\n\t\t\t\t\t\t<img src=img/30.png>\n\t\t\t\t\t\t</div>\n\n\t\t\t\t\t\t<div class=\"card_container\">\n\t\t\t\t\t\t<img src=img/35.png>\n\t\t\t\t\t\t</div>","response":"f","task":"response","correct_response":"f","trial_type":"html-keyboard-response","trial_index":143,"time_elapsed":1003647,"internal_node_id":"0.0-5.0-0.8","prolific_id":"622e06e4046635b0eb64f103","session_id":"643c24ed130c4d059d95586d","study_id":"64370a36d30bfa807bc7e43c","correct":true},{"rt":null,"stimulus":"\n\t\t\t\t\t<p>Correct!</p>\n\t\t\t\t\t","response":null,"trial_type":"html-keyboard-response","trial_index":144,"time_elapsed":1004661,"internal_node_id":"0.0-5.0-1.8","prolific_id":"622e06e4046635b0eb64f103","session_id":"643c24ed130c4d059d95586d","study_id":"64370a36d30bfa807bc7e43c"},{"rt":2206,"stimulus":"\n\t\t\t\t\t\t<div class=\"two_card_container\">\n\t\t\t\t\t\t<div class=\"card_container\">\n\t\t\t\t\t\t<img src=img/4.png>\n\t\t\t\t\t\t</div>\n\n\t\t\t\t\t\t<div class=\"card_container\">\n\t\t\t\t\t\t<img src=img/36.png>\n\t\t\t\t\t\t</div>","response":"j","task":"response","correct_response":"f","trial_type":"html-keyboard-response","trial_index":145,"time_elapsed":1006869,"internal_node_id":"0.0-5.0-0.9","prolific_id":"622e06e4046635b0eb64f103","session_id":"643c24ed130c4d059d95586d","study_id":"64370a36d30bfa807bc7e43c","correct":false},{"rt":null,"stimulus":"\n\t\t\t\t\t<p>Wrong answer</p>\n\t\t\t\t\t","response":null,"trial_type":"html-keyboard-response","trial_index":146,"time_elapsed":1007879,"internal_node_id":"0.0-5.0-1.9","prolific_id":"622e06e4046635b0eb64f103","session_id":"643c24ed130c4d059d95586d","study_id":"64370a36d30bfa807bc7e43c"},{"rt":null,"stimulus":"\n\t\t\t<h2>Good job :p</h2>\n\t\t\t<p>In the next session, you will see a trivia question on the screen in each trial.</p>\n\t\t\t<p>Each of these trivia questions is chosen from the questions you have already seen in the first session of the experiment.</p><br>\n\t\t\t<p>Your task is to answer the trivia question based on what you remember as accurately as you can.</p>\n\t\t\t<p>Have fun!</p>\n\t\t\t<br>\n\t\t\t<p>The trials will begin in 30 seconds</p>\n\t\t\t","response":null,"trial_type":"html-keyboard-response","trial_index":147,"time_elapsed":1037895,"internal_node_id":"0.0-6.0","prolific_id":"622e06e4046635b0eb64f103","session_id":"643c24ed130c4d059d95586d","study_id":"64370a36d30bfa807bc7e43c"},{"rt":10324,"response":{"answer":"15"},"task":"response","correct_response":"14","trial_type":"survey-text","trial_index":148,"time_elapsed":1048225,"internal_node_id":"0.0-7.0-0.0","prolific_id":"622e06e4046635b0eb64f103","session_id":"643c24ed130c4d059d95586d","study_id":"64370a36d30bfa807bc7e43c","difference":7},{"rt":null,"stimulus":"<h2>The correct answer is 14.</h2><p>Your answer was different from the answer by 1.</p><p>Excellent. Kudos to you!</p>","response":null,"trial_type":"html-keyboard-response","trial_index":149,"time_elapsed":1050730,"internal_node_id":"0.0-7.0-1.0","prolific_id":"622e06e4046635b0eb64f103","session_id":"643c24ed130c4d059d95586d","study_id":"64370a36d30bfa807bc7e43c"},{"rt":12147,"response":{"answer":"103"},"task":"response","correct_response":"108","trial_type":"survey-text","trial_index":150,"time_elapsed":1062881,"internal_node_id":"0.0-7.0-0.1","prolific_id":"622e06e4046635b0eb64f103","session_id":"643c24ed130c4d059d95586d","study_id":"64370a36d30bfa807bc7e43c","difference":5},{"rt":null,"stimulus":"<h2>The correct answer is 108.</h2><p>Your answer was different from the answer by 5.</p><p>Excellent. Kudos to you!</p>","response":null,"trial_type":"html-keyboard-response","trial_index":151,"time_elapsed":1065395,"internal_node_id":"0.0-7.0-1.1","prolific_id":"622e06e4046635b0eb64f103","session_id":"643c24ed130c4d059d95586d","study_id":"64370a36d30bfa807bc7e43c"},{"rt":5602,"response":{"answer":"1989"},"task":"response","correct_response":"1989","trial_type":"survey-text","trial_index":152,"time_elapsed":1071001,"internal_node_id":"0.0-7.0-0.2","prolific_id":"622e06e4046635b0eb64f103","session_id":"643c24ed130c4d059d95586d","study_id":"64370a36d30bfa807bc7e43c","difference":0},{"rt":null,"stimulus":"<h2>The correct answer is 1989.</h2><p>Your answer was different from the answer by 0.</p><p>You got the right answer. Amazing work!</p>","response":null,"trial_type":"html-keyboard-response","trial_index":153,"time_elapsed":1073504,"internal_node_id":"0.0-7.0-1.2","prolific_id":"622e06e4046635b0eb64f103","session_id":"643c24ed130c4d059d95586d","study_id":"64370a36d30bfa807bc7e43c"},{"rt":11221,"response":{"answer":"16"},"task":"response","correct_response":"8","trial_type":"survey-text","trial_index":154,"time_elapsed":1084729,"internal_node_id":"0.0-7.0-0.3","prolific_id":"622e06e4046635b0eb64f103","session_id":"643c24ed130c4d059d95586d","study_id":"64370a36d30bfa807bc7e43c","difference":100},{"rt":null,"stimulus":"<h2>The correct answer is 8.</h2><p>Your answer was different from the answer by 8.</p><p>Not even close... do better next time!</p>","response":null,"trial_type":"html-keyboard-response","trial_index":155,"time_elapsed":1087231,"internal_node_id":"0.0-7.0-1.3","prolific_id":"622e06e4046635b0eb64f103","session_id":"643c24ed130c4d059d95586d","study_id":"64370a36d30bfa807bc7e43c"},{"rt":5277,"response":{"answer":"65"},"task":"response","correct_response":"65","trial_type":"survey-text","trial_index":156,"time_elapsed":1092513,"internal_node_id":"0.0-7.0-0.4","prolific_id":"622e06e4046635b0eb64f103","session_id":"643c24ed130c4d059d95586d","study_id":"64370a36d30bfa807bc7e43c","difference":0},{"rt":null,"stimulus":"<h2>The correct answer is 65.</h2><p>Your answer was different from the answer by 0.</p><p>You got the right answer. Amazing work!</p>","response":null,"trial_type":"html-keyboard-response","trial_index":157,"time_elapsed":1095020,"internal_node_id":"0.0-7.0-1.4","prolific_id":"622e06e4046635b0eb64f103","session_id":"643c24ed130c4d059d95586d","study_id":"64370a36d30bfa807bc7e43c"},{"rt":6865,"response":{"answer":"1912"},"task":"response","correct_response":"1912","trial_type":"survey-text","trial_index":158,"time_elapsed":1101889,"internal_node_id":"0.0-7.0-0.5","prolific_id":"622e06e4046635b0eb64f103","session_id":"643c24ed130c4d059d95586d","study_id":"64370a36d30bfa807bc7e43c","difference":0},{"rt":null,"stimulus":"<h2>The correct answer is 1912.</h2><p>Your answer was different from the answer by 0.</p><p>You got the right answer. Amazing work!</p>","response":null,"trial_type":"html-keyboard-response","trial_index":159,"time_elapsed":1104396,"internal_node_id":"0.0-7.0-1.5","prolific_id":"622e06e4046635b0eb64f103","session_id":"643c24ed130c4d059d95586d","study_id":"64370a36d30bfa807bc7e43c"},{"rt":15153,"response":{"answer":"27"},"task":"response","correct_response":"73","trial_type":"survey-text","trial_index":160,"time_elapsed":1119553,"internal_node_id":"0.0-7.0-0.6","prolific_id":"622e06e4046635b0eb64f103","session_id":"643c24ed130c4d059d95586d","study_id":"64370a36d30bfa807bc7e43c","difference":63},{"rt":null,"stimulus":"<h2>The correct answer is 73.</h2><p>Your answer was different from the answer by 46.</p><p>Not even close... do better next time!</p>","response":null,"trial_type":"html-keyboard-response","trial_index":161,"time_elapsed":1122057,"internal_node_id":"0.0-7.0-1.6","prolific_id":"622e06e4046635b0eb64f103","session_id":"643c24ed130c4d059d95586d","study_id":"64370a36d30bfa807bc7e43c"},{"rt":5131,"response":{"answer":"300"},"task":"response","correct_response":"300","trial_type":"survey-text","trial_index":162,"time_elapsed":1127193,"internal_node_id":"0.0-7.0-0.7","prolific_id":"622e06e4046635b0eb64f103","session_id":"643c24ed130c4d059d95586d","study_id":"64370a36d30bfa807bc7e43c","difference":0},{"rt":null,"stimulus":"<h2>The correct answer is 300.</h2><p>Your answer was different from the answer by 0.</p><p>You got the right answer. Amazing work!</p>","response":null,"trial_type":"html-keyboard-response","trial_index":163,"time_elapsed":1129707,"internal_node_id":"0.0-7.0-1.7","prolific_id":"622e06e4046635b0eb64f103","session_id":"643c24ed130c4d059d95586d","study_id":"64370a36d30bfa807bc7e43c"},{"rt":4178,"response":{"answer":"13"},"task":"response","correct_response":"13","trial_type":"survey-text","trial_index":164,"time_elapsed":1133889,"internal_node_id":"0.0-7.0-0.8","prolific_id":"622e06e4046635b0eb64f103","session_id":"643c24ed130c4d059d95586d","study_id":"64370a36d30bfa807bc7e43c","difference":0},{"rt":null,"stimulus":"<h2>The correct answer is 13.</h2><p>Your answer was different from the answer by 0.</p><p>You got the right answer. Amazing work!</p>","response":null,"trial_type":"html-keyboard-response","trial_index":165,"time_elapsed":1136396,"internal_node_id":"0.0-7.0-1.8","prolific_id":"622e06e4046635b0eb64f103","session_id":"643c24ed130c4d059d95586d","study_id":"64370a36d30bfa807bc7e43c"},{"rt":15033,"response":{"answer":"16"},"task":"response","correct_response":"12","trial_type":"survey-text","trial_index":166,"time_elapsed":1151434,"internal_node_id":"0.0-7.0-0.9","prolific_id":"622e06e4046635b0eb64f103","session_id":"643c24ed130c4d059d95586d","study_id":"64370a36d30bfa807bc7e43c","difference":33},{"rt":null,"stimulus":"<h2>The correct answer is 12.</h2><p>Your answer was different from the answer by 4.</p><p>Not the worst. Can you do better on the next?</p>","response":null,"trial_type":"html-keyboard-response","trial_index":167,"time_elapsed":1153941,"internal_node_id":"0.0-7.0-1.9","prolific_id":"622e06e4046635b0eb64f103","session_id":"643c24ed130c4d059d95586d","study_id":"64370a36d30bfa807bc7e43c"}]