[{"success":true,"timeout":false,"failed_images":[],"failed_audio":[],"failed_video":[],"trial_type":"preload","trial_index":0,"time_elapsed":23655,"internal_node_id":"0.0-0.0","prolific_id":"623627a3b5ee09466136f334","session_id":"643c24fa8e663af4bb2f2949","study_id":"64370a36d30bfa807bc7e43c"},{"rt":10587,"stimulus":"\n\t\t\t\t\t<p>Welcome and thank you for participating in this study!</p>\n\t\t\t\t\t<p>In each trial, you will be given a trivia question and then be asked to:</p><br>\n\t\t\t\t\t<div class=\"list\">\n\t\t\t\t\t<p>1) Predict the answer</p>\n\t\t\t\t\t<p>2) Rate how much you already know about the topic</p>\n\t\t\t\t\t<p>3) Rate how much you want to know the answer</p>\n\t\t\t\t\t</div>\n\t\t\t\t\t<br>\n\t\t\t\t\t<p>Then, you will see a card that flips over to reveal the answer.</p>\n\t\t\t\t\t<br>\n\t\t\t\t\t<p>Let's try a practice round. Press <span style=\"color: red\"><strong>any key</strong></span> to move to the next slide</p>\n\t\t\t\t\t","response":"j","trial_type":"html-keyboard-response","trial_index":1,"time_elapsed":34244,"internal_node_id":"0.0-1.0","prolific_id":"623627a3b5ee09466136f334","session_id":"643c24fa8e663af4bb2f2949","study_id":"64370a36d30bfa807bc7e43c"},{"rt":15032,"response":{"practice prediction":"8"},"task":"practice","trial_type":"survey-text","trial_index":2,"time_elapsed":49362,"internal_node_id":"0.0-2.0-0.0","prolific_id":"623627a3b5ee09466136f334","session_id":"643c24fa8e663af4bb2f2949","study_id":"64370a36d30bfa807bc7e43c"},{"rt":11688,"response":{"practice":3},"accuracy":[],"trial_type":"survey","trial_index":3,"time_elapsed":61112,"internal_node_id":"0.0-2.0-1.0","prolific_id":"623627a3b5ee09466136f334","session_id":"643c24fa8e663af4bb2f2949","study_id":"64370a36d30bfa807bc7e43c"},{"rt":null,"stimulus":"\n\t\t\t\t<div class=\"flip_card\">\n\t\t\t\t\t<div class=\"flip_card_inner\">\n\t\t\t\t\t\t<div class=\"flip_card_front\">\n\t\t\t\t\t\t\t<img src=img/practice.png>\n\t\t\t\t\t\t</div>\n\t\t\t\t\t\t<div class=\"flip_card_back\">\n\t\t\t\t\t\t\t<h2>\"How many legs does a lobster have?\"</h2>\n\t\t\t\t\t\t    <br>\n\t\t\t\t\t\t    <p>Answer: <strong>\"10\"</strong></p>\n\t\t\t\t\t    </div>\n\t\t\t\t    </div>\n\t\t\t    </div>\n\t\t\t\t","response":null,"trial_type":"html-keyboard-response","trial_index":4,"time_elapsed":66122,"internal_node_id":"0.0-2.0-2.0","prolific_id":"623627a3b5ee09466136f334","session_id":"643c24fa8e663af4bb2f2949","study_id":"64370a36d30bfa807bc7e43c"},{"rt":2932,"stimulus":"\n\t\t\t\t\t<div>\n\t\t\t\t\t<h2>The practice round is over</h2>\n\t\t\t\t\t<p>Press <span style=\"color: red\"><strong>any key</strong></span> to continue to the actual trials</p>\n\t\t\t\t\t<p>Good Luck!</p>\n\t\t\t\t\t</div>\n\t\t\t\t\t","response":"g","trial_type":"html-keyboard-response","trial_index":5,"time_elapsed":69056,"internal_node_id":"0.0-2.0-3.0","prolific_id":"623627a3b5ee09466136f334","session_id":"643c24fa8e663af4bb2f2949","study_id":"64370a36d30bfa807bc7e43c"},{"rt":8704,"response":{"prediction":"12"},"trial_type":"survey-text","trial_index":6,"time_elapsed":77773,"internal_node_id":"0.0-3.0-0.0","prolific_id":"623627a3b5ee09466136f334","session_id":"643c24fa8e663af4bb2f2949","study_id":"64370a36d30bfa807bc7e43c"},{"rt":10062,"response":{"prior knowledge":1,"curiosity":2},"accuracy":[],"trial_type":"survey","trial_index":7,"time_elapsed":87865,"internal_node_id":"0.0-3.0-1.0","prolific_id":"623627a3b5ee09466136f334","session_id":"643c24fa8e663af4bb2f2949","study_id":"64370a36d30bfa807bc7e43c"},{"rt":null,"stimulus":"\n\t\t\t<div class=\"flip_card\">\n\t\t\t\t<div class=\"flip_card_inner\">\n\t\t\t\t\t<div class=\"flip_card_front\">\n\t\t\t\t\t\t<img src=img/14.png>\n\t\t\t\t\t</div>\n\t\t\t\t\t<div class=\"flip_card_back\">\n\t\t\t\t\t\t<h2>How many different animals (real or imaginary) are represented in the Chinese calendar?</h2>\n\t\t\t\t\t\t<br>\n\t\t\t\t\t\t<p>Answer: <strong>12</strong></p>\n\t\t\t\t\t</div>\n\t\t\t\t</div>\n\t\t\t</div>\n\t\t\t","response":null,"trial_type":"html-keyboard-response","trial_index":8,"time_elapsed":92869,"internal_node_id":"0.0-3.0-2.0","prolific_id":"623627a3b5ee09466136f334","session_id":"643c24fa8e663af4bb2f2949","study_id":"64370a36d30bfa807bc7e43c"},{"rt":2106,"stimulus":"\n\t\t\t\t\t<div>\n\t\t\t\t\t<h2>Trial 1 is over</h2>\n\t\t\t\t\t<p>Press <span style=\"color: red\"><strong>any key</strong></span> to continue to the next trial</p>\n\t\t\t\t\t</div>\n\t\t\t\t","response":"g","trial_type":"html-keyboard-response","trial_index":9,"time_elapsed":94977,"internal_node_id":"0.0-3.0-3.0","prolific_id":"623627a3b5ee09466136f334","session_id":"643c24fa8e663af4bb2f2949","study_id":"64370a36d30bfa807bc7e43c"},{"rt":18561,"response":{"prediction":"13"},"trial_type":"survey-text","trial_index":10,"time_elapsed":113549,"internal_node_id":"0.0-3.0-0.1","prolific_id":"623627a3b5ee09466136f334","session_id":"643c24fa8e663af4bb2f2949","study_id":"64370a36d30bfa807bc7e43c"},{"rt":8694,"response":{"prior knowledge":3,"curiosity":0},"accuracy":[],"trial_type":"survey","trial_index":11,"time_elapsed":122268,"internal_node_id":"0.0-3.0-1.1","prolific_id":"623627a3b5ee09466136f334","session_id":"643c24fa8e663af4bb2f2949","study_id":"64370a36d30bfa807bc7e43c"},{"rt":null,"stimulus":"\n\t\t\t<div class=\"flip_card\">\n\t\t\t\t<div class=\"flip_card_inner\">\n\t\t\t\t\t<div class=\"flip_card_front\">\n\t\t\t\t\t\t<img src=img/11.png>\n\t\t\t\t\t</div>\n\t\t\t\t\t<div class=\"flip_card_back\">\n\t\t\t\t\t\t<h2>How much is in a Baker's Dozen?</h2>\n\t\t\t\t\t\t<br>\n\t\t\t\t\t\t<p>Answer: <strong>13</strong></p>\n\t\t\t\t\t</div>\n\t\t\t\t</div>\n\t\t\t</div>\n\t\t\t","response":null,"trial_type":"html-keyboard-response","trial_index":12,"time_elapsed":127271,"internal_node_id":"0.0-3.0-2.1","prolific_id":"623627a3b5ee09466136f334","session_id":"643c24fa8e663af4bb2f2949","study_id":"64370a36d30bfa807bc7e43c"},{"rt":1213,"stimulus":"\n\t\t\t\t\t<div>\n\t\t\t\t\t<h2>Trial 2 is over</h2>\n\t\t\t\t\t<p>Press <span style=\"color: red\"><strong>any key</strong></span> to continue to the next trial</p>\n\t\t\t\t\t</div>\n\t\t\t\t","response":"g","trial_type":"html-keyboard-response","trial_index":13,"time_elapsed":128486,"internal_node_id":"0.0-3.0-3.1","prolific_id":"623627a3b5ee09466136f334","session_id":"643c24fa8e663af4bb2f2949","study_id":"64370a36d30bfa807bc7e43c"},{"rt":12916,"response":{"prediction":"1962"},"trial_type":"survey-text","trial_index":14,"time_elapsed":141405,"internal_node_id":"0.0-3.0-0.2","prolific_id":"623627a3b5ee09466136f334","session_id":"643c24fa8e663af4bb2f2949","study_id":"64370a36d30bfa807bc7e43c"},{"rt":5025,"response":{"prior knowledge":0,"curiosity":3},"accuracy":[],"trial_type":"survey","trial_index":15,"time_elapsed":146456,"internal_node_id":"0.0-3.0-1.2","prolific_id":"623627a3b5ee09466136f334","session_id":"643c24fa8e663af4bb2f2949","study_id":"64370a36d30bfa807bc7e43c"},{"rt":null,"stimulus":"\n\t\t\t<div class=\"flip_card\">\n\t\t\t\t<div class=\"flip_card_inner\">\n\t\t\t\t\t<div class=\"flip_card_front\">\n\t\t\t\t\t\t<img src=img/28.png>\n\t\t\t\t\t</div>\n\t\t\t\t\t<div class=\"flip_card_back\">\n\t\t\t\t\t\t<h2>What year did the Berlin Wall fall?</h2>\n\t\t\t\t\t\t<br>\n\t\t\t\t\t\t<p>Answer: <strong>1989</strong></p>\n\t\t\t\t\t</div>\n\t\t\t\t</div>\n\t\t\t</div>\n\t\t\t","response":null,"trial_type":"html-keyboard-response","trial_index":16,"time_elapsed":151471,"internal_node_id":"0.0-3.0-2.2","prolific_id":"623627a3b5ee09466136f334","session_id":"643c24fa8e663af4bb2f2949","study_id":"64370a36d30bfa807bc7e43c"},{"rt":2017,"stimulus":"\n\t\t\t\t\t<div>\n\t\t\t\t\t<h2>Trial 3 is over</h2>\n\t\t\t\t\t<p>Press <span style=\"color: red\"><strong>any key</strong></span> to continue to the next trial</p>\n\t\t\t\t\t</div>\n\t\t\t\t","response":"h","trial_type":"html-keyboard-response","trial_index":17,"time_elapsed":153489,"internal_node_id":"0.0-3.0-3.2","prolific_id":"623627a3b5ee09466136f334","session_id":"643c24fa8e663af4bb2f2949","study_id":"64370a36d30bfa807bc7e43c"},{"rt":6102,"response":{"prediction":"4"},"trial_type":"survey-text","trial_index":18,"time_elapsed":159597,"internal_node_id":"0.0-3.0-0.3","prolific_id":"623627a3b5ee09466136f334","session_id":"643c24fa8e663af4bb2f2949","study_id":"64370a36d30bfa807bc7e43c"},{"rt":4902,"response":{"prior knowledge":0,"curiosity":3},"accuracy":[],"trial_type":"survey","trial_index":19,"time_elapsed":164521,"internal_node_id":"0.0-3.0-1.3","prolific_id":"623627a3b5ee09466136f334","session_id":"643c24fa8e663af4bb2f2949","study_id":"64370a36d30bfa807bc7e43c"},{"rt":null,"stimulus":"\n\t\t\t<div class=\"flip_card\">\n\t\t\t\t<div class=\"flip_card_inner\">\n\t\t\t\t\t<div class=\"flip_card_front\">\n\t\t\t\t\t\t<img src=img/6.png>\n\t\t\t\t\t</div>\n\t\t\t\t\t<div class=\"flip_card_back\">\n\t\t\t\t\t\t<h2>How many moons does Neptune have?</h2>\n\t\t\t\t\t\t<br>\n\t\t\t\t\t\t<p>Answer: <strong>14</strong></p>\n\t\t\t\t\t</div>\n\t\t\t\t</div>\n\t\t\t</div>\n\t\t\t","response":null,"trial_type":"html-keyboard-response","trial_index":20,"time_elapsed":169532,"internal_node_id":"0.0-3.0-2.3","prolific_id":"623627a3b5ee09466136f334","session_id":"643c24fa8e663af4bb2f2949","study_id":"64370a36d30bfa807bc7e43c"},{"rt":2470,"stimulus":"\n\t\t\t\t\t<div>\n\t\t\t\t\t<h2>Trial 4 is over</h2>\n\t\t\t\t\t<p>Press <span style=\"color: red\"><strong>any key</strong></span> to continue to the next trial</p>\n\t\t\t\t\t</div>\n\t\t\t\t","response":"h","trial_type":"html-keyboard-response","trial_index":21,"time_elapsed":172005,"internal_node_id":"0.0-3.0-3.3","prolific_id":"623627a3b5ee09466136f334","session_id":"643c24fa8e663af4bb2f2949","study_id":"64370a36d30bfa807bc7e43c"},{"rt":10901,"response":{"prediction":"7"},"trial_type":"survey-text","trial_index":22,"time_elapsed":182910,"internal_node_id":"0.0-3.0-0.4","prolific_id":"623627a3b5ee09466136f334","session_id":"643c24fa8e663af4bb2f2949","study_id":"64370a36d30bfa807bc7e43c"},{"rt":5043,"response":{"prior knowledge":0,"curiosity":3},"accuracy":[],"trial_type":"survey","trial_index":23,"time_elapsed":187976,"internal_node_id":"0.0-3.0-1.4","prolific_id":"623627a3b5ee09466136f334","session_id":"643c24fa8e663af4bb2f2949","study_id":"64370a36d30bfa807bc7e43c"},{"rt":null,"stimulus":"\n\t\t\t<div class=\"flip_card\">\n\t\t\t\t<div class=\"flip_card_inner\">\n\t\t\t\t\t<div class=\"flip_card_front\">\n\t\t\t\t\t\t<img src=img/15.png>\n\t\t\t\t\t</div>\n\t\t\t\t\t<div class=\"flip_card_back\">\n\t\t\t\t\t\t<h2>How many native species of kangaroos are found in Australia?</h2>\n\t\t\t\t\t\t<br>\n\t\t\t\t\t\t<p>Answer: <strong>4</strong></p>\n\t\t\t\t\t</div>\n\t\t\t\t</div>\n\t\t\t</div>\n\t\t\t","response":null,"trial_type":"html-keyboard-response","trial_index":24,"time_elapsed":192992,"internal_node_id":"0.0-3.0-2.4","prolific_id":"623627a3b5ee09466136f334","session_id":"643c24fa8e663af4bb2f2949","study_id":"64370a36d30bfa807bc7e43c"},{"rt":1818,"stimulus":"\n\t\t\t\t\t<div>\n\t\t\t\t\t<h2>Trial 5 is over</h2>\n\t\t\t\t\t<p>Press <span style=\"color: red\"><strong>any key</strong></span> to continue to the next trial</p>\n\t\t\t\t\t</div>\n\t\t\t\t","response":"h","trial_type":"html-keyboard-response","trial_index":25,"time_elapsed":194811,"internal_node_id":"0.0-3.0-3.4","prolific_id":"623627a3b5ee09466136f334","session_id":"643c24fa8e663af4bb2f2949","study_id":"64370a36d30bfa807bc7e43c"},{"rt":18616,"response":{"prediction":"24"},"trial_type":"survey-text","trial_index":26,"time_elapsed":213430,"internal_node_id":"0.0-3.0-0.5","prolific_id":"623627a3b5ee09466136f334","session_id":"643c24fa8e663af4bb2f2949","study_id":"64370a36d30bfa807bc7e43c"},{"rt":5043,"response":{"prior knowledge":0,"curiosity":3},"accuracy":[],"trial_type":"survey","trial_index":27,"time_elapsed":218496,"internal_node_id":"0.0-3.0-1.5","prolific_id":"623627a3b5ee09466136f334","session_id":"643c24fa8e663af4bb2f2949","study_id":"64370a36d30bfa807bc7e43c"},{"rt":null,"stimulus":"\n\t\t\t<div class=\"flip_card\">\n\t\t\t\t<div class=\"flip_card_inner\">\n\t\t\t\t\t<div class=\"flip_card_front\">\n\t\t\t\t\t\t<img src=img/22.png>\n\t\t\t\t\t</div>\n\t\t\t\t\t<div class=\"flip_card_back\">\n\t\t\t\t\t\t<h2>How old was King Tut when he died?</h2>\n\t\t\t\t\t\t<br>\n\t\t\t\t\t\t<p>Answer: <strong>19</strong></p>\n\t\t\t\t\t</div>\n\t\t\t\t</div>\n\t\t\t</div>\n\t\t\t","response":null,"trial_type":"html-keyboard-response","trial_index":28,"time_elapsed":223507,"internal_node_id":"0.0-3.0-2.5","prolific_id":"623627a3b5ee09466136f334","session_id":"643c24fa8e663af4bb2f2949","study_id":"64370a36d30bfa807bc7e43c"},{"rt":2481,"stimulus":"\n\t\t\t\t\t<div>\n\t\t\t\t\t<h2>Trial 6 is over</h2>\n\t\t\t\t\t<p>Press <span style=\"color: red\"><strong>any key</strong></span> to continue to the next trial</p>\n\t\t\t\t\t</div>\n\t\t\t\t","response":"j","trial_type":"html-keyboard-response","trial_index":29,"time_elapsed":225988,"internal_node_id":"0.0-3.0-3.5","prolific_id":"623627a3b5ee09466136f334","session_id":"643c24fa8e663af4bb2f2949","study_id":"64370a36d30bfa807bc7e43c"},{"rt":9587,"response":{"prediction":"1979"},"trial_type":"survey-text","trial_index":30,"time_elapsed":235581,"internal_node_id":"0.0-3.0-0.6","prolific_id":"623627a3b5ee09466136f334","session_id":"643c24fa8e663af4bb2f2949","study_id":"64370a36d30bfa807bc7e43c"},{"rt":4438,"response":{"prior knowledge":0,"curiosity":2},"accuracy":[],"trial_type":"survey","trial_index":31,"time_elapsed":240040,"internal_node_id":"0.0-3.0-1.6","prolific_id":"623627a3b5ee09466136f334","session_id":"643c24fa8e663af4bb2f2949","study_id":"64370a36d30bfa807bc7e43c"},{"rt":null,"stimulus":"\n\t\t\t<div class=\"flip_card\">\n\t\t\t\t<div class=\"flip_card_inner\">\n\t\t\t\t\t<div class=\"flip_card_front\">\n\t\t\t\t\t\t<img src=img/9.png>\n\t\t\t\t\t</div>\n\t\t\t\t\t<div class=\"flip_card_back\">\n\t\t\t\t\t\t<h2>In what year was the first Nobel Prize awarded?</h2>\n\t\t\t\t\t\t<br>\n\t\t\t\t\t\t<p>Answer: <strong>1901</strong></p>\n\t\t\t\t\t</div>\n\t\t\t\t</div>\n\t\t\t</div>\n\t\t\t","response":null,"trial_type":"html-keyboard-response","trial_index":32,"time_elapsed":245050,"internal_node_id":"0.0-3.0-2.6","prolific_id":"623627a3b5ee09466136f334","session_id":"643c24fa8e663af4bb2f2949","study_id":"64370a36d30bfa807bc7e43c"},{"rt":1645,"stimulus":"\n\t\t\t\t\t<div>\n\t\t\t\t\t<h2>Trial 7 is over</h2>\n\t\t\t\t\t<p>Press <span style=\"color: red\"><strong>any key</strong></span> to continue to the next trial</p>\n\t\t\t\t\t</div>\n\t\t\t\t","response":"j","trial_type":"html-keyboard-response","trial_index":33,"time_elapsed":246697,"internal_node_id":"0.0-3.0-3.6","prolific_id":"623627a3b5ee09466136f334","session_id":"643c24fa8e663af4bb2f2949","study_id":"64370a36d30bfa807bc7e43c"},{"rt":23232,"response":{"prediction":"1942"},"trial_type":"survey-text","trial_index":34,"time_elapsed":269933,"internal_node_id":"0.0-3.0-0.7","prolific_id":"623627a3b5ee09466136f334","session_id":"643c24fa8e663af4bb2f2949","study_id":"64370a36d30bfa807bc7e43c"},{"rt":4694,"response":{"prior knowledge":0,"curiosity":2},"accuracy":[],"trial_type":"survey","trial_index":35,"time_elapsed":274648,"internal_node_id":"0.0-3.0-1.7","prolific_id":"623627a3b5ee09466136f334","session_id":"643c24fa8e663af4bb2f2949","study_id":"64370a36d30bfa807bc7e43c"},{"rt":null,"stimulus":"\n\t\t\t<div class=\"flip_card\">\n\t\t\t\t<div class=\"flip_card_inner\">\n\t\t\t\t\t<div class=\"flip_card_front\">\n\t\t\t\t\t\t<img src=img/27.png>\n\t\t\t\t\t</div>\n\t\t\t\t\t<div class=\"flip_card_back\">\n\t\t\t\t\t\t<h2>In what year did the first Modern Olympic Games take place?</h2>\n\t\t\t\t\t\t<br>\n\t\t\t\t\t\t<p>Answer: <strong>1896</strong></p>\n\t\t\t\t\t</div>\n\t\t\t\t</div>\n\t\t\t</div>\n\t\t\t","response":null,"trial_type":"html-keyboard-response","trial_index":36,"time_elapsed":279663,"internal_node_id":"0.0-3.0-2.7","prolific_id":"623627a3b5ee09466136f334","session_id":"643c24fa8e663af4bb2f2949","study_id":"64370a36d30bfa807bc7e43c"},{"rt":1460,"stimulus":"\n\t\t\t\t\t<div>\n\t\t\t\t\t<h2>Trial 8 is over</h2>\n\t\t\t\t\t<p>Press <span style=\"color: red\"><strong>any key</strong></span> to continue to the next trial</p>\n\t\t\t\t\t</div>\n\t\t\t\t","response":"j","trial_type":"html-keyboard-response","trial_index":37,"time_elapsed":281124,"internal_node_id":"0.0-3.0-3.7","prolific_id":"623627a3b5ee09466136f334","session_id":"643c24fa8e663af4bb2f2949","study_id":"64370a36d30bfa807bc7e43c"},{"rt":12268,"response":{"prediction":"1"},"trial_type":"survey-text","trial_index":38,"time_elapsed":293397,"internal_node_id":"0.0-3.0-0.8","prolific_id":"623627a3b5ee09466136f334","session_id":"643c24fa8e663af4bb2f2949","study_id":"64370a36d30bfa807bc7e43c"},{"rt":4725,"response":{"prior knowledge":3,"curiosity":3},"accuracy":[],"trial_type":"survey","trial_index":39,"time_elapsed":298144,"internal_node_id":"0.0-3.0-1.8","prolific_id":"623627a3b5ee09466136f334","session_id":"643c24fa8e663af4bb2f2949","study_id":"64370a36d30bfa807bc7e43c"},{"rt":null,"stimulus":"\n\t\t\t<div class=\"flip_card\">\n\t\t\t\t<div class=\"flip_card_inner\">\n\t\t\t\t\t<div class=\"flip_card_front\">\n\t\t\t\t\t\t<img src=img/20.png>\n\t\t\t\t\t</div>\n\t\t\t\t\t<div class=\"flip_card_back\">\n\t\t\t\t\t\t<h2>How many main islands make up Japan?</h2>\n\t\t\t\t\t\t<br>\n\t\t\t\t\t\t<p>Answer: <strong>4</strong></p>\n\t\t\t\t\t</div>\n\t\t\t\t</div>\n\t\t\t</div>\n\t\t\t","response":null,"trial_type":"html-keyboard-response","trial_index":40,"time_elapsed":303155,"internal_node_id":"0.0-3.0-2.8","prolific_id":"623627a3b5ee09466136f334","session_id":"643c24fa8e663af4bb2f2949","study_id":"64370a36d30bfa807bc7e43c"},{"rt":1825,"stimulus":"\n\t\t\t\t\t<div>\n\t\t\t\t\t<h2>Trial 9 is over</h2>\n\t\t\t\t\t<p>Press <span style=\"color: red\"><strong>any key</strong></span> to continue to the next trial</p>\n\t\t\t\t\t</div>\n\t\t\t\t","response":"h","trial_type":"html-keyboard-response","trial_index":41,"time_elapsed":304981,"internal_node_id":"0.0-3.0-3.8","prolific_id":"623627a3b5ee09466136f334","session_id":"643c24fa8e663af4bb2f2949","study_id":"64370a36d30bfa807bc7e43c"},{"rt":26387,"response":{"prediction":"11"},"trial_type":"survey-text","trial_index":42,"time_elapsed":331373,"internal_node_id":"0.0-3.0-0.9","prolific_id":"623627a3b5ee09466136f334","session_id":"643c24fa8e663af4bb2f2949","study_id":"64370a36d30bfa807bc7e43c"},{"rt":4110,"response":{"prior knowledge":2,"curiosity":3},"accuracy":[],"trial_type":"survey","trial_index":43,"time_elapsed":335504,"internal_node_id":"0.0-3.0-1.9","prolific_id":"623627a3b5ee09466136f334","session_id":"643c24fa8e663af4bb2f2949","study_id":"64370a36d30bfa807bc7e43c"},{"rt":null,"stimulus":"\n\t\t\t<div class=\"flip_card\">\n\t\t\t\t<div class=\"flip_card_inner\">\n\t\t\t\t\t<div class=\"flip_card_front\">\n\t\t\t\t\t\t<img src=img/12.png>\n\t\t\t\t\t</div>\n\t\t\t\t\t<div class=\"flip_card_back\">\n\t\t\t\t\t\t<h2>How many soccer players should each team have on the field at the start of each match?</h2>\n\t\t\t\t\t\t<br>\n\t\t\t\t\t\t<p>Answer: <strong>11</strong></p>\n\t\t\t\t\t</div>\n\t\t\t\t</div>\n\t\t\t</div>\n\t\t\t","response":null,"trial_type":"html-keyboard-response","trial_index":44,"time_elapsed":340516,"internal_node_id":"0.0-3.0-2.9","prolific_id":"623627a3b5ee09466136f334","session_id":"643c24fa8e663af4bb2f2949","study_id":"64370a36d30bfa807bc7e43c"},{"rt":1915,"stimulus":"\n\t\t\t\t\t<div>\n\t\t\t\t\t<h2>Trial 10 is over</h2>\n\t\t\t\t\t<p>Press <span style=\"color: red\"><strong>any key</strong></span> to continue to the next trial</p>\n\t\t\t\t\t</div>\n\t\t\t\t","response":"g","trial_type":"html-keyboard-response","trial_index":45,"time_elapsed":342433,"internal_node_id":"0.0-3.0-3.9","prolific_id":"623627a3b5ee09466136f334","session_id":"643c24fa8e663af4bb2f2949","study_id":"64370a36d30bfa807bc7e43c"},{"rt":18039,"response":{"prediction":"2008"},"trial_type":"survey-text","trial_index":46,"time_elapsed":360477,"internal_node_id":"0.0-3.0-0.10","prolific_id":"623627a3b5ee09466136f334","session_id":"643c24fa8e663af4bb2f2949","study_id":"64370a36d30bfa807bc7e43c"},{"rt":4982,"response":{"prior knowledge":1,"curiosity":2},"accuracy":[],"trial_type":"survey","trial_index":47,"time_elapsed":365480,"internal_node_id":"0.0-3.0-1.10","prolific_id":"623627a3b5ee09466136f334","session_id":"643c24fa8e663af4bb2f2949","study_id":"64370a36d30bfa807bc7e43c"},{"rt":null,"stimulus":"\n\t\t\t<div class=\"flip_card\">\n\t\t\t\t<div class=\"flip_card_inner\">\n\t\t\t\t\t<div class=\"flip_card_front\">\n\t\t\t\t\t\t<img src=img/18.png>\n\t\t\t\t\t</div>\n\t\t\t\t\t<div class=\"flip_card_back\">\n\t\t\t\t\t\t<h2>What year was the very first model of the iPhone released?</h2>\n\t\t\t\t\t\t<br>\n\t\t\t\t\t\t<p>Answer: <strong>2007</strong></p>\n\t\t\t\t\t</div>\n\t\t\t\t</div>\n\t\t\t</div>\n\t\t\t","response":null,"trial_type":"html-keyboard-response","trial_index":48,"time_elapsed":370492,"internal_node_id":"0.0-3.0-2.10","prolific_id":"623627a3b5ee09466136f334","session_id":"643c24fa8e663af4bb2f2949","study_id":"64370a36d30bfa807bc7e43c"},{"rt":1807,"stimulus":"\n\t\t\t\t\t<div>\n\t\t\t\t\t<h2>Trial 11 is over</h2>\n\t\t\t\t\t<p>Press <span style=\"color: red\"><strong>any key</strong></span> to continue to the next trial</p>\n\t\t\t\t\t</div>\n\t\t\t\t","response":"h","trial_type":"html-keyboard-response","trial_index":49,"time_elapsed":372301,"internal_node_id":"0.0-3.0-3.10","prolific_id":"623627a3b5ee09466136f334","session_id":"643c24fa8e663af4bb2f2949","study_id":"64370a36d30bfa807bc7e43c"},{"rt":12179,"response":{"prediction":"300"},"trial_type":"survey-text","trial_index":50,"time_elapsed":384485,"internal_node_id":"0.0-3.0-0.11","prolific_id":"623627a3b5ee09466136f334","session_id":"643c24fa8e663af4bb2f2949","study_id":"64370a36d30bfa807bc7e43c"},{"rt":4683,"response":{"prior knowledge":0,"curiosity":2},"accuracy":[],"trial_type":"survey","trial_index":51,"time_elapsed":389191,"internal_node_id":"0.0-3.0-1.11","prolific_id":"623627a3b5ee09466136f334","session_id":"643c24fa8e663af4bb2f2949","study_id":"64370a36d30bfa807bc7e43c"},{"rt":null,"stimulus":"\n\t\t\t<div class=\"flip_card\">\n\t\t\t\t<div class=\"flip_card_inner\">\n\t\t\t\t\t<div class=\"flip_card_front\">\n\t\t\t\t\t\t<img src=img/4.png>\n\t\t\t\t\t</div>\n\t\t\t\t\t<div class=\"flip_card_back\">\n\t\t\t\t\t\t<h2>How many people are vegan globally (in millions)?</h2>\n\t\t\t\t\t\t<br>\n\t\t\t\t\t\t<p>Answer: <strong>79</strong></p>\n\t\t\t\t\t</div>\n\t\t\t\t</div>\n\t\t\t</div>\n\t\t\t","response":null,"trial_type":"html-keyboard-response","trial_index":52,"time_elapsed":394203,"internal_node_id":"0.0-3.0-2.11","prolific_id":"623627a3b5ee09466136f334","session_id":"643c24fa8e663af4bb2f2949","study_id":"64370a36d30bfa807bc7e43c"},{"rt":3993,"stimulus":"\n\t\t\t\t\t<div>\n\t\t\t\t\t<h2>Trial 12 is over</h2>\n\t\t\t\t\t<p>Press <span style=\"color: red\"><strong>any key</strong></span> to continue to the next trial</p>\n\t\t\t\t\t</div>\n\t\t\t\t","response":"h","trial_type":"html-keyboard-response","trial_index":53,"time_elapsed":398198,"internal_node_id":"0.0-3.0-3.11","prolific_id":"623627a3b5ee09466136f334","session_id":"643c24fa8e663af4bb2f2949","study_id":"64370a36d30bfa807bc7e43c"},{"rt":8953,"response":{"prediction":"142"},"trial_type":"survey-text","trial_index":54,"time_elapsed":407156,"internal_node_id":"0.0-3.0-0.12","prolific_id":"623627a3b5ee09466136f334","session_id":"643c24fa8e663af4bb2f2949","study_id":"64370a36d30bfa807bc7e43c"},{"rt":3910,"response":{"prior knowledge":0,"curiosity":0},"accuracy":[],"trial_type":"survey","trial_index":55,"time_elapsed":411087,"internal_node_id":"0.0-3.0-1.12","prolific_id":"623627a3b5ee09466136f334","session_id":"643c24fa8e663af4bb2f2949","study_id":"64370a36d30bfa807bc7e43c"},{"rt":null,"stimulus":"\n\t\t\t<div class=\"flip_card\">\n\t\t\t\t<div class=\"flip_card_inner\">\n\t\t\t\t\t<div class=\"flip_card_front\">\n\t\t\t\t\t\t<img src=img/23.png>\n\t\t\t\t\t</div>\n\t\t\t\t\t<div class=\"flip_card_back\">\n\t\t\t\t\t\t<h2>How many constellations are there?</h2>\n\t\t\t\t\t\t<br>\n\t\t\t\t\t\t<p>Answer: <strong>88</strong></p>\n\t\t\t\t\t</div>\n\t\t\t\t</div>\n\t\t\t</div>\n\t\t\t","response":null,"trial_type":"html-keyboard-response","trial_index":56,"time_elapsed":416097,"internal_node_id":"0.0-3.0-2.12","prolific_id":"623627a3b5ee09466136f334","session_id":"643c24fa8e663af4bb2f2949","study_id":"64370a36d30bfa807bc7e43c"},{"rt":1383,"stimulus":"\n\t\t\t\t\t<div>\n\t\t\t\t\t<h2>Trial 13 is over</h2>\n\t\t\t\t\t<p>Press <span style=\"color: red\"><strong>any key</strong></span> to continue to the next trial</p>\n\t\t\t\t\t</div>\n\t\t\t\t","response":"h","trial_type":"html-keyboard-response","trial_index":57,"time_elapsed":417481,"internal_node_id":"0.0-3.0-3.12","prolific_id":"623627a3b5ee09466136f334","session_id":"643c24fa8e663af4bb2f2949","study_id":"64370a36d30bfa807bc7e43c"},{"rt":12038,"response":{"prediction":"13"},"trial_type":"survey-text","trial_index":58,"time_elapsed":429524,"internal_node_id":"0.0-3.0-0.13","prolific_id":"623627a3b5ee09466136f334","session_id":"643c24fa8e663af4bb2f2949","study_id":"64370a36d30bfa807bc7e43c"},{"rt":3845,"response":{"prior knowledge":0,"curiosity":0},"accuracy":[],"trial_type":"survey","trial_index":59,"time_elapsed":433391,"internal_node_id":"0.0-3.0-1.13","prolific_id":"623627a3b5ee09466136f334","session_id":"643c24fa8e663af4bb2f2949","study_id":"64370a36d30bfa807bc7e43c"},{"rt":null,"stimulus":"\n\t\t\t<div class=\"flip_card\">\n\t\t\t\t<div class=\"flip_card_inner\">\n\t\t\t\t\t<div class=\"flip_card_front\">\n\t\t\t\t\t\t<img src=img/29.png>\n\t\t\t\t\t</div>\n\t\t\t\t\t<div class=\"flip_card_back\">\n\t\t\t\t\t\t<h2>A bar mitzvah is traditionally celebrated when Jewish males turn what age?</h2>\n\t\t\t\t\t\t<br>\n\t\t\t\t\t\t<p>Answer: <strong>13</strong></p>\n\t\t\t\t\t</div>\n\t\t\t\t</div>\n\t\t\t</div>\n\t\t\t","response":null,"trial_type":"html-keyboard-response","trial_index":60,"time_elapsed":438405,"internal_node_id":"0.0-3.0-2.13","prolific_id":"623627a3b5ee09466136f334","session_id":"643c24fa8e663af4bb2f2949","study_id":"64370a36d30bfa807bc7e43c"},{"rt":1269,"stimulus":"\n\t\t\t\t\t<div>\n\t\t\t\t\t<h2>Trial 14 is over</h2>\n\t\t\t\t\t<p>Press <span style=\"color: red\"><strong>any key</strong></span> to continue to the next trial</p>\n\t\t\t\t\t</div>\n\t\t\t\t","response":"g","trial_type":"html-keyboard-response","trial_index":61,"time_elapsed":439674,"internal_node_id":"0.0-3.0-3.13","prolific_id":"623627a3b5ee09466136f334","session_id":"643c24fa8e663af4bb2f2949","study_id":"64370a36d30bfa807bc7e43c"},{"rt":12029,"response":{"prediction":"5"},"trial_type":"survey-text","trial_index":62,"time_elapsed":451709,"internal_node_id":"0.0-3.0-0.14","prolific_id":"623627a3b5ee09466136f334","session_id":"643c24fa8e663af4bb2f2949","study_id":"64370a36d30bfa807bc7e43c"},{"rt":4709,"response":{"prior knowledge":0,"curiosity":0},"accuracy":[],"trial_type":"survey","trial_index":63,"time_elapsed":456439,"internal_node_id":"0.0-3.0-1.14","prolific_id":"623627a3b5ee09466136f334","session_id":"643c24fa8e663af4bb2f2949","study_id":"64370a36d30bfa807bc7e43c"},{"rt":null,"stimulus":"\n\t\t\t<div class=\"flip_card\">\n\t\t\t\t<div class=\"flip_card_inner\">\n\t\t\t\t\t<div class=\"flip_card_front\">\n\t\t\t\t\t\t<img src=img/19.png>\n\t\t\t\t\t</div>\n\t\t\t\t\t<div class=\"flip_card_back\">\n\t\t\t\t\t\t<h2>How many books are in the Catholic Bible?</h2>\n\t\t\t\t\t\t<br>\n\t\t\t\t\t\t<p>Answer: <strong>73</strong></p>\n\t\t\t\t\t</div>\n\t\t\t\t</div>\n\t\t\t</div>\n\t\t\t","response":null,"trial_type":"html-keyboard-response","trial_index":64,"time_elapsed":461448,"internal_node_id":"0.0-3.0-2.14","prolific_id":"623627a3b5ee09466136f334","session_id":"643c24fa8e663af4bb2f2949","study_id":"64370a36d30bfa807bc7e43c"},{"rt":2633,"stimulus":"\n\t\t\t\t\t<div>\n\t\t\t\t\t<h2>Trial 15 is over</h2>\n\t\t\t\t\t<p>Press <span style=\"color: red\"><strong>any key</strong></span> to continue to the next trial</p>\n\t\t\t\t\t</div>\n\t\t\t\t","response":"g","trial_type":"html-keyboard-response","trial_index":65,"time_elapsed":464083,"internal_node_id":"0.0-3.0-3.14","prolific_id":"623627a3b5ee09466136f334","session_id":"643c24fa8e663af4bb2f2949","study_id":"64370a36d30bfa807bc7e43c"},{"rt":23309,"response":{"prediction":"3"},"trial_type":"survey-text","trial_index":66,"time_elapsed":487397,"internal_node_id":"0.0-3.0-0.15","prolific_id":"623627a3b5ee09466136f334","session_id":"643c24fa8e663af4bb2f2949","study_id":"64370a36d30bfa807bc7e43c"},{"rt":4515,"response":{"prior knowledge":0,"curiosity":2},"accuracy":[],"trial_type":"survey","trial_index":67,"time_elapsed":491936,"internal_node_id":"0.0-3.0-1.15","prolific_id":"623627a3b5ee09466136f334","session_id":"643c24fa8e663af4bb2f2949","study_id":"64370a36d30bfa807bc7e43c"},{"rt":null,"stimulus":"\n\t\t\t<div class=\"flip_card\">\n\t\t\t\t<div class=\"flip_card_inner\">\n\t\t\t\t\t<div class=\"flip_card_front\">\n\t\t\t\t\t\t<img src=img/30.png>\n\t\t\t\t\t</div>\n\t\t\t\t\t<div class=\"flip_card_back\">\n\t\t\t\t\t\t<h2>How many countries have territory in the Arctic Circle?</h2>\n\t\t\t\t\t\t<br>\n\t\t\t\t\t\t<p>Answer: <strong>8</strong></p>\n\t\t\t\t\t</div>\n\t\t\t\t</div>\n\t\t\t</div>\n\t\t\t","response":null,"trial_type":"html-keyboard-response","trial_index":68,"time_elapsed":496944,"internal_node_id":"0.0-3.0-2.15","prolific_id":"623627a3b5ee09466136f334","session_id":"643c24fa8e663af4bb2f2949","study_id":"64370a36d30bfa807bc7e43c"},{"rt":2479,"stimulus":"\n\t\t\t\t\t<div>\n\t\t\t\t\t<h2>Trial 16 is over</h2>\n\t\t\t\t\t<p>Press <span style=\"color: red\"><strong>any key</strong></span> to continue to the next trial</p>\n\t\t\t\t\t</div>\n\t\t\t\t","response":"j","trial_type":"html-keyboard-response","trial_index":69,"time_elapsed":499424,"internal_node_id":"0.0-3.0-3.15","prolific_id":"623627a3b5ee09466136f334","session_id":"643c24fa8e663af4bb2f2949","study_id":"64370a36d30bfa807bc7e43c"},{"rt":14623,"response":{"prediction":"20"},"trial_type":"survey-text","trial_index":70,"time_elapsed":514052,"internal_node_id":"0.0-3.0-0.16","prolific_id":"623627a3b5ee09466136f334","session_id":"643c24fa8e663af4bb2f2949","study_id":"64370a36d30bfa807bc7e43c"},{"rt":4366,"response":{"prior knowledge":1,"curiosity":2},"accuracy":[],"trial_type":"survey","trial_index":71,"time_elapsed":518439,"internal_node_id":"0.0-3.0-1.16","prolific_id":"623627a3b5ee09466136f334","session_id":"643c24fa8e663af4bb2f2949","study_id":"64370a36d30bfa807bc7e43c"},{"rt":null,"stimulus":"\n\t\t\t<div class=\"flip_card\">\n\t\t\t\t<div class=\"flip_card_inner\">\n\t\t\t\t\t<div class=\"flip_card_front\">\n\t\t\t\t\t\t<img src=img/17.png>\n\t\t\t\t\t</div>\n\t\t\t\t\t<div class=\"flip_card_back\">\n\t\t\t\t\t\t<h2>How many countries are in Africa?</h2>\n\t\t\t\t\t\t<br>\n\t\t\t\t\t\t<p>Answer: <strong>54</strong></p>\n\t\t\t\t\t</div>\n\t\t\t\t</div>\n\t\t\t</div>\n\t\t\t","response":null,"trial_type":"html-keyboard-response","trial_index":72,"time_elapsed":523442,"internal_node_id":"0.0-3.0-2.16","prolific_id":"623627a3b5ee09466136f334","session_id":"643c24fa8e663af4bb2f2949","study_id":"64370a36d30bfa807bc7e43c"},{"rt":2849,"stimulus":"\n\t\t\t\t\t<div>\n\t\t\t\t\t<h2>Trial 17 is over</h2>\n\t\t\t\t\t<p>Press <span style=\"color: red\"><strong>any key</strong></span> to continue to the next trial</p>\n\t\t\t\t\t</div>\n\t\t\t\t","response":"j","trial_type":"html-keyboard-response","trial_index":73,"time_elapsed":526292,"internal_node_id":"0.0-3.0-3.16","prolific_id":"623627a3b5ee09466136f334","session_id":"643c24fa8e663af4bb2f2949","study_id":"64370a36d30bfa807bc7e43c"},{"rt":20795,"response":{"prediction":"7"},"trial_type":"survey-text","trial_index":74,"time_elapsed":547092,"internal_node_id":"0.0-3.0-0.17","prolific_id":"623627a3b5ee09466136f334","session_id":"643c24fa8e663af4bb2f2949","study_id":"64370a36d30bfa807bc7e43c"},{"rt":4996,"response":{"prior knowledge":0,"curiosity":0},"accuracy":[],"trial_type":"survey","trial_index":75,"time_elapsed":552111,"internal_node_id":"0.0-3.0-1.17","prolific_id":"623627a3b5ee09466136f334","session_id":"643c24fa8e663af4bb2f2949","study_id":"64370a36d30bfa807bc7e43c"},{"rt":null,"stimulus":"\n\t\t\t<div class=\"flip_card\">\n\t\t\t\t<div class=\"flip_card_inner\">\n\t\t\t\t\t<div class=\"flip_card_front\">\n\t\t\t\t\t\t<img src=img/13.png>\n\t\t\t\t\t</div>\n\t\t\t\t\t<div class=\"flip_card_back\">\n\t\t\t\t\t\t<h2>How many lines are in a sonnet?</h2>\n\t\t\t\t\t\t<br>\n\t\t\t\t\t\t<p>Answer: <strong>14</strong></p>\n\t\t\t\t\t</div>\n\t\t\t\t</div>\n\t\t\t</div>\n\t\t\t","response":null,"trial_type":"html-keyboard-response","trial_index":76,"time_elapsed":557118,"internal_node_id":"0.0-3.0-2.17","prolific_id":"623627a3b5ee09466136f334","session_id":"643c24fa8e663af4bb2f2949","study_id":"64370a36d30bfa807bc7e43c"},{"rt":1293,"stimulus":"\n\t\t\t\t\t<div>\n\t\t\t\t\t<h2>Trial 18 is over</h2>\n\t\t\t\t\t<p>Press <span style=\"color: red\"><strong>any key</strong></span> to continue to the next trial</p>\n\t\t\t\t\t</div>\n\t\t\t\t","response":"j","trial_type":"html-keyboard-response","trial_index":77,"time_elapsed":558412,"internal_node_id":"0.0-3.0-3.17","prolific_id":"623627a3b5ee09466136f334","session_id":"643c24fa8e663af4bb2f2949","study_id":"64370a36d30bfa807bc7e43c"},{"rt":8034,"response":{"prediction":"46"},"trial_type":"survey-text","trial_index":78,"time_elapsed":566452,"internal_node_id":"0.0-3.0-0.18","prolific_id":"623627a3b5ee09466136f334","session_id":"643c24fa8e663af4bb2f2949","study_id":"64370a36d30bfa807bc7e43c"},{"rt":4077,"response":{"prior knowledge":0,"curiosity":0},"accuracy":[],"trial_type":"survey","trial_index":79,"time_elapsed":570551,"internal_node_id":"0.0-3.0-1.18","prolific_id":"623627a3b5ee09466136f334","session_id":"643c24fa8e663af4bb2f2949","study_id":"64370a36d30bfa807bc7e43c"},{"rt":null,"stimulus":"\n\t\t\t<div class=\"flip_card\">\n\t\t\t\t<div class=\"flip_card_inner\">\n\t\t\t\t\t<div class=\"flip_card_front\">\n\t\t\t\t\t\t<img src=img/25.png>\n\t\t\t\t\t</div>\n\t\t\t\t\t<div class=\"flip_card_back\">\n\t\t\t\t\t\t<h2>How many single hand gestures, or mudras, are used in Indian classical dance?</h2>\n\t\t\t\t\t\t<br>\n\t\t\t\t\t\t<p>Answer: <strong>28</strong></p>\n\t\t\t\t\t</div>\n\t\t\t\t</div>\n\t\t\t</div>\n\t\t\t","response":null,"trial_type":"html-keyboard-response","trial_index":80,"time_elapsed":575558,"internal_node_id":"0.0-3.0-2.18","prolific_id":"623627a3b5ee09466136f334","session_id":"643c24fa8e663af4bb2f2949","study_id":"64370a36d30bfa807bc7e43c"},{"rt":1333,"stimulus":"\n\t\t\t\t\t<div>\n\t\t\t\t\t<h2>Trial 19 is over</h2>\n\t\t\t\t\t<p>Press <span style=\"color: red\"><strong>any key</strong></span> to continue to the next trial</p>\n\t\t\t\t\t</div>\n\t\t\t\t","response":"k","trial_type":"html-keyboard-response","trial_index":81,"time_elapsed":576892,"internal_node_id":"0.0-3.0-3.18","prolific_id":"623627a3b5ee09466136f334","session_id":"643c24fa8e663af4bb2f2949","study_id":"64370a36d30bfa807bc7e43c"},{"rt":10188,"response":{"prediction":"1974"},"trial_type":"survey-text","trial_index":82,"time_elapsed":587084,"internal_node_id":"0.0-3.0-0.19","prolific_id":"623627a3b5ee09466136f334","session_id":"643c24fa8e663af4bb2f2949","study_id":"64370a36d30bfa807bc7e43c"},{"rt":3181,"response":{"prior knowledge":0,"curiosity":0},"accuracy":[],"trial_type":"survey","trial_index":83,"time_elapsed":590287,"internal_node_id":"0.0-3.0-1.19","prolific_id":"623627a3b5ee09466136f334","session_id":"643c24fa8e663af4bb2f2949","study_id":"64370a36d30bfa807bc7e43c"},{"rt":null,"stimulus":"\n\t\t\t<div class=\"flip_card\">\n\t\t\t\t<div class=\"flip_card_inner\">\n\t\t\t\t\t<div class=\"flip_card_front\">\n\t\t\t\t\t\t<img src=img/24.png>\n\t\t\t\t\t</div>\n\t\t\t\t\t<div class=\"flip_card_back\">\n\t\t\t\t\t\t<h2>In what year was the Mexican artist Frida Kahlo born?</h2>\n\t\t\t\t\t\t<br>\n\t\t\t\t\t\t<p>Answer: <strong>1907</strong></p>\n\t\t\t\t\t</div>\n\t\t\t\t</div>\n\t\t\t</div>\n\t\t\t","response":null,"trial_type":"html-keyboard-response","trial_index":84,"time_elapsed":595303,"internal_node_id":"0.0-3.0-2.19","prolific_id":"623627a3b5ee09466136f334","session_id":"643c24fa8e663af4bb2f2949","study_id":"64370a36d30bfa807bc7e43c"},{"rt":1654,"stimulus":"\n\t\t\t\t\t<div>\n\t\t\t\t\t<h2>Trial 20 is over</h2>\n\t\t\t\t\t<p>Press <span style=\"color: red\"><strong>any key</strong></span> to continue to the next trial</p>\n\t\t\t\t\t</div>\n\t\t\t\t","response":"k","trial_type":"html-keyboard-response","trial_index":85,"time_elapsed":596958,"internal_node_id":"0.0-3.0-3.19","prolific_id":"623627a3b5ee09466136f334","session_id":"643c24fa8e663af4bb2f2949","study_id":"64370a36d30bfa807bc7e43c"},{"rt":31857,"response":{"prediction":"34"},"trial_type":"survey-text","trial_index":86,"time_elapsed":628820,"internal_node_id":"0.0-3.0-0.20","prolific_id":"623627a3b5ee09466136f334","session_id":"643c24fa8e663af4bb2f2949","study_id":"64370a36d30bfa807bc7e43c"},{"rt":4237,"response":{"prior knowledge":0,"curiosity":0},"accuracy":[],"trial_type":"survey","trial_index":87,"time_elapsed":633078,"internal_node_id":"0.0-3.0-1.20","prolific_id":"623627a3b5ee09466136f334","session_id":"643c24fa8e663af4bb2f2949","study_id":"64370a36d30bfa807bc7e43c"},{"rt":null,"stimulus":"\n\t\t\t<div class=\"flip_card\">\n\t\t\t\t<div class=\"flip_card_inner\">\n\t\t\t\t\t<div class=\"flip_card_front\">\n\t\t\t\t\t\t<img src=img/3.png>\n\t\t\t\t\t</div>\n\t\t\t\t\t<div class=\"flip_card_back\">\n\t\t\t\t\t\t<h2>How many bones is a human baby born with?</h2>\n\t\t\t\t\t\t<br>\n\t\t\t\t\t\t<p>Answer: <strong>300</strong></p>\n\t\t\t\t\t</div>\n\t\t\t\t</div>\n\t\t\t</div>\n\t\t\t","response":null,"trial_type":"html-keyboard-response","trial_index":88,"time_elapsed":638083,"internal_node_id":"0.0-3.0-2.20","prolific_id":"623627a3b5ee09466136f334","session_id":"643c24fa8e663af4bb2f2949","study_id":"64370a36d30bfa807bc7e43c"},{"rt":19622,"stimulus":"\n\t\t\t\t\t<div>\n\t\t\t\t\t<h2>Trial 21 is over</h2>\n\t\t\t\t\t<p>Press <span style=\"color: red\"><strong>any key</strong></span> to continue to the next trial</p>\n\t\t\t\t\t</div>\n\t\t\t\t","response":"j","trial_type":"html-keyboard-response","trial_index":89,"time_elapsed":657707,"internal_node_id":"0.0-3.0-3.20","prolific_id":"623627a3b5ee09466136f334","session_id":"643c24fa8e663af4bb2f2949","study_id":"64370a36d30bfa807bc7e43c"},{"rt":13042,"response":{"prediction":"306"},"trial_type":"survey-text","trial_index":90,"time_elapsed":670756,"internal_node_id":"0.0-3.0-0.21","prolific_id":"623627a3b5ee09466136f334","session_id":"643c24fa8e663af4bb2f2949","study_id":"64370a36d30bfa807bc7e43c"},{"rt":3374,"response":{"prior knowledge":0,"curiosity":0},"accuracy":[],"trial_type":"survey","trial_index":91,"time_elapsed":674151,"internal_node_id":"0.0-3.0-1.21","prolific_id":"623627a3b5ee09466136f334","session_id":"643c24fa8e663af4bb2f2949","study_id":"64370a36d30bfa807bc7e43c"},{"rt":null,"stimulus":"\n\t\t\t<div class=\"flip_card\">\n\t\t\t\t<div class=\"flip_card_inner\">\n\t\t\t\t\t<div class=\"flip_card_front\">\n\t\t\t\t\t\t<img src=img/8.png>\n\t\t\t\t\t</div>\n\t\t\t\t\t<div class=\"flip_card_back\">\n\t\t\t\t\t\t<h2>How many floors are in the Burj Khalifa, the tallest building in the world?</h2>\n\t\t\t\t\t\t<br>\n\t\t\t\t\t\t<p>Answer: <strong>163</strong></p>\n\t\t\t\t\t</div>\n\t\t\t\t</div>\n\t\t\t</div>\n\t\t\t","response":null,"trial_type":"html-keyboard-response","trial_index":92,"time_elapsed":679168,"internal_node_id":"0.0-3.0-2.21","prolific_id":"623627a3b5ee09466136f334","session_id":"643c24fa8e663af4bb2f2949","study_id":"64370a36d30bfa807bc7e43c"},{"rt":1726,"stimulus":"\n\t\t\t\t\t<div>\n\t\t\t\t\t<h2>Trial 22 is over</h2>\n\t\t\t\t\t<p>Press <span style=\"color: red\"><strong>any key</strong></span> to continue to the next trial</p>\n\t\t\t\t\t</div>\n\t\t\t\t","response":"k","trial_type":"html-keyboard-response","trial_index":93,"time_elapsed":680895,"internal_node_id":"0.0-3.0-3.21","prolific_id":"623627a3b5ee09466136f334","session_id":"643c24fa8e663af4bb2f2949","study_id":"64370a36d30bfa807bc7e43c"},{"rt":6935,"response":{"prediction":"17"},"trial_type":"survey-text","trial_index":94,"time_elapsed":687836,"internal_node_id":"0.0-3.0-0.22","prolific_id":"623627a3b5ee09466136f334","session_id":"643c24fa8e663af4bb2f2949","study_id":"64370a36d30bfa807bc7e43c"},{"rt":2718,"response":{"prior knowledge":0,"curiosity":0},"accuracy":[],"trial_type":"survey","trial_index":95,"time_elapsed":690575,"internal_node_id":"0.0-3.0-1.22","prolific_id":"623627a3b5ee09466136f334","session_id":"643c24fa8e663af4bb2f2949","study_id":"64370a36d30bfa807bc7e43c"},{"rt":null,"stimulus":"\n\t\t\t<div class=\"flip_card\">\n\t\t\t\t<div class=\"flip_card_inner\">\n\t\t\t\t\t<div class=\"flip_card_front\">\n\t\t\t\t\t\t<img src=img/26.png>\n\t\t\t\t\t</div>\n\t\t\t\t\t<div class=\"flip_card_back\">\n\t\t\t\t\t\t<h2>How many books has Stephen King published?</h2>\n\t\t\t\t\t\t<br>\n\t\t\t\t\t\t<p>Answer: <strong>65</strong></p>\n\t\t\t\t\t</div>\n\t\t\t\t</div>\n\t\t\t</div>\n\t\t\t","response":null,"trial_type":"html-keyboard-response","trial_index":96,"time_elapsed":695587,"internal_node_id":"0.0-3.0-2.22","prolific_id":"623627a3b5ee09466136f334","session_id":"643c24fa8e663af4bb2f2949","study_id":"64370a36d30bfa807bc7e43c"},{"rt":1749,"stimulus":"\n\t\t\t\t\t<div>\n\t\t\t\t\t<h2>Trial 23 is over</h2>\n\t\t\t\t\t<p>Press <span style=\"color: red\"><strong>any key</strong></span> to continue to the next trial</p>\n\t\t\t\t\t</div>\n\t\t\t\t","response":"k","trial_type":"html-keyboard-response","trial_index":97,"time_elapsed":697337,"internal_node_id":"0.0-3.0-3.22","prolific_id":"623627a3b5ee09466136f334","session_id":"643c24fa8e663af4bb2f2949","study_id":"64370a36d30bfa807bc7e43c"},{"rt":9463,"response":{"prediction":"26"},"trial_type":"survey-text","trial_index":98,"time_elapsed":706804,"internal_node_id":"0.0-3.0-0.23","prolific_id":"623627a3b5ee09466136f334","session_id":"643c24fa8e663af4bb2f2949","study_id":"64370a36d30bfa807bc7e43c"},{"rt":3847,"response":{"prior knowledge":0,"curiosity":0},"accuracy":[],"trial_type":"survey","trial_index":99,"time_elapsed":710672,"internal_node_id":"0.0-3.0-1.23","prolific_id":"623627a3b5ee09466136f334","session_id":"643c24fa8e663af4bb2f2949","study_id":"64370a36d30bfa807bc7e43c"},{"rt":null,"stimulus":"\n\t\t\t<div class=\"flip_card\">\n\t\t\t\t<div class=\"flip_card_inner\">\n\t\t\t\t\t<div class=\"flip_card_front\">\n\t\t\t\t\t\t<img src=img/5.png>\n\t\t\t\t\t</div>\n\t\t\t\t\t<div class=\"flip_card_back\">\n\t\t\t\t\t\t<h2>How long is the Great Wall of China (in miles)?</h2>\n\t\t\t\t\t\t<br>\n\t\t\t\t\t\t<p>Answer: <strong>13171</strong></p>\n\t\t\t\t\t</div>\n\t\t\t\t</div>\n\t\t\t</div>\n\t\t\t","response":null,"trial_type":"html-keyboard-response","trial_index":100,"time_elapsed":715684,"internal_node_id":"0.0-3.0-2.23","prolific_id":"623627a3b5ee09466136f334","session_id":"643c24fa8e663af4bb2f2949","study_id":"64370a36d30bfa807bc7e43c"},{"rt":2863,"stimulus":"\n\t\t\t\t\t<div>\n\t\t\t\t\t<h2>Trial 24 is over</h2>\n\t\t\t\t\t<p>Press <span style=\"color: red\"><strong>any key</strong></span> to continue to the next trial</p>\n\t\t\t\t\t</div>\n\t\t\t\t","response":"g","trial_type":"html-keyboard-response","trial_index":101,"time_elapsed":718548,"internal_node_id":"0.0-3.0-3.23","prolific_id":"623627a3b5ee09466136f334","session_id":"643c24fa8e663af4bb2f2949","study_id":"64370a36d30bfa807bc7e43c"},{"rt":24979,"response":{"prediction":"1926"},"trial_type":"survey-text","trial_index":102,"time_elapsed":743532,"internal_node_id":"0.0-3.0-0.24","prolific_id":"623627a3b5ee09466136f334","session_id":"643c24fa8e663af4bb2f2949","study_id":"64370a36d30bfa807bc7e43c"},{"rt":3422,"response":{"prior knowledge":0,"curiosity":2},"accuracy":[],"trial_type":"survey","trial_index":103,"time_elapsed":746974,"internal_node_id":"0.0-3.0-1.24","prolific_id":"623627a3b5ee09466136f334","session_id":"643c24fa8e663af4bb2f2949","study_id":"64370a36d30bfa807bc7e43c"},{"rt":null,"stimulus":"\n\t\t\t<div class=\"flip_card\">\n\t\t\t\t<div class=\"flip_card_inner\">\n\t\t\t\t\t<div class=\"flip_card_front\">\n\t\t\t\t\t\t<img src=img/21.png>\n\t\t\t\t\t</div>\n\t\t\t\t\t<div class=\"flip_card_back\">\n\t\t\t\t\t\t<h2>What year did the titanic sink?</h2>\n\t\t\t\t\t\t<br>\n\t\t\t\t\t\t<p>Answer: <strong>1912</strong></p>\n\t\t\t\t\t</div>\n\t\t\t\t</div>\n\t\t\t</div>\n\t\t\t","response":null,"trial_type":"html-keyboard-response","trial_index":104,"time_elapsed":751991,"internal_node_id":"0.0-3.0-2.24","prolific_id":"623627a3b5ee09466136f334","session_id":"643c24fa8e663af4bb2f2949","study_id":"64370a36d30bfa807bc7e43c"},{"rt":1108,"stimulus":"\n\t\t\t\t\t<div>\n\t\t\t\t\t<h2>Trial 25 is over</h2>\n\t\t\t\t\t<p>Press <span style=\"color: red\"><strong>any key</strong></span> to continue to the next trial</p>\n\t\t\t\t\t</div>\n\t\t\t\t","response":"h","trial_type":"html-keyboard-response","trial_index":105,"time_elapsed":753101,"internal_node_id":"0.0-3.0-3.24","prolific_id":"623627a3b5ee09466136f334","session_id":"643c24fa8e663af4bb2f2949","study_id":"64370a36d30bfa807bc7e43c"},{"rt":8874,"response":{"prediction":"42"},"trial_type":"survey-text","trial_index":106,"time_elapsed":761980,"internal_node_id":"0.0-3.0-0.25","prolific_id":"623627a3b5ee09466136f334","session_id":"643c24fa8e663af4bb2f2949","study_id":"64370a36d30bfa807bc7e43c"},{"rt":3231,"response":{"prior knowledge":0,"curiosity":0},"accuracy":[],"trial_type":"survey","trial_index":107,"time_elapsed":765231,"internal_node_id":"0.0-3.0-1.25","prolific_id":"623627a3b5ee09466136f334","session_id":"643c24fa8e663af4bb2f2949","study_id":"64370a36d30bfa807bc7e43c"},{"rt":null,"stimulus":"\n\t\t\t<div class=\"flip_card\">\n\t\t\t\t<div class=\"flip_card_inner\">\n\t\t\t\t\t<div class=\"flip_card_front\">\n\t\t\t\t\t\t<img src=img/1.png>\n\t\t\t\t\t</div>\n\t\t\t\t\t<div class=\"flip_card_back\">\n\t\t\t\t\t\t<h2>How many double stitches does a baseball have?</h2>\n\t\t\t\t\t\t<br>\n\t\t\t\t\t\t<p>Answer: <strong>108</strong></p>\n\t\t\t\t\t</div>\n\t\t\t\t</div>\n\t\t\t</div>\n\t\t\t","response":null,"trial_type":"html-keyboard-response","trial_index":108,"time_elapsed":770241,"internal_node_id":"0.0-3.0-2.25","prolific_id":"623627a3b5ee09466136f334","session_id":"643c24fa8e663af4bb2f2949","study_id":"64370a36d30bfa807bc7e43c"},{"rt":1222,"stimulus":"\n\t\t\t\t\t<div>\n\t\t\t\t\t<h2>Trial 26 is over</h2>\n\t\t\t\t\t<p>Press <span style=\"color: red\"><strong>any key</strong></span> to continue to the next trial</p>\n\t\t\t\t\t</div>\n\t\t\t\t","response":"g","trial_type":"html-keyboard-response","trial_index":109,"time_elapsed":771465,"internal_node_id":"0.0-3.0-3.25","prolific_id":"623627a3b5ee09466136f334","session_id":"643c24fa8e663af4bb2f2949","study_id":"64370a36d30bfa807bc7e43c"},{"rt":6025,"response":{"prediction":"3"},"trial_type":"survey-text","trial_index":110,"time_elapsed":777492,"internal_node_id":"0.0-3.0-0.26","prolific_id":"623627a3b5ee09466136f334","session_id":"643c24fa8e663af4bb2f2949","study_id":"64370a36d30bfa807bc7e43c"},{"rt":3068,"response":{"prior knowledge":0,"curiosity":0},"accuracy":[],"trial_type":"survey","trial_index":111,"time_elapsed":780583,"internal_node_id":"0.0-3.0-1.26","prolific_id":"623627a3b5ee09466136f334","session_id":"643c24fa8e663af4bb2f2949","study_id":"64370a36d30bfa807bc7e43c"},{"rt":null,"stimulus":"\n\t\t\t<div class=\"flip_card\">\n\t\t\t\t<div class=\"flip_card_inner\">\n\t\t\t\t\t<div class=\"flip_card_front\">\n\t\t\t\t\t\t<img src=img/2.png>\n\t\t\t\t\t</div>\n\t\t\t\t\t<div class=\"flip_card_back\">\n\t\t\t\t\t\t<h2>How many times a day do Muslims pray?</h2>\n\t\t\t\t\t\t<br>\n\t\t\t\t\t\t<p>Answer: <strong>5</strong></p>\n\t\t\t\t\t</div>\n\t\t\t\t</div>\n\t\t\t</div>\n\t\t\t","response":null,"trial_type":"html-keyboard-response","trial_index":112,"time_elapsed":785593,"internal_node_id":"0.0-3.0-2.26","prolific_id":"623627a3b5ee09466136f334","session_id":"643c24fa8e663af4bb2f2949","study_id":"64370a36d30bfa807bc7e43c"},{"rt":1155,"stimulus":"\n\t\t\t\t\t<div>\n\t\t\t\t\t<h2>Trial 27 is over</h2>\n\t\t\t\t\t<p>Press <span style=\"color: red\"><strong>any key</strong></span> to continue to the next trial</p>\n\t\t\t\t\t</div>\n\t\t\t\t","response":"g","trial_type":"html-keyboard-response","trial_index":113,"time_elapsed":786749,"internal_node_id":"0.0-3.0-3.26","prolific_id":"623627a3b5ee09466136f334","session_id":"643c24fa8e663af4bb2f2949","study_id":"64370a36d30bfa807bc7e43c"},{"rt":13768,"response":{"prediction":"24"},"trial_type":"survey-text","trial_index":114,"time_elapsed":800523,"internal_node_id":"0.0-3.0-0.27","prolific_id":"623627a3b5ee09466136f334","session_id":"643c24fa8e663af4bb2f2949","study_id":"64370a36d30bfa807bc7e43c"},{"rt":4596,"response":{"prior knowledge":0,"curiosity":2},"accuracy":[],"trial_type":"survey","trial_index":115,"time_elapsed":805142,"internal_node_id":"0.0-3.0-1.27","prolific_id":"623627a3b5ee09466136f334","session_id":"643c24fa8e663af4bb2f2949","study_id":"64370a36d30bfa807bc7e43c"},{"rt":null,"stimulus":"\n\t\t\t<div class=\"flip_card\">\n\t\t\t\t<div class=\"flip_card_inner\">\n\t\t\t\t\t<div class=\"flip_card_front\">\n\t\t\t\t\t\t<img src=img/16.png>\n\t\t\t\t\t</div>\n\t\t\t\t\t<div class=\"flip_card_back\">\n\t\t\t\t\t\t<h2>How many countries in Africa have French as the official language?</h2>\n\t\t\t\t\t\t<br>\n\t\t\t\t\t\t<p>Answer: <strong>21</strong></p>\n\t\t\t\t\t</div>\n\t\t\t\t</div>\n\t\t\t</div>\n\t\t\t","response":null,"trial_type":"html-keyboard-response","trial_index":116,"time_elapsed":810148,"internal_node_id":"0.0-3.0-2.27","prolific_id":"623627a3b5ee09466136f334","session_id":"643c24fa8e663af4bb2f2949","study_id":"64370a36d30bfa807bc7e43c"},{"rt":1521,"stimulus":"\n\t\t\t\t\t<div>\n\t\t\t\t\t<h2>Trial 28 is over</h2>\n\t\t\t\t\t<p>Press <span style=\"color: red\"><strong>any key</strong></span> to continue to the next trial</p>\n\t\t\t\t\t</div>\n\t\t\t\t","response":"g","trial_type":"html-keyboard-response","trial_index":117,"time_elapsed":811671,"internal_node_id":"0.0-3.0-3.27","prolific_id":"623627a3b5ee09466136f334","session_id":"643c24fa8e663af4bb2f2949","study_id":"64370a36d30bfa807bc7e43c"},{"rt":4239,"response":{"prediction":"7"},"trial_type":"survey-text","trial_index":118,"time_elapsed":815915,"internal_node_id":"0.0-3.0-0.28","prolific_id":"623627a3b5ee09466136f334","session_id":"643c24fa8e663af4bb2f2949","study_id":"64370a36d30bfa807bc7e43c"},{"rt":3574,"response":{"prior knowledge":0,"curiosity":1},"accuracy":[],"trial_type":"survey","trial_index":119,"time_elapsed":819510,"internal_node_id":"0.0-3.0-1.28","prolific_id":"623627a3b5ee09466136f334","session_id":"643c24fa8e663af4bb2f2949","study_id":"64370a36d30bfa807bc7e43c"},{"rt":null,"stimulus":"\n\t\t\t<div class=\"flip_card\">\n\t\t\t\t<div class=\"flip_card_inner\">\n\t\t\t\t\t<div class=\"flip_card_front\">\n\t\t\t\t\t\t<img src=img/7.png>\n\t\t\t\t\t</div>\n\t\t\t\t\t<div class=\"flip_card_back\">\n\t\t\t\t\t\t<h2>How many tones are in the Vietnamese language?</h2>\n\t\t\t\t\t\t<br>\n\t\t\t\t\t\t<p>Answer: <strong>6</strong></p>\n\t\t\t\t\t</div>\n\t\t\t\t</div>\n\t\t\t</div>\n\t\t\t","response":null,"trial_type":"html-keyboard-response","trial_index":120,"time_elapsed":824521,"internal_node_id":"0.0-3.0-2.28","prolific_id":"623627a3b5ee09466136f334","session_id":"643c24fa8e663af4bb2f2949","study_id":"64370a36d30bfa807bc7e43c"},{"rt":1147,"stimulus":"\n\t\t\t\t\t<div>\n\t\t\t\t\t<h2>Trial 29 is over</h2>\n\t\t\t\t\t<p>Press <span style=\"color: red\"><strong>any key</strong></span> to continue to the next trial</p>\n\t\t\t\t\t</div>\n\t\t\t\t","response":"h","trial_type":"html-keyboard-response","trial_index":121,"time_elapsed":825669,"internal_node_id":"0.0-3.0-3.28","prolific_id":"623627a3b5ee09466136f334","session_id":"643c24fa8e663af4bb2f2949","study_id":"64370a36d30bfa807bc7e43c"},{"rt":37999,"response":{"prediction":"856000"},"trial_type":"survey-text","trial_index":122,"time_elapsed":863676,"internal_node_id":"0.0-3.0-0.29","prolific_id":"623627a3b5ee09466136f334","session_id":"643c24fa8e663af4bb2f2949","study_id":"64370a36d30bfa807bc7e43c"},{"rt":3437,"response":{"prior knowledge":0,"curiosity":0},"accuracy":[],"trial_type":"survey","trial_index":123,"time_elapsed":867135,"internal_node_id":"0.0-3.0-1.29","prolific_id":"623627a3b5ee09466136f334","session_id":"643c24fa8e663af4bb2f2949","study_id":"64370a36d30bfa807bc7e43c"},{"rt":null,"stimulus":"\n\t\t\t<div class=\"flip_card\">\n\t\t\t\t<div class=\"flip_card_inner\">\n\t\t\t\t\t<div class=\"flip_card_front\">\n\t\t\t\t\t\t<img src=img/10.png>\n\t\t\t\t\t</div>\n\t\t\t\t\t<div class=\"flip_card_back\">\n\t\t\t\t\t\t<h2>What is the diameter of Earth in miles?</h2>\n\t\t\t\t\t\t<br>\n\t\t\t\t\t\t<p>Answer: <strong>7917.5</strong></p>\n\t\t\t\t\t</div>\n\t\t\t\t</div>\n\t\t\t</div>\n\t\t\t","response":null,"trial_type":"html-keyboard-response","trial_index":124,"time_elapsed":872149,"internal_node_id":"0.0-3.0-2.29","prolific_id":"623627a3b5ee09466136f334","session_id":"643c24fa8e663af4bb2f2949","study_id":"64370a36d30bfa807bc7e43c"},{"rt":3970,"stimulus":"\n\t\t\t\t\t<div>\n\t\t\t\t\t<h2>Trial 30 is over</h2>\n\t\t\t\t\t<p>Press <span style=\"color: red\"><strong>any key</strong></span> to continue to the next trial</p>\n\t\t\t\t\t</div>\n\t\t\t\t","response":"h","trial_type":"html-keyboard-response","trial_index":125,"time_elapsed":876120,"internal_node_id":"0.0-3.0-3.29","prolific_id":"623627a3b5ee09466136f334","session_id":"643c24fa8e663af4bb2f2949","study_id":"64370a36d30bfa807bc7e43c"},{"rt":null,"stimulus":"\n\t\t\t<h2>Good job! You've finished the 30 trials:p</h2>\n\t\t\t<p>In the next session, you will see two cards on the screen in each trial.</p>\n\t\t\t<p>On one card is a pattern that you have seen before in the experiment,\n\t\t\t\tand on the other card is one you have not seen.</p><br>\n\t\t\t<p>Your task is to choose the one you think you <em>have</em> seen before for every trial.</p>\n\t\t\t<p>Press '<span style=\"color: red;\"><strong>F</strong></span>' to choose the card on the left,\n\t\t\t\tand '<span style=\"color: red;\"><strong>J</strong></span>' to choose the card on the right.</p>\n\t\t\t<p>Have fun!</p>\n\t\t\t<br>\n\t\t\t<p>The trials will begin in 30 seconds</p>\n\t\t\t","response":null,"trial_type":"html-keyboard-response","trial_index":126,"time_elapsed":906126,"internal_node_id":"0.0-4.0","prolific_id":"623627a3b5ee09466136f334","session_id":"643c24fa8e663af4bb2f2949","study_id":"64370a36d30bfa807bc7e43c"},{"rt":7169,"stimulus":"\n\t\t\t\t\t\t<div class=\"two_card_container\">\n\t\t\t\t\t\t<div class=\"card_container\">\n\t\t\t\t\t\t<img src=img/20.png>\n\t\t\t\t\t\t</div>\n\n\t\t\t\t\t\t<div class=\"card_container\">\n\t\t\t\t\t\t<img src=img/37.png>\n\t\t\t\t\t\t</div>","response":"f","task":"response","correct_response":"f","trial_type":"html-keyboard-response","trial_index":127,"time_elapsed":913300,"internal_node_id":"0.0-5.0-0.0","prolific_id":"623627a3b5ee09466136f334","session_id":"643c24fa8e663af4bb2f2949","study_id":"64370a36d30bfa807bc7e43c","correct":true},{"rt":null,"stimulus":"\n\t\t\t\t\t<p>Correct!</p>\n\t\t\t\t\t","response":null,"trial_type":"html-keyboard-response","trial_index":128,"time_elapsed":914312,"internal_node_id":"0.0-5.0-1.0","prolific_id":"623627a3b5ee09466136f334","session_id":"643c24fa8e663af4bb2f2949","study_id":"64370a36d30bfa807bc7e43c"},{"rt":4886,"stimulus":"\n\t\t\t\t\t\t<div class=\"two_card_container\">\n\t\t\t\t\t\t<div class=\"card_container\">\n\t\t\t\t\t\t<img src=img/15.png>\n\t\t\t\t\t\t</div>\n\n\t\t\t\t\t\t<div class=\"card_container\">\n\t\t\t\t\t\t<img src=img/40.png>\n\t\t\t\t\t\t</div>","response":"j","task":"response","correct_response":"f","trial_type":"html-keyboard-response","trial_index":129,"time_elapsed":919199,"internal_node_id":"0.0-5.0-0.1","prolific_id":"623627a3b5ee09466136f334","session_id":"643c24fa8e663af4bb2f2949","study_id":"64370a36d30bfa807bc7e43c","correct":false},{"rt":null,"stimulus":"\n\t\t\t\t\t<p>Wrong answer</p>\n\t\t\t\t\t","response":null,"trial_type":"html-keyboard-response","trial_index":130,"time_elapsed":920206,"internal_node_id":"0.0-5.0-1.1","prolific_id":"623627a3b5ee09466136f334","session_id":"643c24fa8e663af4bb2f2949","study_id":"64370a36d30bfa807bc7e43c"},{"rt":1864,"stimulus":"\n\t\t\t\t\t\t<div class=\"two_card_container\">\n\t\t\t\t\t\t<div class=\"card_container\">\n\t\t\t\t\t\t<img src=img/5.png>\n\t\t\t\t\t\t</div>\n\n\t\t\t\t\t\t<div class=\"card_container\">\n\t\t\t\t\t\t<img src=img/34.png>\n\t\t\t\t\t\t</div>","response":"f","task":"response","correct_response":"f","trial_type":"html-keyboard-response","trial_index":131,"time_elapsed":922072,"internal_node_id":"0.0-5.0-0.2","prolific_id":"623627a3b5ee09466136f334","session_id":"643c24fa8e663af4bb2f2949","study_id":"64370a36d30bfa807bc7e43c","correct":true},{"rt":null,"stimulus":"\n\t\t\t\t\t<p>Correct!</p>\n\t\t\t\t\t","response":null,"trial_type":"html-keyboard-response","trial_index":132,"time_elapsed":923074,"internal_node_id":"0.0-5.0-1.2","prolific_id":"623627a3b5ee09466136f334","session_id":"643c24fa8e663af4bb2f2949","study_id":"64370a36d30bfa807bc7e43c"},{"rt":1789,"stimulus":"\n\t\t\t\t\t\t<div class=\"two_card_container\">\n\t\t\t\t\t\t<div class=\"card_container\">\n\t\t\t\t\t\t<img src=img/36.png>\n\t\t\t\t\t\t</div>\n\n\t\t\t\t\t\t<div class=\"card_container\">\n\t\t\t\t\t\t<img src=img/3.png>\n\t\t\t\t\t\t</div>","response":"f","task":"response","correct_response":"j","trial_type":"html-keyboard-response","trial_index":133,"time_elapsed":924865,"internal_node_id":"0.0-5.0-0.3","prolific_id":"623627a3b5ee09466136f334","session_id":"643c24fa8e663af4bb2f2949","study_id":"64370a36d30bfa807bc7e43c","correct":false},{"rt":null,"stimulus":"\n\t\t\t\t\t<p>Wrong answer</p>\n\t\t\t\t\t","response":null,"trial_type":"html-keyboard-response","trial_index":134,"time_elapsed":925871,"internal_node_id":"0.0-5.0-1.3","prolific_id":"623627a3b5ee09466136f334","session_id":"643c24fa8e663af4bb2f2949","study_id":"64370a36d30bfa807bc7e43c"},{"rt":1601,"stimulus":"\n\t\t\t\t\t\t<div class=\"two_card_container\">\n\t\t\t\t\t\t<div class=\"card_container\">\n\t\t\t\t\t\t<img src=img/11.png>\n\t\t\t\t\t\t</div>\n\n\t\t\t\t\t\t<div class=\"card_container\">\n\t\t\t\t\t\t<img src=img/39.png>\n\t\t\t\t\t\t</div>","response":"f","task":"response","correct_response":"f","trial_type":"html-keyboard-response","trial_index":135,"time_elapsed":927474,"internal_node_id":"0.0-5.0-0.4","prolific_id":"623627a3b5ee09466136f334","session_id":"643c24fa8e663af4bb2f2949","study_id":"64370a36d30bfa807bc7e43c","correct":true},{"rt":null,"stimulus":"\n\t\t\t\t\t<p>Correct!</p>\n\t\t\t\t\t","response":null,"trial_type":"html-keyboard-response","trial_index":136,"time_elapsed":928476,"internal_node_id":"0.0-5.0-1.4","prolific_id":"623627a3b5ee09466136f334","session_id":"643c24fa8e663af4bb2f2949","study_id":"64370a36d30bfa807bc7e43c"},{"rt":2470,"stimulus":"\n\t\t\t\t\t\t<div class=\"two_card_container\">\n\t\t\t\t\t\t<div class=\"card_container\">\n\t\t\t\t\t\t<img src=img/35.png>\n\t\t\t\t\t\t</div>\n\n\t\t\t\t\t\t<div class=\"card_container\">\n\t\t\t\t\t\t<img src=img/21.png>\n\t\t\t\t\t\t</div>","response":"f","task":"response","correct_response":"j","trial_type":"html-keyboard-response","trial_index":137,"time_elapsed":930948,"internal_node_id":"0.0-5.0-0.5","prolific_id":"623627a3b5ee09466136f334","session_id":"643c24fa8e663af4bb2f2949","study_id":"64370a36d30bfa807bc7e43c","correct":false},{"rt":null,"stimulus":"\n\t\t\t\t\t<p>Wrong answer</p>\n\t\t\t\t\t","response":null,"trial_type":"html-keyboard-response","trial_index":138,"time_elapsed":931958,"internal_node_id":"0.0-5.0-1.5","prolific_id":"623627a3b5ee09466136f334","session_id":"643c24fa8e663af4bb2f2949","study_id":"64370a36d30bfa807bc7e43c"},{"rt":1989,"stimulus":"\n\t\t\t\t\t\t<div class=\"two_card_container\">\n\t\t\t\t\t\t<div class=\"card_container\">\n\t\t\t\t\t\t<img src=img/33.png>\n\t\t\t\t\t\t</div>\n\n\t\t\t\t\t\t<div class=\"card_container\">\n\t\t\t\t\t\t<img src=img/23.png>\n\t\t\t\t\t\t</div>","response":"j","task":"response","correct_response":"j","trial_type":"html-keyboard-response","trial_index":139,"time_elapsed":933949,"internal_node_id":"0.0-5.0-0.6","prolific_id":"623627a3b5ee09466136f334","session_id":"643c24fa8e663af4bb2f2949","study_id":"64370a36d30bfa807bc7e43c","correct":true},{"rt":null,"stimulus":"\n\t\t\t\t\t<p>Correct!</p>\n\t\t\t\t\t","response":null,"trial_type":"html-keyboard-response","trial_index":140,"time_elapsed":934955,"internal_node_id":"0.0-5.0-1.6","prolific_id":"623627a3b5ee09466136f334","session_id":"643c24fa8e663af4bb2f2949","study_id":"64370a36d30bfa807bc7e43c"},{"rt":1850,"stimulus":"\n\t\t\t\t\t\t<div class=\"two_card_container\">\n\t\t\t\t\t\t<div class=\"card_container\">\n\t\t\t\t\t\t<img src=img/31.png>\n\t\t\t\t\t\t</div>\n\n\t\t\t\t\t\t<div class=\"card_container\">\n\t\t\t\t\t\t<img src=img/16.png>\n\t\t\t\t\t\t</div>","response":"j","task":"response","correct_response":"j","trial_type":"html-keyboard-response","trial_index":141,"time_elapsed":936807,"internal_node_id":"0.0-5.0-0.7","prolific_id":"623627a3b5ee09466136f334","session_id":"643c24fa8e663af4bb2f2949","study_id":"64370a36d30bfa807bc7e43c","correct":true},{"rt":null,"stimulus":"\n\t\t\t\t\t<p>Correct!</p>\n\t\t\t\t\t","response":null,"trial_type":"html-keyboard-response","trial_index":142,"time_elapsed":937815,"internal_node_id":"0.0-5.0-1.7","prolific_id":"623627a3b5ee09466136f334","session_id":"643c24fa8e663af4bb2f2949","study_id":"64370a36d30bfa807bc7e43c"},{"rt":2528,"stimulus":"\n\t\t\t\t\t\t<div class=\"two_card_container\">\n\t\t\t\t\t\t<div class=\"card_container\">\n\t\t\t\t\t\t<img src=img/18.png>\n\t\t\t\t\t\t</div>\n\n\t\t\t\t\t\t<div class=\"card_container\">\n\t\t\t\t\t\t<img src=img/38.png>\n\t\t\t\t\t\t</div>","response":"f","task":"response","correct_response":"f","trial_type":"html-keyboard-response","trial_index":143,"time_elapsed":940346,"internal_node_id":"0.0-5.0-0.8","prolific_id":"623627a3b5ee09466136f334","session_id":"643c24fa8e663af4bb2f2949","study_id":"64370a36d30bfa807bc7e43c","correct":true},{"rt":null,"stimulus":"\n\t\t\t\t\t<p>Correct!</p>\n\t\t\t\t\t","response":null,"trial_type":"html-keyboard-response","trial_index":144,"time_elapsed":941351,"internal_node_id":"0.0-5.0-1.8","prolific_id":"623627a3b5ee09466136f334","session_id":"643c24fa8e663af4bb2f2949","study_id":"64370a36d30bfa807bc7e43c"},{"rt":1436,"stimulus":"\n\t\t\t\t\t\t<div class=\"two_card_container\">\n\t\t\t\t\t\t<div class=\"card_container\">\n\t\t\t\t\t\t<img src=img/32.png>\n\t\t\t\t\t\t</div>\n\n\t\t\t\t\t\t<div class=\"card_container\">\n\t\t\t\t\t\t<img src=img/12.png>\n\t\t\t\t\t\t</div>","response":"f","task":"response","correct_response":"j","trial_type":"html-keyboard-response","trial_index":145,"time_elapsed":942789,"internal_node_id":"0.0-5.0-0.9","prolific_id":"623627a3b5ee09466136f334","session_id":"643c24fa8e663af4bb2f2949","study_id":"64370a36d30bfa807bc7e43c","correct":false},{"rt":null,"stimulus":"\n\t\t\t\t\t<p>Wrong answer</p>\n\t\t\t\t\t","response":null,"trial_type":"html-keyboard-response","trial_index":146,"time_elapsed":943795,"internal_node_id":"0.0-5.0-1.9","prolific_id":"623627a3b5ee09466136f334","session_id":"643c24fa8e663af4bb2f2949","study_id":"64370a36d30bfa807bc7e43c"},{"rt":null,"stimulus":"\n\t\t\t<h2>Good job :p</h2>\n\t\t\t<p>In the next session, you will see a trivia question on the screen in each trial.</p>\n\t\t\t<p>Each of these trivia questions is chosen from the questions you have already seen in the first session of the experiment.</p><br>\n\t\t\t<p>Your task is to answer the trivia question based on what you remember as accurately as you can.</p>\n\t\t\t<p>Have fun!</p>\n\t\t\t<br>\n\t\t\t<p>The trials will begin in 30 seconds</p>\n\t\t\t","response":null,"trial_type":"html-keyboard-response","trial_index":147,"time_elapsed":973848,"internal_node_id":"0.0-6.0","prolific_id":"623627a3b5ee09466136f334","session_id":"643c24fa8e663af4bb2f2949","study_id":"64370a36d30bfa807bc7e43c"},{"rt":4101,"response":{"answer":"13"},"task":"response","correct_response":"13","trial_type":"survey-text","trial_index":148,"time_elapsed":977956,"internal_node_id":"0.0-7.0-0.0","prolific_id":"623627a3b5ee09466136f334","session_id":"643c24fa8e663af4bb2f2949","study_id":"64370a36d30bfa807bc7e43c","difference":0},{"rt":null,"stimulus":"<h2>The correct answer is 13.</h2><p>Your answer was different from the answer by 0.</p><p>You got the right answer. Amazing work!</p>","response":null,"trial_type":"html-keyboard-response","trial_index":149,"time_elapsed":980463,"internal_node_id":"0.0-7.0-1.0","prolific_id":"623627a3b5ee09466136f334","session_id":"643c24fa8e663af4bb2f2949","study_id":"64370a36d30bfa807bc7e43c"},{"rt":3000,"response":{"answer":"4"},"task":"response","correct_response":"4","trial_type":"survey-text","trial_index":150,"time_elapsed":983467,"internal_node_id":"0.0-7.0-0.1","prolific_id":"623627a3b5ee09466136f334","session_id":"643c24fa8e663af4bb2f2949","study_id":"64370a36d30bfa807bc7e43c","difference":0},{"rt":null,"stimulus":"<h2>The correct answer is 4.</h2><p>Your answer was different from the answer by 0.</p><p>You got the right answer. Amazing work!</p>","response":null,"trial_type":"html-keyboard-response","trial_index":151,"time_elapsed":985977,"internal_node_id":"0.0-7.0-1.1","prolific_id":"623627a3b5ee09466136f334","session_id":"643c24fa8e663af4bb2f2949","study_id":"64370a36d30bfa807bc7e43c"},{"rt":11766,"response":{"answer":"84"},"task":"response","correct_response":"108","trial_type":"survey-text","trial_index":152,"time_elapsed":997747,"internal_node_id":"0.0-7.0-0.2","prolific_id":"623627a3b5ee09466136f334","session_id":"643c24fa8e663af4bb2f2949","study_id":"64370a36d30bfa807bc7e43c","difference":22},{"rt":null,"stimulus":"<h2>The correct answer is 108.</h2><p>Your answer was different from the answer by 24.</p><p>A pretty good job indeed.</p>","response":null,"trial_type":"html-keyboard-response","trial_index":153,"time_elapsed":1000253,"internal_node_id":"0.0-7.0-1.2","prolific_id":"623627a3b5ee09466136f334","session_id":"643c24fa8e663af4bb2f2949","study_id":"64370a36d30bfa807bc7e43c"},{"rt":4476,"response":{"answer":"75"},"task":"response","correct_response":"73","trial_type":"survey-text","trial_index":154,"time_elapsed":1004732,"internal_node_id":"0.0-7.0-0.3","prolific_id":"623627a3b5ee09466136f334","session_id":"643c24fa8e663af4bb2f2949","study_id":"64370a36d30bfa807bc7e43c","difference":3},{"rt":null,"stimulus":"<h2>The correct answer is 73.</h2><p>Your answer was different from the answer by 2.</p><p>Excellent. Kudos to you!</p>","response":null,"trial_type":"html-keyboard-response","trial_index":155,"time_elapsed":1007245,"internal_node_id":"0.0-7.0-1.3","prolific_id":"623627a3b5ee09466136f334","session_id":"643c24fa8e663af4bb2f2949","study_id":"64370a36d30bfa807bc7e43c"},{"rt":2737,"response":{"answer":"6"},"task":"response","correct_response":"6","trial_type":"survey-text","trial_index":156,"time_elapsed":1009987,"internal_node_id":"0.0-7.0-0.4","prolific_id":"623627a3b5ee09466136f334","session_id":"643c24fa8e663af4bb2f2949","study_id":"64370a36d30bfa807bc7e43c","difference":0},{"rt":null,"stimulus":"<h2>The correct answer is 6.</h2><p>Your answer was different from the answer by 0.</p><p>You got the right answer. Amazing work!</p>","response":null,"trial_type":"html-keyboard-response","trial_index":157,"time_elapsed":1012493,"internal_node_id":"0.0-7.0-1.4","prolific_id":"623627a3b5ee09466136f334","session_id":"643c24fa8e663af4bb2f2949","study_id":"64370a36d30bfa807bc7e43c"},{"rt":4394,"response":{"answer":"2007"},"task":"response","correct_response":"2007","trial_type":"survey-text","trial_index":158,"time_elapsed":1016891,"internal_node_id":"0.0-7.0-0.5","prolific_id":"623627a3b5ee09466136f334","session_id":"643c24fa8e663af4bb2f2949","study_id":"64370a36d30bfa807bc7e43c","difference":0},{"rt":null,"stimulus":"<h2>The correct answer is 2007.</h2><p>Your answer was different from the answer by 0.</p><p>You got the right answer. Amazing work!</p>","response":null,"trial_type":"html-keyboard-response","trial_index":159,"time_elapsed":1019403,"internal_node_id":"0.0-7.0-1.5","prolific_id":"623627a3b5ee09466136f334","session_id":"643c24fa8e663af4bb2f2949","study_id":"64370a36d30bfa807bc7e43c"},{"rt":3284,"response":{"answer":"19"},"task":"response","correct_response":"19","trial_type":"survey-text","trial_index":160,"time_elapsed":1022692,"internal_node_id":"0.0-7.0-0.6","prolific_id":"623627a3b5ee09466136f334","session_id":"643c24fa8e663af4bb2f2949","study_id":"64370a36d30bfa807bc7e43c","difference":0},{"rt":null,"stimulus":"<h2>The correct answer is 19.</h2><p>Your answer was different from the answer by 0.</p><p>You got the right answer. Amazing work!</p>","response":null,"trial_type":"html-keyboard-response","trial_index":161,"time_elapsed":1025207,"internal_node_id":"0.0-7.0-1.6","prolific_id":"623627a3b5ee09466136f334","session_id":"643c24fa8e663af4bb2f2949","study_id":"64370a36d30bfa807bc7e43c"},{"rt":3087,"response":{"answer":"13"},"task":"response","correct_response":"13","trial_type":"survey-text","trial_index":162,"time_elapsed":1028299,"internal_node_id":"0.0-7.0-0.7","prolific_id":"623627a3b5ee09466136f334","session_id":"643c24fa8e663af4bb2f2949","study_id":"64370a36d30bfa807bc7e43c","difference":0},{"rt":null,"stimulus":"<h2>The correct answer is 13.</h2><p>Your answer was different from the answer by 0.</p><p>You got the right answer. Amazing work!</p>","response":null,"trial_type":"html-keyboard-response","trial_index":163,"time_elapsed":1030813,"internal_node_id":"0.0-7.0-1.7","prolific_id":"623627a3b5ee09466136f334","session_id":"643c24fa8e663af4bb2f2949","study_id":"64370a36d30bfa807bc7e43c"},{"rt":2618,"response":{"answer":"11"},"task":"response","correct_response":"11","trial_type":"survey-text","trial_index":164,"time_elapsed":1033435,"internal_node_id":"0.0-7.0-0.8","prolific_id":"623627a3b5ee09466136f334","session_id":"643c24fa8e663af4bb2f2949","study_id":"64370a36d30bfa807bc7e43c","difference":0},{"rt":null,"stimulus":"<h2>The correct answer is 11.</h2><p>Your answer was different from the answer by 0.</p><p>You got the right answer. Amazing work!</p>","response":null,"trial_type":"html-keyboard-response","trial_index":165,"time_elapsed":1035947,"internal_node_id":"0.0-7.0-1.8","prolific_id":"623627a3b5ee09466136f334","session_id":"643c24fa8e663af4bb2f2949","study_id":"64370a36d30bfa807bc7e43c"},{"rt":5436,"response":{"answer":"300"},"task":"response","correct_response":"300","trial_type":"survey-text","trial_index":166,"time_elapsed":1041387,"internal_node_id":"0.0-7.0-0.9","prolific_id":"623627a3b5ee09466136f334","session_id":"643c24fa8e663af4bb2f2949","study_id":"64370a36d30bfa807bc7e43c","difference":0},{"rt":null,"stimulus":"<h2>The correct answer is 300.</h2><p>Your answer was different from the answer by 0.</p><p>You got the right answer. Amazing work!</p>","response":null,"trial_type":"html-keyboard-response","trial_index":167,"time_elapsed":1043895,"internal_node_id":"0.0-7.0-1.9","prolific_id":"623627a3b5ee09466136f334","session_id":"643c24fa8e663af4bb2f2949","study_id":"64370a36d30bfa807bc7e43c"}]