[{"success":true,"timeout":false,"failed_images":[],"failed_audio":[],"failed_video":[],"trial_type":"preload","trial_index":0,"time_elapsed":36429,"internal_node_id":"0.0-0.0","prolific_id":"62897d2024f826ea90b7efa1","session_id":"643c1b23d282e80fc0992a25","study_id":"64370a36d30bfa807bc7e43c"},{"rt":21804,"stimulus":"\n\t\t\t\t\t<p>Welcome and thank you for participating in this study!</p>\n\t\t\t\t\t<p>In each trial, you will be given a trivia question and then be asked to:</p><br>\n\t\t\t\t\t<div class=\"list\">\n\t\t\t\t\t<p>1) Predict the answer</p>\n\t\t\t\t\t<p>2) Rate how much you already know about the topic</p>\n\t\t\t\t\t<p>3) Rate how much you want to know the answer</p>\n\t\t\t\t\t</div>\n\t\t\t\t\t<br>\n\t\t\t\t\t<p>Then, you will see a card that flips over to reveal the answer.</p>\n\t\t\t\t\t<br>\n\t\t\t\t\t<p>Let's try a practice round. Press <span style=\"color: red\"><strong>any key</strong></span> to move to the next slide</p>\n\t\t\t\t\t","response":"h","trial_type":"html-keyboard-response","trial_index":1,"time_elapsed":58235,"internal_node_id":"0.0-1.0","prolific_id":"62897d2024f826ea90b7efa1","session_id":"643c1b23d282e80fc0992a25","study_id":"64370a36d30bfa807bc7e43c"},{"rt":14946,"response":{"practice prediction":"8"},"task":"practice","trial_type":"survey-text","trial_index":2,"time_elapsed":73208,"internal_node_id":"0.0-2.0-0.0","prolific_id":"62897d2024f826ea90b7efa1","session_id":"643c1b23d282e80fc0992a25","study_id":"64370a36d30bfa807bc7e43c"},{"rt":27934,"response":{"practice":5},"accuracy":[],"trial_type":"survey","trial_index":3,"time_elapsed":101172,"internal_node_id":"0.0-2.0-1.0","prolific_id":"62897d2024f826ea90b7efa1","session_id":"643c1b23d282e80fc0992a25","study_id":"64370a36d30bfa807bc7e43c"},{"rt":null,"stimulus":"\n\t\t\t\t<div class=\"flip_card\">\n\t\t\t\t\t<div class=\"flip_card_inner\">\n\t\t\t\t\t\t<div class=\"flip_card_front\">\n\t\t\t\t\t\t\t<img src=img/practice.png>\n\t\t\t\t\t\t</div>\n\t\t\t\t\t\t<div class=\"flip_card_back\">\n\t\t\t\t\t\t\t<h2>\"How many legs does a lobster have?\"</h2>\n\t\t\t\t\t\t    <br>\n\t\t\t\t\t\t    <p>Answer: <strong>\"10\"</strong></p>\n\t\t\t\t\t    </div>\n\t\t\t\t    </div>\n\t\t\t    </div>\n\t\t\t\t","response":null,"trial_type":"html-keyboard-response","trial_index":4,"time_elapsed":106176,"internal_node_id":"0.0-2.0-2.0","prolific_id":"62897d2024f826ea90b7efa1","session_id":"643c1b23d282e80fc0992a25","study_id":"64370a36d30bfa807bc7e43c"},{"rt":3778,"stimulus":"\n\t\t\t\t\t<div>\n\t\t\t\t\t<h2>The practice round is over</h2>\n\t\t\t\t\t<p>Press <span style=\"color: red\"><strong>any key</strong></span> to continue to the actual trials</p>\n\t\t\t\t\t<p>Good Luck!</p>\n\t\t\t\t\t</div>\n\t\t\t\t\t","response":"h","trial_type":"html-keyboard-response","trial_index":5,"time_elapsed":109955,"internal_node_id":"0.0-2.0-3.0","prolific_id":"62897d2024f826ea90b7efa1","session_id":"643c1b23d282e80fc0992a25","study_id":"64370a36d30bfa807bc7e43c"},{"rt":6158,"response":{"prediction":"1"},"trial_type":"survey-text","trial_index":6,"time_elapsed":116118,"internal_node_id":"0.0-3.0-0.0","prolific_id":"62897d2024f826ea90b7efa1","session_id":"643c1b23d282e80fc0992a25","study_id":"64370a36d30bfa807bc7e43c"},{"rt":6088,"response":{"prior knowledge":1,"curiosity":5},"accuracy":[],"trial_type":"survey","trial_index":7,"time_elapsed":122219,"internal_node_id":"0.0-3.0-1.0","prolific_id":"62897d2024f826ea90b7efa1","session_id":"643c1b23d282e80fc0992a25","study_id":"64370a36d30bfa807bc7e43c"},{"rt":null,"stimulus":"\n\t\t\t<div class=\"flip_card\">\n\t\t\t\t<div class=\"flip_card_inner\">\n\t\t\t\t\t<div class=\"flip_card_front\">\n\t\t\t\t\t\t<img src=img/5.png>\n\t\t\t\t\t</div>\n\t\t\t\t\t<div class=\"flip_card_back\">\n\t\t\t\t\t\t<h2>How many times a day do Muslims pray?</h2>\n\t\t\t\t\t\t<br>\n\t\t\t\t\t\t<p>Answer: <strong>5</strong></p>\n\t\t\t\t\t</div>\n\t\t\t\t</div>\n\t\t\t</div>\n\t\t\t","response":null,"trial_type":"html-keyboard-response","trial_index":8,"time_elapsed":127220,"internal_node_id":"0.0-3.0-2.0","prolific_id":"62897d2024f826ea90b7efa1","session_id":"643c1b23d282e80fc0992a25","study_id":"64370a36d30bfa807bc7e43c"},{"rt":1537,"stimulus":"\n\t\t\t\t\t<div>\n\t\t\t\t\t<h2>Trial 1 is over</h2>\n\t\t\t\t\t<p>Press <span style=\"color: red\"><strong>any key</strong></span> to continue to the next trial</p>\n\t\t\t\t\t</div>\n\t\t\t\t","response":"h","trial_type":"html-keyboard-response","trial_index":9,"time_elapsed":128758,"internal_node_id":"0.0-3.0-3.0","prolific_id":"62897d2024f826ea90b7efa1","session_id":"643c1b23d282e80fc0992a25","study_id":"64370a36d30bfa807bc7e43c"},{"rt":9075,"response":{"prediction":"11"},"trial_type":"survey-text","trial_index":10,"time_elapsed":137838,"internal_node_id":"0.0-3.0-0.1","prolific_id":"62897d2024f826ea90b7efa1","session_id":"643c1b23d282e80fc0992a25","study_id":"64370a36d30bfa807bc7e43c"},{"rt":6702,"response":{"prior knowledge":0,"curiosity":5},"accuracy":[],"trial_type":"survey","trial_index":11,"time_elapsed":144553,"internal_node_id":"0.0-3.0-1.1","prolific_id":"62897d2024f826ea90b7efa1","session_id":"643c1b23d282e80fc0992a25","study_id":"64370a36d30bfa807bc7e43c"},{"rt":null,"stimulus":"\n\t\t\t<div class=\"flip_card\">\n\t\t\t\t<div class=\"flip_card_inner\">\n\t\t\t\t\t<div class=\"flip_card_front\">\n\t\t\t\t\t\t<img src=img/26.png>\n\t\t\t\t\t</div>\n\t\t\t\t\t<div class=\"flip_card_back\">\n\t\t\t\t\t\t<h2>How many soccer players should each team have on the field at the start of each match?</h2>\n\t\t\t\t\t\t<br>\n\t\t\t\t\t\t<p>Answer: <strong>11</strong></p>\n\t\t\t\t\t</div>\n\t\t\t\t</div>\n\t\t\t</div>\n\t\t\t","response":null,"trial_type":"html-keyboard-response","trial_index":12,"time_elapsed":149555,"internal_node_id":"0.0-3.0-2.1","prolific_id":"62897d2024f826ea90b7efa1","session_id":"643c1b23d282e80fc0992a25","study_id":"64370a36d30bfa807bc7e43c"},{"rt":3023,"stimulus":"\n\t\t\t\t\t<div>\n\t\t\t\t\t<h2>Trial 2 is over</h2>\n\t\t\t\t\t<p>Press <span style=\"color: red\"><strong>any key</strong></span> to continue to the next trial</p>\n\t\t\t\t\t</div>\n\t\t\t\t","response":"g","trial_type":"html-keyboard-response","trial_index":13,"time_elapsed":152579,"internal_node_id":"0.0-3.0-3.1","prolific_id":"62897d2024f826ea90b7efa1","session_id":"643c1b23d282e80fc0992a25","study_id":"64370a36d30bfa807bc7e43c"},{"rt":18042,"response":{"prediction":"800"},"trial_type":"survey-text","trial_index":14,"time_elapsed":170623,"internal_node_id":"0.0-3.0-0.2","prolific_id":"62897d2024f826ea90b7efa1","session_id":"643c1b23d282e80fc0992a25","study_id":"64370a36d30bfa807bc7e43c"},{"rt":5263,"response":{"prior knowledge":0,"curiosity":5},"accuracy":[],"trial_type":"survey","trial_index":15,"time_elapsed":175896,"internal_node_id":"0.0-3.0-1.2","prolific_id":"62897d2024f826ea90b7efa1","session_id":"643c1b23d282e80fc0992a25","study_id":"64370a36d30bfa807bc7e43c"},{"rt":null,"stimulus":"\n\t\t\t<div class=\"flip_card\">\n\t\t\t\t<div class=\"flip_card_inner\">\n\t\t\t\t\t<div class=\"flip_card_front\">\n\t\t\t\t\t\t<img src=img/24.png>\n\t\t\t\t\t</div>\n\t\t\t\t\t<div class=\"flip_card_back\">\n\t\t\t\t\t\t<h2>How many people are vegan globally (in millions)?</h2>\n\t\t\t\t\t\t<br>\n\t\t\t\t\t\t<p>Answer: <strong>79</strong></p>\n\t\t\t\t\t</div>\n\t\t\t\t</div>\n\t\t\t</div>\n\t\t\t","response":null,"trial_type":"html-keyboard-response","trial_index":16,"time_elapsed":180902,"internal_node_id":"0.0-3.0-2.2","prolific_id":"62897d2024f826ea90b7efa1","session_id":"643c1b23d282e80fc0992a25","study_id":"64370a36d30bfa807bc7e43c"},{"rt":1892,"stimulus":"\n\t\t\t\t\t<div>\n\t\t\t\t\t<h2>Trial 3 is over</h2>\n\t\t\t\t\t<p>Press <span style=\"color: red\"><strong>any key</strong></span> to continue to the next trial</p>\n\t\t\t\t\t</div>\n\t\t\t\t","response":"f","trial_type":"html-keyboard-response","trial_index":17,"time_elapsed":182795,"internal_node_id":"0.0-3.0-3.2","prolific_id":"62897d2024f826ea90b7efa1","session_id":"643c1b23d282e80fc0992a25","study_id":"64370a36d30bfa807bc7e43c"},{"rt":4489,"response":{"prediction":"13"},"trial_type":"survey-text","trial_index":18,"time_elapsed":187286,"internal_node_id":"0.0-3.0-0.3","prolific_id":"62897d2024f826ea90b7efa1","session_id":"643c1b23d282e80fc0992a25","study_id":"64370a36d30bfa807bc7e43c"},{"rt":9774,"response":{"prior knowledge":5,"curiosity":5},"accuracy":[],"trial_type":"survey","trial_index":19,"time_elapsed":197071,"internal_node_id":"0.0-3.0-1.3","prolific_id":"62897d2024f826ea90b7efa1","session_id":"643c1b23d282e80fc0992a25","study_id":"64370a36d30bfa807bc7e43c"},{"rt":null,"stimulus":"\n\t\t\t<div class=\"flip_card\">\n\t\t\t\t<div class=\"flip_card_inner\">\n\t\t\t\t\t<div class=\"flip_card_front\">\n\t\t\t\t\t\t<img src=img/21.png>\n\t\t\t\t\t</div>\n\t\t\t\t\t<div class=\"flip_card_back\">\n\t\t\t\t\t\t<h2>How much is in a Baker's Dozen?</h2>\n\t\t\t\t\t\t<br>\n\t\t\t\t\t\t<p>Answer: <strong>13</strong></p>\n\t\t\t\t\t</div>\n\t\t\t\t</div>\n\t\t\t</div>\n\t\t\t","response":null,"trial_type":"html-keyboard-response","trial_index":20,"time_elapsed":202088,"internal_node_id":"0.0-3.0-2.3","prolific_id":"62897d2024f826ea90b7efa1","session_id":"643c1b23d282e80fc0992a25","study_id":"64370a36d30bfa807bc7e43c"},{"rt":18196,"stimulus":"\n\t\t\t\t\t<div>\n\t\t\t\t\t<h2>Trial 4 is over</h2>\n\t\t\t\t\t<p>Press <span style=\"color: red\"><strong>any key</strong></span> to continue to the next trial</p>\n\t\t\t\t\t</div>\n\t\t\t\t","response":"g","trial_type":"html-keyboard-response","trial_index":21,"time_elapsed":220285,"internal_node_id":"0.0-3.0-3.3","prolific_id":"62897d2024f826ea90b7efa1","session_id":"643c1b23d282e80fc0992a25","study_id":"64370a36d30bfa807bc7e43c"},{"rt":6656,"response":{"prediction":"2"},"trial_type":"survey-text","trial_index":22,"time_elapsed":226942,"internal_node_id":"0.0-3.0-0.4","prolific_id":"62897d2024f826ea90b7efa1","session_id":"643c1b23d282e80fc0992a25","study_id":"64370a36d30bfa807bc7e43c"},{"rt":4480,"response":{"prior knowledge":1,"curiosity":5},"accuracy":[],"trial_type":"survey","trial_index":23,"time_elapsed":231432,"internal_node_id":"0.0-3.0-1.4","prolific_id":"62897d2024f826ea90b7efa1","session_id":"643c1b23d282e80fc0992a25","study_id":"64370a36d30bfa807bc7e43c"},{"rt":null,"stimulus":"\n\t\t\t<div class=\"flip_card\">\n\t\t\t\t<div class=\"flip_card_inner\">\n\t\t\t\t\t<div class=\"flip_card_front\">\n\t\t\t\t\t\t<img src=img/16.png>\n\t\t\t\t\t</div>\n\t\t\t\t\t<div class=\"flip_card_back\">\n\t\t\t\t\t\t<h2>How many main islands make up Japan?</h2>\n\t\t\t\t\t\t<br>\n\t\t\t\t\t\t<p>Answer: <strong>4</strong></p>\n\t\t\t\t\t</div>\n\t\t\t\t</div>\n\t\t\t</div>\n\t\t\t","response":null,"trial_type":"html-keyboard-response","trial_index":24,"time_elapsed":236435,"internal_node_id":"0.0-3.0-2.4","prolific_id":"62897d2024f826ea90b7efa1","session_id":"643c1b23d282e80fc0992a25","study_id":"64370a36d30bfa807bc7e43c"},{"rt":1590,"stimulus":"\n\t\t\t\t\t<div>\n\t\t\t\t\t<h2>Trial 5 is over</h2>\n\t\t\t\t\t<p>Press <span style=\"color: red\"><strong>any key</strong></span> to continue to the next trial</p>\n\t\t\t\t\t</div>\n\t\t\t\t","response":"f","trial_type":"html-keyboard-response","trial_index":25,"time_elapsed":238026,"internal_node_id":"0.0-3.0-3.4","prolific_id":"62897d2024f826ea90b7efa1","session_id":"643c1b23d282e80fc0992a25","study_id":"64370a36d30bfa807bc7e43c"},{"rt":7017,"response":{"prediction":"5"},"trial_type":"survey-text","trial_index":26,"time_elapsed":245046,"internal_node_id":"0.0-3.0-0.5","prolific_id":"62897d2024f826ea90b7efa1","session_id":"643c1b23d282e80fc0992a25","study_id":"64370a36d30bfa807bc7e43c"},{"rt":4462,"response":{"prior knowledge":0,"curiosity":5},"accuracy":[],"trial_type":"survey","trial_index":27,"time_elapsed":249519,"internal_node_id":"0.0-3.0-1.5","prolific_id":"62897d2024f826ea90b7efa1","session_id":"643c1b23d282e80fc0992a25","study_id":"64370a36d30bfa807bc7e43c"},{"rt":null,"stimulus":"\n\t\t\t<div class=\"flip_card\">\n\t\t\t\t<div class=\"flip_card_inner\">\n\t\t\t\t\t<div class=\"flip_card_front\">\n\t\t\t\t\t\t<img src=img/19.png>\n\t\t\t\t\t</div>\n\t\t\t\t\t<div class=\"flip_card_back\">\n\t\t\t\t\t\t<h2>How many single hand gestures, or mudras, are used in Indian classical dance?</h2>\n\t\t\t\t\t\t<br>\n\t\t\t\t\t\t<p>Answer: <strong>28</strong></p>\n\t\t\t\t\t</div>\n\t\t\t\t</div>\n\t\t\t</div>\n\t\t\t","response":null,"trial_type":"html-keyboard-response","trial_index":28,"time_elapsed":254521,"internal_node_id":"0.0-3.0-2.5","prolific_id":"62897d2024f826ea90b7efa1","session_id":"643c1b23d282e80fc0992a25","study_id":"64370a36d30bfa807bc7e43c"},{"rt":1655,"stimulus":"\n\t\t\t\t\t<div>\n\t\t\t\t\t<h2>Trial 6 is over</h2>\n\t\t\t\t\t<p>Press <span style=\"color: red\"><strong>any key</strong></span> to continue to the next trial</p>\n\t\t\t\t\t</div>\n\t\t\t\t","response":"g","trial_type":"html-keyboard-response","trial_index":29,"time_elapsed":256177,"internal_node_id":"0.0-3.0-3.5","prolific_id":"62897d2024f826ea90b7efa1","session_id":"643c1b23d282e80fc0992a25","study_id":"64370a36d30bfa807bc7e43c"},{"rt":8691,"response":{"prediction":"25"},"trial_type":"survey-text","trial_index":30,"time_elapsed":264870,"internal_node_id":"0.0-3.0-0.6","prolific_id":"62897d2024f826ea90b7efa1","session_id":"643c1b23d282e80fc0992a25","study_id":"64370a36d30bfa807bc7e43c"},{"rt":4800,"response":{"prior knowledge":0,"curiosity":5},"accuracy":[],"trial_type":"survey","trial_index":31,"time_elapsed":269679,"internal_node_id":"0.0-3.0-1.6","prolific_id":"62897d2024f826ea90b7efa1","session_id":"643c1b23d282e80fc0992a25","study_id":"64370a36d30bfa807bc7e43c"},{"rt":null,"stimulus":"\n\t\t\t<div class=\"flip_card\">\n\t\t\t\t<div class=\"flip_card_inner\">\n\t\t\t\t\t<div class=\"flip_card_front\">\n\t\t\t\t\t\t<img src=img/25.png>\n\t\t\t\t\t</div>\n\t\t\t\t\t<div class=\"flip_card_back\">\n\t\t\t\t\t\t<h2>How many tones are in the Vietnamese language?</h2>\n\t\t\t\t\t\t<br>\n\t\t\t\t\t\t<p>Answer: <strong>6</strong></p>\n\t\t\t\t\t</div>\n\t\t\t\t</div>\n\t\t\t</div>\n\t\t\t","response":null,"trial_type":"html-keyboard-response","trial_index":32,"time_elapsed":274687,"internal_node_id":"0.0-3.0-2.6","prolific_id":"62897d2024f826ea90b7efa1","session_id":"643c1b23d282e80fc0992a25","study_id":"64370a36d30bfa807bc7e43c"},{"rt":1671,"stimulus":"\n\t\t\t\t\t<div>\n\t\t\t\t\t<h2>Trial 7 is over</h2>\n\t\t\t\t\t<p>Press <span style=\"color: red\"><strong>any key</strong></span> to continue to the next trial</p>\n\t\t\t\t\t</div>\n\t\t\t\t","response":"d","trial_type":"html-keyboard-response","trial_index":33,"time_elapsed":276359,"internal_node_id":"0.0-3.0-3.6","prolific_id":"62897d2024f826ea90b7efa1","session_id":"643c1b23d282e80fc0992a25","study_id":"64370a36d30bfa807bc7e43c"},{"rt":5316,"response":{"prediction":"3"},"trial_type":"survey-text","trial_index":34,"time_elapsed":281678,"internal_node_id":"0.0-3.0-0.7","prolific_id":"62897d2024f826ea90b7efa1","session_id":"643c1b23d282e80fc0992a25","study_id":"64370a36d30bfa807bc7e43c"},{"rt":4112,"response":{"prior knowledge":0,"curiosity":5},"accuracy":[],"trial_type":"survey","trial_index":35,"time_elapsed":285800,"internal_node_id":"0.0-3.0-1.7","prolific_id":"62897d2024f826ea90b7efa1","session_id":"643c1b23d282e80fc0992a25","study_id":"64370a36d30bfa807bc7e43c"},{"rt":null,"stimulus":"\n\t\t\t<div class=\"flip_card\">\n\t\t\t\t<div class=\"flip_card_inner\">\n\t\t\t\t\t<div class=\"flip_card_front\">\n\t\t\t\t\t\t<img src=img/13.png>\n\t\t\t\t\t</div>\n\t\t\t\t\t<div class=\"flip_card_back\">\n\t\t\t\t\t\t<h2>How many moons does Neptune have?</h2>\n\t\t\t\t\t\t<br>\n\t\t\t\t\t\t<p>Answer: <strong>14</strong></p>\n\t\t\t\t\t</div>\n\t\t\t\t</div>\n\t\t\t</div>\n\t\t\t","response":null,"trial_type":"html-keyboard-response","trial_index":36,"time_elapsed":290814,"internal_node_id":"0.0-3.0-2.7","prolific_id":"62897d2024f826ea90b7efa1","session_id":"643c1b23d282e80fc0992a25","study_id":"64370a36d30bfa807bc7e43c"},{"rt":906,"stimulus":"\n\t\t\t\t\t<div>\n\t\t\t\t\t<h2>Trial 8 is over</h2>\n\t\t\t\t\t<p>Press <span style=\"color: red\"><strong>any key</strong></span> to continue to the next trial</p>\n\t\t\t\t\t</div>\n\t\t\t\t","response":"e","trial_type":"html-keyboard-response","trial_index":37,"time_elapsed":291721,"internal_node_id":"0.0-3.0-3.7","prolific_id":"62897d2024f826ea90b7efa1","session_id":"643c1b23d282e80fc0992a25","study_id":"64370a36d30bfa807bc7e43c"},{"rt":14426,"response":{"prediction":"300000"},"trial_type":"survey-text","trial_index":38,"time_elapsed":306150,"internal_node_id":"0.0-3.0-0.8","prolific_id":"62897d2024f826ea90b7efa1","session_id":"643c1b23d282e80fc0992a25","study_id":"64370a36d30bfa807bc7e43c"},{"rt":8215,"response":{"prior knowledge":0,"curiosity":5},"accuracy":[],"trial_type":"survey","trial_index":39,"time_elapsed":314376,"internal_node_id":"0.0-3.0-1.8","prolific_id":"62897d2024f826ea90b7efa1","session_id":"643c1b23d282e80fc0992a25","study_id":"64370a36d30bfa807bc7e43c"},{"rt":null,"stimulus":"\n\t\t\t<div class=\"flip_card\">\n\t\t\t\t<div class=\"flip_card_inner\">\n\t\t\t\t\t<div class=\"flip_card_front\">\n\t\t\t\t\t\t<img src=img/28.png>\n\t\t\t\t\t</div>\n\t\t\t\t\t<div class=\"flip_card_back\">\n\t\t\t\t\t\t<h2>What is the diameter of Earth in miles?</h2>\n\t\t\t\t\t\t<br>\n\t\t\t\t\t\t<p>Answer: <strong>7917.5</strong></p>\n\t\t\t\t\t</div>\n\t\t\t\t</div>\n\t\t\t</div>\n\t\t\t","response":null,"trial_type":"html-keyboard-response","trial_index":40,"time_elapsed":319384,"internal_node_id":"0.0-3.0-2.8","prolific_id":"62897d2024f826ea90b7efa1","session_id":"643c1b23d282e80fc0992a25","study_id":"64370a36d30bfa807bc7e43c"},{"rt":22576,"stimulus":"\n\t\t\t\t\t<div>\n\t\t\t\t\t<h2>Trial 9 is over</h2>\n\t\t\t\t\t<p>Press <span style=\"color: red\"><strong>any key</strong></span> to continue to the next trial</p>\n\t\t\t\t\t</div>\n\t\t\t\t","response":"f","trial_type":"html-keyboard-response","trial_index":41,"time_elapsed":341960,"internal_node_id":"0.0-3.0-3.8","prolific_id":"62897d2024f826ea90b7efa1","session_id":"643c1b23d282e80fc0992a25","study_id":"64370a36d30bfa807bc7e43c"},{"rt":6868,"response":{"prediction":"1908"},"trial_type":"survey-text","trial_index":42,"time_elapsed":348829,"internal_node_id":"0.0-3.0-0.9","prolific_id":"62897d2024f826ea90b7efa1","session_id":"643c1b23d282e80fc0992a25","study_id":"64370a36d30bfa807bc7e43c"},{"rt":16842,"response":{"prior knowledge":2,"curiosity":5},"accuracy":[],"trial_type":"survey","trial_index":43,"time_elapsed":365680,"internal_node_id":"0.0-3.0-1.9","prolific_id":"62897d2024f826ea90b7efa1","session_id":"643c1b23d282e80fc0992a25","study_id":"64370a36d30bfa807bc7e43c"},{"rt":null,"stimulus":"\n\t\t\t<div class=\"flip_card\">\n\t\t\t\t<div class=\"flip_card_inner\">\n\t\t\t\t\t<div class=\"flip_card_front\">\n\t\t\t\t\t\t<img src=img/22.png>\n\t\t\t\t\t</div>\n\t\t\t\t\t<div class=\"flip_card_back\">\n\t\t\t\t\t\t<h2>What year did the titanic sink?</h2>\n\t\t\t\t\t\t<br>\n\t\t\t\t\t\t<p>Answer: <strong>1912</strong></p>\n\t\t\t\t\t</div>\n\t\t\t\t</div>\n\t\t\t</div>\n\t\t\t","response":null,"trial_type":"html-keyboard-response","trial_index":44,"time_elapsed":370681,"internal_node_id":"0.0-3.0-2.9","prolific_id":"62897d2024f826ea90b7efa1","session_id":"643c1b23d282e80fc0992a25","study_id":"64370a36d30bfa807bc7e43c"},{"rt":3025,"stimulus":"\n\t\t\t\t\t<div>\n\t\t\t\t\t<h2>Trial 10 is over</h2>\n\t\t\t\t\t<p>Press <span style=\"color: red\"><strong>any key</strong></span> to continue to the next trial</p>\n\t\t\t\t\t</div>\n\t\t\t\t","response":"g","trial_type":"html-keyboard-response","trial_index":45,"time_elapsed":373707,"internal_node_id":"0.0-3.0-3.9","prolific_id":"62897d2024f826ea90b7efa1","session_id":"643c1b23d282e80fc0992a25","study_id":"64370a36d30bfa807bc7e43c"},{"rt":11258,"response":{"prediction":"1000000"},"trial_type":"survey-text","trial_index":46,"time_elapsed":384966,"internal_node_id":"0.0-3.0-0.10","prolific_id":"62897d2024f826ea90b7efa1","session_id":"643c1b23d282e80fc0992a25","study_id":"64370a36d30bfa807bc7e43c"},{"rt":4711,"response":{"prior knowledge":0,"curiosity":5},"accuracy":[],"trial_type":"survey","trial_index":47,"time_elapsed":389688,"internal_node_id":"0.0-3.0-1.10","prolific_id":"62897d2024f826ea90b7efa1","session_id":"643c1b23d282e80fc0992a25","study_id":"64370a36d30bfa807bc7e43c"},{"rt":null,"stimulus":"\n\t\t\t<div class=\"flip_card\">\n\t\t\t\t<div class=\"flip_card_inner\">\n\t\t\t\t\t<div class=\"flip_card_front\">\n\t\t\t\t\t\t<img src=img/2.png>\n\t\t\t\t\t</div>\n\t\t\t\t\t<div class=\"flip_card_back\">\n\t\t\t\t\t\t<h2>How many constellations are there?</h2>\n\t\t\t\t\t\t<br>\n\t\t\t\t\t\t<p>Answer: <strong>88</strong></p>\n\t\t\t\t\t</div>\n\t\t\t\t</div>\n\t\t\t</div>\n\t\t\t","response":null,"trial_type":"html-keyboard-response","trial_index":48,"time_elapsed":394697,"internal_node_id":"0.0-3.0-2.10","prolific_id":"62897d2024f826ea90b7efa1","session_id":"643c1b23d282e80fc0992a25","study_id":"64370a36d30bfa807bc7e43c"},{"rt":1969,"stimulus":"\n\t\t\t\t\t<div>\n\t\t\t\t\t<h2>Trial 11 is over</h2>\n\t\t\t\t\t<p>Press <span style=\"color: red\"><strong>any key</strong></span> to continue to the next trial</p>\n\t\t\t\t\t</div>\n\t\t\t\t","response":"f","trial_type":"html-keyboard-response","trial_index":49,"time_elapsed":396667,"internal_node_id":"0.0-3.0-3.10","prolific_id":"62897d2024f826ea90b7efa1","session_id":"643c1b23d282e80fc0992a25","study_id":"64370a36d30bfa807bc7e43c"},{"rt":6234,"response":{"prediction":"15"},"trial_type":"survey-text","trial_index":50,"time_elapsed":402902,"internal_node_id":"0.0-3.0-0.11","prolific_id":"62897d2024f826ea90b7efa1","session_id":"643c1b23d282e80fc0992a25","study_id":"64370a36d30bfa807bc7e43c"},{"rt":6602,"response":{"prior knowledge":0,"curiosity":5},"accuracy":[],"trial_type":"survey","trial_index":51,"time_elapsed":409512,"internal_node_id":"0.0-3.0-1.11","prolific_id":"62897d2024f826ea90b7efa1","session_id":"643c1b23d282e80fc0992a25","study_id":"64370a36d30bfa807bc7e43c"},{"rt":null,"stimulus":"\n\t\t\t<div class=\"flip_card\">\n\t\t\t\t<div class=\"flip_card_inner\">\n\t\t\t\t\t<div class=\"flip_card_front\">\n\t\t\t\t\t\t<img src=img/18.png>\n\t\t\t\t\t</div>\n\t\t\t\t\t<div class=\"flip_card_back\">\n\t\t\t\t\t\t<h2>How many native species of kangaroos are found in Australia?</h2>\n\t\t\t\t\t\t<br>\n\t\t\t\t\t\t<p>Answer: <strong>4</strong></p>\n\t\t\t\t\t</div>\n\t\t\t\t</div>\n\t\t\t</div>\n\t\t\t","response":null,"trial_type":"html-keyboard-response","trial_index":52,"time_elapsed":414513,"internal_node_id":"0.0-3.0-2.11","prolific_id":"62897d2024f826ea90b7efa1","session_id":"643c1b23d282e80fc0992a25","study_id":"64370a36d30bfa807bc7e43c"},{"rt":1950,"stimulus":"\n\t\t\t\t\t<div>\n\t\t\t\t\t<h2>Trial 12 is over</h2>\n\t\t\t\t\t<p>Press <span style=\"color: red\"><strong>any key</strong></span> to continue to the next trial</p>\n\t\t\t\t\t</div>\n\t\t\t\t","response":"d","trial_type":"html-keyboard-response","trial_index":53,"time_elapsed":416464,"internal_node_id":"0.0-3.0-3.11","prolific_id":"62897d2024f826ea90b7efa1","session_id":"643c1b23d282e80fc0992a25","study_id":"64370a36d30bfa807bc7e43c"},{"rt":7395,"response":{"prediction":"1999"},"trial_type":"survey-text","trial_index":54,"time_elapsed":423861,"internal_node_id":"0.0-3.0-0.12","prolific_id":"62897d2024f826ea90b7efa1","session_id":"643c1b23d282e80fc0992a25","study_id":"64370a36d30bfa807bc7e43c"},{"rt":10129,"response":{"prior knowledge":0,"curiosity":5},"accuracy":[],"trial_type":"survey","trial_index":55,"time_elapsed":433999,"internal_node_id":"0.0-3.0-1.12","prolific_id":"62897d2024f826ea90b7efa1","session_id":"643c1b23d282e80fc0992a25","study_id":"64370a36d30bfa807bc7e43c"},{"rt":null,"stimulus":"\n\t\t\t<div class=\"flip_card\">\n\t\t\t\t<div class=\"flip_card_inner\">\n\t\t\t\t\t<div class=\"flip_card_front\">\n\t\t\t\t\t\t<img src=img/1.png>\n\t\t\t\t\t</div>\n\t\t\t\t\t<div class=\"flip_card_back\">\n\t\t\t\t\t\t<h2>What year was the very first model of the iPhone released?</h2>\n\t\t\t\t\t\t<br>\n\t\t\t\t\t\t<p>Answer: <strong>2007</strong></p>\n\t\t\t\t\t</div>\n\t\t\t\t</div>\n\t\t\t</div>\n\t\t\t","response":null,"trial_type":"html-keyboard-response","trial_index":56,"time_elapsed":439000,"internal_node_id":"0.0-3.0-2.12","prolific_id":"62897d2024f826ea90b7efa1","session_id":"643c1b23d282e80fc0992a25","study_id":"64370a36d30bfa807bc7e43c"},{"rt":1464,"stimulus":"\n\t\t\t\t\t<div>\n\t\t\t\t\t<h2>Trial 13 is over</h2>\n\t\t\t\t\t<p>Press <span style=\"color: red\"><strong>any key</strong></span> to continue to the next trial</p>\n\t\t\t\t\t</div>\n\t\t\t\t","response":"d","trial_type":"html-keyboard-response","trial_index":57,"time_elapsed":440465,"internal_node_id":"0.0-3.0-3.12","prolific_id":"62897d2024f826ea90b7efa1","session_id":"643c1b23d282e80fc0992a25","study_id":"64370a36d30bfa807bc7e43c"},{"rt":7690,"response":{"prediction":"1885"},"trial_type":"survey-text","trial_index":58,"time_elapsed":448157,"internal_node_id":"0.0-3.0-0.13","prolific_id":"62897d2024f826ea90b7efa1","session_id":"643c1b23d282e80fc0992a25","study_id":"64370a36d30bfa807bc7e43c"},{"rt":5617,"response":{"prior knowledge":0,"curiosity":5},"accuracy":[],"trial_type":"survey","trial_index":59,"time_elapsed":453783,"internal_node_id":"0.0-3.0-1.13","prolific_id":"62897d2024f826ea90b7efa1","session_id":"643c1b23d282e80fc0992a25","study_id":"64370a36d30bfa807bc7e43c"},{"rt":null,"stimulus":"\n\t\t\t<div class=\"flip_card\">\n\t\t\t\t<div class=\"flip_card_inner\">\n\t\t\t\t\t<div class=\"flip_card_front\">\n\t\t\t\t\t\t<img src=img/8.png>\n\t\t\t\t\t</div>\n\t\t\t\t\t<div class=\"flip_card_back\">\n\t\t\t\t\t\t<h2>In what year was the Mexican artist Frida Kahlo born?</h2>\n\t\t\t\t\t\t<br>\n\t\t\t\t\t\t<p>Answer: <strong>1907</strong></p>\n\t\t\t\t\t</div>\n\t\t\t\t</div>\n\t\t\t</div>\n\t\t\t","response":null,"trial_type":"html-keyboard-response","trial_index":60,"time_elapsed":458784,"internal_node_id":"0.0-3.0-2.13","prolific_id":"62897d2024f826ea90b7efa1","session_id":"643c1b23d282e80fc0992a25","study_id":"64370a36d30bfa807bc7e43c"},{"rt":1740,"stimulus":"\n\t\t\t\t\t<div>\n\t\t\t\t\t<h2>Trial 14 is over</h2>\n\t\t\t\t\t<p>Press <span style=\"color: red\"><strong>any key</strong></span> to continue to the next trial</p>\n\t\t\t\t\t</div>\n\t\t\t\t","response":"d","trial_type":"html-keyboard-response","trial_index":61,"time_elapsed":460525,"internal_node_id":"0.0-3.0-3.13","prolific_id":"62897d2024f826ea90b7efa1","session_id":"643c1b23d282e80fc0992a25","study_id":"64370a36d30bfa807bc7e43c"},{"rt":6278,"response":{"prediction":"12"},"trial_type":"survey-text","trial_index":62,"time_elapsed":466805,"internal_node_id":"0.0-3.0-0.14","prolific_id":"62897d2024f826ea90b7efa1","session_id":"643c1b23d282e80fc0992a25","study_id":"64370a36d30bfa807bc7e43c"},{"rt":5544,"response":{"prior knowledge":0,"curiosity":5},"accuracy":[],"trial_type":"survey","trial_index":63,"time_elapsed":472359,"internal_node_id":"0.0-3.0-1.14","prolific_id":"62897d2024f826ea90b7efa1","session_id":"643c1b23d282e80fc0992a25","study_id":"64370a36d30bfa807bc7e43c"},{"rt":null,"stimulus":"\n\t\t\t<div class=\"flip_card\">\n\t\t\t\t<div class=\"flip_card_inner\">\n\t\t\t\t\t<div class=\"flip_card_front\">\n\t\t\t\t\t\t<img src=img/14.png>\n\t\t\t\t\t</div>\n\t\t\t\t\t<div class=\"flip_card_back\">\n\t\t\t\t\t\t<h2>A bar mitzvah is traditionally celebrated when Jewish males turn what age?</h2>\n\t\t\t\t\t\t<br>\n\t\t\t\t\t\t<p>Answer: <strong>13</strong></p>\n\t\t\t\t\t</div>\n\t\t\t\t</div>\n\t\t\t</div>\n\t\t\t","response":null,"trial_type":"html-keyboard-response","trial_index":64,"time_elapsed":477366,"internal_node_id":"0.0-3.0-2.14","prolific_id":"62897d2024f826ea90b7efa1","session_id":"643c1b23d282e80fc0992a25","study_id":"64370a36d30bfa807bc7e43c"},{"rt":3570,"stimulus":"\n\t\t\t\t\t<div>\n\t\t\t\t\t<h2>Trial 15 is over</h2>\n\t\t\t\t\t<p>Press <span style=\"color: red\"><strong>any key</strong></span> to continue to the next trial</p>\n\t\t\t\t\t</div>\n\t\t\t\t","response":"d","trial_type":"html-keyboard-response","trial_index":65,"time_elapsed":480936,"internal_node_id":"0.0-3.0-3.14","prolific_id":"62897d2024f826ea90b7efa1","session_id":"643c1b23d282e80fc0992a25","study_id":"64370a36d30bfa807bc7e43c"},{"rt":9393,"response":{"prediction":"35"},"trial_type":"survey-text","trial_index":66,"time_elapsed":490334,"internal_node_id":"0.0-3.0-0.15","prolific_id":"62897d2024f826ea90b7efa1","session_id":"643c1b23d282e80fc0992a25","study_id":"64370a36d30bfa807bc7e43c"},{"rt":5936,"response":{"prior knowledge":0,"curiosity":5},"accuracy":[],"trial_type":"survey","trial_index":67,"time_elapsed":496279,"internal_node_id":"0.0-3.0-1.15","prolific_id":"62897d2024f826ea90b7efa1","session_id":"643c1b23d282e80fc0992a25","study_id":"64370a36d30bfa807bc7e43c"},{"rt":null,"stimulus":"\n\t\t\t<div class=\"flip_card\">\n\t\t\t\t<div class=\"flip_card_inner\">\n\t\t\t\t\t<div class=\"flip_card_front\">\n\t\t\t\t\t\t<img src=img/15.png>\n\t\t\t\t\t</div>\n\t\t\t\t\t<div class=\"flip_card_back\">\n\t\t\t\t\t\t<h2>How many floors are in the Burj Khalifa, the tallest building in the world?</h2>\n\t\t\t\t\t\t<br>\n\t\t\t\t\t\t<p>Answer: <strong>163</strong></p>\n\t\t\t\t\t</div>\n\t\t\t\t</div>\n\t\t\t</div>\n\t\t\t","response":null,"trial_type":"html-keyboard-response","trial_index":68,"time_elapsed":501282,"internal_node_id":"0.0-3.0-2.15","prolific_id":"62897d2024f826ea90b7efa1","session_id":"643c1b23d282e80fc0992a25","study_id":"64370a36d30bfa807bc7e43c"},{"rt":1732,"stimulus":"\n\t\t\t\t\t<div>\n\t\t\t\t\t<h2>Trial 16 is over</h2>\n\t\t\t\t\t<p>Press <span style=\"color: red\"><strong>any key</strong></span> to continue to the next trial</p>\n\t\t\t\t\t</div>\n\t\t\t\t","response":"f","trial_type":"html-keyboard-response","trial_index":69,"time_elapsed":503015,"internal_node_id":"0.0-3.0-3.15","prolific_id":"62897d2024f826ea90b7efa1","session_id":"643c1b23d282e80fc0992a25","study_id":"64370a36d30bfa807bc7e43c"},{"rt":6844,"response":{"prediction":"12"},"trial_type":"survey-text","trial_index":70,"time_elapsed":509862,"internal_node_id":"0.0-3.0-0.16","prolific_id":"62897d2024f826ea90b7efa1","session_id":"643c1b23d282e80fc0992a25","study_id":"64370a36d30bfa807bc7e43c"},{"rt":5361,"response":{"prior knowledge":0,"curiosity":5},"accuracy":[],"trial_type":"survey","trial_index":71,"time_elapsed":515232,"internal_node_id":"0.0-3.0-1.16","prolific_id":"62897d2024f826ea90b7efa1","session_id":"643c1b23d282e80fc0992a25","study_id":"64370a36d30bfa807bc7e43c"},{"rt":null,"stimulus":"\n\t\t\t<div class=\"flip_card\">\n\t\t\t\t<div class=\"flip_card_inner\">\n\t\t\t\t\t<div class=\"flip_card_front\">\n\t\t\t\t\t\t<img src=img/20.png>\n\t\t\t\t\t</div>\n\t\t\t\t\t<div class=\"flip_card_back\">\n\t\t\t\t\t\t<h2>How many different animals (real or imaginary) are represented in the Chinese calendar?</h2>\n\t\t\t\t\t\t<br>\n\t\t\t\t\t\t<p>Answer: <strong>12</strong></p>\n\t\t\t\t\t</div>\n\t\t\t\t</div>\n\t\t\t</div>\n\t\t\t","response":null,"trial_type":"html-keyboard-response","trial_index":72,"time_elapsed":520233,"internal_node_id":"0.0-3.0-2.16","prolific_id":"62897d2024f826ea90b7efa1","session_id":"643c1b23d282e80fc0992a25","study_id":"64370a36d30bfa807bc7e43c"},{"rt":1591,"stimulus":"\n\t\t\t\t\t<div>\n\t\t\t\t\t<h2>Trial 17 is over</h2>\n\t\t\t\t\t<p>Press <span style=\"color: red\"><strong>any key</strong></span> to continue to the next trial</p>\n\t\t\t\t\t</div>\n\t\t\t\t","response":"f","trial_type":"html-keyboard-response","trial_index":73,"time_elapsed":521825,"internal_node_id":"0.0-3.0-3.16","prolific_id":"62897d2024f826ea90b7efa1","session_id":"643c1b23d282e80fc0992a25","study_id":"64370a36d30bfa807bc7e43c"},{"rt":7228,"response":{"prediction":"2"},"trial_type":"survey-text","trial_index":74,"time_elapsed":529054,"internal_node_id":"0.0-3.0-0.17","prolific_id":"62897d2024f826ea90b7efa1","session_id":"643c1b23d282e80fc0992a25","study_id":"64370a36d30bfa807bc7e43c"},{"rt":4760,"response":{"prior knowledge":0,"curiosity":5},"accuracy":[],"trial_type":"survey","trial_index":75,"time_elapsed":533824,"internal_node_id":"0.0-3.0-1.17","prolific_id":"62897d2024f826ea90b7efa1","session_id":"643c1b23d282e80fc0992a25","study_id":"64370a36d30bfa807bc7e43c"},{"rt":null,"stimulus":"\n\t\t\t<div class=\"flip_card\">\n\t\t\t\t<div class=\"flip_card_inner\">\n\t\t\t\t\t<div class=\"flip_card_front\">\n\t\t\t\t\t\t<img src=img/11.png>\n\t\t\t\t\t</div>\n\t\t\t\t\t<div class=\"flip_card_back\">\n\t\t\t\t\t\t<h2>How many countries have territory in the Arctic Circle?</h2>\n\t\t\t\t\t\t<br>\n\t\t\t\t\t\t<p>Answer: <strong>8</strong></p>\n\t\t\t\t\t</div>\n\t\t\t\t</div>\n\t\t\t</div>\n\t\t\t","response":null,"trial_type":"html-keyboard-response","trial_index":76,"time_elapsed":538826,"internal_node_id":"0.0-3.0-2.17","prolific_id":"62897d2024f826ea90b7efa1","session_id":"643c1b23d282e80fc0992a25","study_id":"64370a36d30bfa807bc7e43c"},{"rt":978,"stimulus":"\n\t\t\t\t\t<div>\n\t\t\t\t\t<h2>Trial 18 is over</h2>\n\t\t\t\t\t<p>Press <span style=\"color: red\"><strong>any key</strong></span> to continue to the next trial</p>\n\t\t\t\t\t</div>\n\t\t\t\t","response":"f","trial_type":"html-keyboard-response","trial_index":77,"time_elapsed":539805,"internal_node_id":"0.0-3.0-3.17","prolific_id":"62897d2024f826ea90b7efa1","session_id":"643c1b23d282e80fc0992a25","study_id":"64370a36d30bfa807bc7e43c"},{"rt":5807,"response":{"prediction":"18"},"trial_type":"survey-text","trial_index":78,"time_elapsed":545614,"internal_node_id":"0.0-3.0-0.18","prolific_id":"62897d2024f826ea90b7efa1","session_id":"643c1b23d282e80fc0992a25","study_id":"64370a36d30bfa807bc7e43c"},{"rt":3704,"response":{"prior knowledge":0,"curiosity":5},"accuracy":[],"trial_type":"survey","trial_index":79,"time_elapsed":549327,"internal_node_id":"0.0-3.0-1.18","prolific_id":"62897d2024f826ea90b7efa1","session_id":"643c1b23d282e80fc0992a25","study_id":"64370a36d30bfa807bc7e43c"},{"rt":null,"stimulus":"\n\t\t\t<div class=\"flip_card\">\n\t\t\t\t<div class=\"flip_card_inner\">\n\t\t\t\t\t<div class=\"flip_card_front\">\n\t\t\t\t\t\t<img src=img/12.png>\n\t\t\t\t\t</div>\n\t\t\t\t\t<div class=\"flip_card_back\">\n\t\t\t\t\t\t<h2>How many countries are in Africa?</h2>\n\t\t\t\t\t\t<br>\n\t\t\t\t\t\t<p>Answer: <strong>54</strong></p>\n\t\t\t\t\t</div>\n\t\t\t\t</div>\n\t\t\t</div>\n\t\t\t","response":null,"trial_type":"html-keyboard-response","trial_index":80,"time_elapsed":554328,"internal_node_id":"0.0-3.0-2.18","prolific_id":"62897d2024f826ea90b7efa1","session_id":"643c1b23d282e80fc0992a25","study_id":"64370a36d30bfa807bc7e43c"},{"rt":1226,"stimulus":"\n\t\t\t\t\t<div>\n\t\t\t\t\t<h2>Trial 19 is over</h2>\n\t\t\t\t\t<p>Press <span style=\"color: red\"><strong>any key</strong></span> to continue to the next trial</p>\n\t\t\t\t\t</div>\n\t\t\t\t","response":"e","trial_type":"html-keyboard-response","trial_index":81,"time_elapsed":555555,"internal_node_id":"0.0-3.0-3.18","prolific_id":"62897d2024f826ea90b7efa1","session_id":"643c1b23d282e80fc0992a25","study_id":"64370a36d30bfa807bc7e43c"},{"rt":5137,"response":{"prediction":"16"},"trial_type":"survey-text","trial_index":82,"time_elapsed":560694,"internal_node_id":"0.0-3.0-0.19","prolific_id":"62897d2024f826ea90b7efa1","session_id":"643c1b23d282e80fc0992a25","study_id":"64370a36d30bfa807bc7e43c"},{"rt":4239,"response":{"prior knowledge":0,"curiosity":5},"accuracy":[],"trial_type":"survey","trial_index":83,"time_elapsed":564944,"internal_node_id":"0.0-3.0-1.19","prolific_id":"62897d2024f826ea90b7efa1","session_id":"643c1b23d282e80fc0992a25","study_id":"64370a36d30bfa807bc7e43c"},{"rt":null,"stimulus":"\n\t\t\t<div class=\"flip_card\">\n\t\t\t\t<div class=\"flip_card_inner\">\n\t\t\t\t\t<div class=\"flip_card_front\">\n\t\t\t\t\t\t<img src=img/9.png>\n\t\t\t\t\t</div>\n\t\t\t\t\t<div class=\"flip_card_back\">\n\t\t\t\t\t\t<h2>How many books has Stephen King published?</h2>\n\t\t\t\t\t\t<br>\n\t\t\t\t\t\t<p>Answer: <strong>65</strong></p>\n\t\t\t\t\t</div>\n\t\t\t\t</div>\n\t\t\t</div>\n\t\t\t","response":null,"trial_type":"html-keyboard-response","trial_index":84,"time_elapsed":569945,"internal_node_id":"0.0-3.0-2.19","prolific_id":"62897d2024f826ea90b7efa1","session_id":"643c1b23d282e80fc0992a25","study_id":"64370a36d30bfa807bc7e43c"},{"rt":730,"stimulus":"\n\t\t\t\t\t<div>\n\t\t\t\t\t<h2>Trial 20 is over</h2>\n\t\t\t\t\t<p>Press <span style=\"color: red\"><strong>any key</strong></span> to continue to the next trial</p>\n\t\t\t\t\t</div>\n\t\t\t\t","response":"d","trial_type":"html-keyboard-response","trial_index":85,"time_elapsed":570675,"internal_node_id":"0.0-3.0-3.19","prolific_id":"62897d2024f826ea90b7efa1","session_id":"643c1b23d282e80fc0992a25","study_id":"64370a36d30bfa807bc7e43c"},{"rt":7945,"response":{"prediction":"1905"},"trial_type":"survey-text","trial_index":86,"time_elapsed":578622,"internal_node_id":"0.0-3.0-0.20","prolific_id":"62897d2024f826ea90b7efa1","session_id":"643c1b23d282e80fc0992a25","study_id":"64370a36d30bfa807bc7e43c"},{"rt":3552,"response":{"prior knowledge":0,"curiosity":5},"accuracy":[],"trial_type":"survey","trial_index":87,"time_elapsed":582182,"internal_node_id":"0.0-3.0-1.20","prolific_id":"62897d2024f826ea90b7efa1","session_id":"643c1b23d282e80fc0992a25","study_id":"64370a36d30bfa807bc7e43c"},{"rt":null,"stimulus":"\n\t\t\t<div class=\"flip_card\">\n\t\t\t\t<div class=\"flip_card_inner\">\n\t\t\t\t\t<div class=\"flip_card_front\">\n\t\t\t\t\t\t<img src=img/29.png>\n\t\t\t\t\t</div>\n\t\t\t\t\t<div class=\"flip_card_back\">\n\t\t\t\t\t\t<h2>In what year was the first Nobel Prize awarded?</h2>\n\t\t\t\t\t\t<br>\n\t\t\t\t\t\t<p>Answer: <strong>1901</strong></p>\n\t\t\t\t\t</div>\n\t\t\t\t</div>\n\t\t\t</div>\n\t\t\t","response":null,"trial_type":"html-keyboard-response","trial_index":88,"time_elapsed":587195,"internal_node_id":"0.0-3.0-2.20","prolific_id":"62897d2024f826ea90b7efa1","session_id":"643c1b23d282e80fc0992a25","study_id":"64370a36d30bfa807bc7e43c"},{"rt":1560,"stimulus":"\n\t\t\t\t\t<div>\n\t\t\t\t\t<h2>Trial 21 is over</h2>\n\t\t\t\t\t<p>Press <span style=\"color: red\"><strong>any key</strong></span> to continue to the next trial</p>\n\t\t\t\t\t</div>\n\t\t\t\t","response":"d","trial_type":"html-keyboard-response","trial_index":89,"time_elapsed":588756,"internal_node_id":"0.0-3.0-3.20","prolific_id":"62897d2024f826ea90b7efa1","session_id":"643c1b23d282e80fc0992a25","study_id":"64370a36d30bfa807bc7e43c"},{"rt":8870,"response":{"prediction":"1"},"trial_type":"survey-text","trial_index":90,"time_elapsed":597629,"internal_node_id":"0.0-3.0-0.21","prolific_id":"62897d2024f826ea90b7efa1","session_id":"643c1b23d282e80fc0992a25","study_id":"64370a36d30bfa807bc7e43c"},{"rt":3993,"response":{"prior knowledge":0,"curiosity":5},"accuracy":[],"trial_type":"survey","trial_index":91,"time_elapsed":601632,"internal_node_id":"0.0-3.0-1.21","prolific_id":"62897d2024f826ea90b7efa1","session_id":"643c1b23d282e80fc0992a25","study_id":"64370a36d30bfa807bc7e43c"},{"rt":null,"stimulus":"\n\t\t\t<div class=\"flip_card\">\n\t\t\t\t<div class=\"flip_card_inner\">\n\t\t\t\t\t<div class=\"flip_card_front\">\n\t\t\t\t\t\t<img src=img/23.png>\n\t\t\t\t\t</div>\n\t\t\t\t\t<div class=\"flip_card_back\">\n\t\t\t\t\t\t<h2>How many countries in Africa have French as the official language?</h2>\n\t\t\t\t\t\t<br>\n\t\t\t\t\t\t<p>Answer: <strong>21</strong></p>\n\t\t\t\t\t</div>\n\t\t\t\t</div>\n\t\t\t</div>\n\t\t\t","response":null,"trial_type":"html-keyboard-response","trial_index":92,"time_elapsed":606636,"internal_node_id":"0.0-3.0-2.21","prolific_id":"62897d2024f826ea90b7efa1","session_id":"643c1b23d282e80fc0992a25","study_id":"64370a36d30bfa807bc7e43c"},{"rt":831,"stimulus":"\n\t\t\t\t\t<div>\n\t\t\t\t\t<h2>Trial 22 is over</h2>\n\t\t\t\t\t<p>Press <span style=\"color: red\"><strong>any key</strong></span> to continue to the next trial</p>\n\t\t\t\t\t</div>\n\t\t\t\t","response":"d","trial_type":"html-keyboard-response","trial_index":93,"time_elapsed":607468,"internal_node_id":"0.0-3.0-3.21","prolific_id":"62897d2024f826ea90b7efa1","session_id":"643c1b23d282e80fc0992a25","study_id":"64370a36d30bfa807bc7e43c"},{"rt":7200,"response":{"prediction":"3000"},"trial_type":"survey-text","trial_index":94,"time_elapsed":614670,"internal_node_id":"0.0-3.0-0.22","prolific_id":"62897d2024f826ea90b7efa1","session_id":"643c1b23d282e80fc0992a25","study_id":"64370a36d30bfa807bc7e43c"},{"rt":4375,"response":{"prior knowledge":0,"curiosity":5},"accuracy":[],"trial_type":"survey","trial_index":95,"time_elapsed":619055,"internal_node_id":"0.0-3.0-1.22","prolific_id":"62897d2024f826ea90b7efa1","session_id":"643c1b23d282e80fc0992a25","study_id":"64370a36d30bfa807bc7e43c"},{"rt":null,"stimulus":"\n\t\t\t<div class=\"flip_card\">\n\t\t\t\t<div class=\"flip_card_inner\">\n\t\t\t\t\t<div class=\"flip_card_front\">\n\t\t\t\t\t\t<img src=img/27.png>\n\t\t\t\t\t</div>\n\t\t\t\t\t<div class=\"flip_card_back\">\n\t\t\t\t\t\t<h2>How long is the Great Wall of China (in miles)?</h2>\n\t\t\t\t\t\t<br>\n\t\t\t\t\t\t<p>Answer: <strong>13171</strong></p>\n\t\t\t\t\t</div>\n\t\t\t\t</div>\n\t\t\t</div>\n\t\t\t","response":null,"trial_type":"html-keyboard-response","trial_index":96,"time_elapsed":624057,"internal_node_id":"0.0-3.0-2.22","prolific_id":"62897d2024f826ea90b7efa1","session_id":"643c1b23d282e80fc0992a25","study_id":"64370a36d30bfa807bc7e43c"},{"rt":1597,"stimulus":"\n\t\t\t\t\t<div>\n\t\t\t\t\t<h2>Trial 23 is over</h2>\n\t\t\t\t\t<p>Press <span style=\"color: red\"><strong>any key</strong></span> to continue to the next trial</p>\n\t\t\t\t\t</div>\n\t\t\t\t","response":"f","trial_type":"html-keyboard-response","trial_index":97,"time_elapsed":625654,"internal_node_id":"0.0-3.0-3.22","prolific_id":"62897d2024f826ea90b7efa1","session_id":"643c1b23d282e80fc0992a25","study_id":"64370a36d30bfa807bc7e43c"},{"rt":6589,"response":{"prediction":"88"},"trial_type":"survey-text","trial_index":98,"time_elapsed":632245,"internal_node_id":"0.0-3.0-0.23","prolific_id":"62897d2024f826ea90b7efa1","session_id":"643c1b23d282e80fc0992a25","study_id":"64370a36d30bfa807bc7e43c"},{"rt":4095,"response":{"prior knowledge":0,"curiosity":5},"accuracy":[],"trial_type":"survey","trial_index":99,"time_elapsed":636351,"internal_node_id":"0.0-3.0-1.23","prolific_id":"62897d2024f826ea90b7efa1","session_id":"643c1b23d282e80fc0992a25","study_id":"64370a36d30bfa807bc7e43c"},{"rt":null,"stimulus":"\n\t\t\t<div class=\"flip_card\">\n\t\t\t\t<div class=\"flip_card_inner\">\n\t\t\t\t\t<div class=\"flip_card_front\">\n\t\t\t\t\t\t<img src=img/30.png>\n\t\t\t\t\t</div>\n\t\t\t\t\t<div class=\"flip_card_back\">\n\t\t\t\t\t\t<h2>How many bones is a human baby born with?</h2>\n\t\t\t\t\t\t<br>\n\t\t\t\t\t\t<p>Answer: <strong>300</strong></p>\n\t\t\t\t\t</div>\n\t\t\t\t</div>\n\t\t\t</div>\n\t\t\t","response":null,"trial_type":"html-keyboard-response","trial_index":100,"time_elapsed":641360,"internal_node_id":"0.0-3.0-2.23","prolific_id":"62897d2024f826ea90b7efa1","session_id":"643c1b23d282e80fc0992a25","study_id":"64370a36d30bfa807bc7e43c"},{"rt":640,"stimulus":"\n\t\t\t\t\t<div>\n\t\t\t\t\t<h2>Trial 24 is over</h2>\n\t\t\t\t\t<p>Press <span style=\"color: red\"><strong>any key</strong></span> to continue to the next trial</p>\n\t\t\t\t\t</div>\n\t\t\t\t","response":"d","trial_type":"html-keyboard-response","trial_index":101,"time_elapsed":642000,"internal_node_id":"0.0-3.0-3.23","prolific_id":"62897d2024f826ea90b7efa1","session_id":"643c1b23d282e80fc0992a25","study_id":"64370a36d30bfa807bc7e43c"},{"rt":9780,"response":{"prediction":"1950"},"trial_type":"survey-text","trial_index":102,"time_elapsed":651782,"internal_node_id":"0.0-3.0-0.24","prolific_id":"62897d2024f826ea90b7efa1","session_id":"643c1b23d282e80fc0992a25","study_id":"64370a36d30bfa807bc7e43c"},{"rt":4391,"response":{"prior knowledge":0,"curiosity":5},"accuracy":[],"trial_type":"survey","trial_index":103,"time_elapsed":656183,"internal_node_id":"0.0-3.0-1.24","prolific_id":"62897d2024f826ea90b7efa1","session_id":"643c1b23d282e80fc0992a25","study_id":"64370a36d30bfa807bc7e43c"},{"rt":null,"stimulus":"\n\t\t\t<div class=\"flip_card\">\n\t\t\t\t<div class=\"flip_card_inner\">\n\t\t\t\t\t<div class=\"flip_card_front\">\n\t\t\t\t\t\t<img src=img/10.png>\n\t\t\t\t\t</div>\n\t\t\t\t\t<div class=\"flip_card_back\">\n\t\t\t\t\t\t<h2>In what year did the first Modern Olympic Games take place?</h2>\n\t\t\t\t\t\t<br>\n\t\t\t\t\t\t<p>Answer: <strong>1896</strong></p>\n\t\t\t\t\t</div>\n\t\t\t\t</div>\n\t\t\t</div>\n\t\t\t","response":null,"trial_type":"html-keyboard-response","trial_index":104,"time_elapsed":661184,"internal_node_id":"0.0-3.0-2.24","prolific_id":"62897d2024f826ea90b7efa1","session_id":"643c1b23d282e80fc0992a25","study_id":"64370a36d30bfa807bc7e43c"},{"rt":1038,"stimulus":"\n\t\t\t\t\t<div>\n\t\t\t\t\t<h2>Trial 25 is over</h2>\n\t\t\t\t\t<p>Press <span style=\"color: red\"><strong>any key</strong></span> to continue to the next trial</p>\n\t\t\t\t\t</div>\n\t\t\t\t","response":"r","trial_type":"html-keyboard-response","trial_index":105,"time_elapsed":662223,"internal_node_id":"0.0-3.0-3.24","prolific_id":"62897d2024f826ea90b7efa1","session_id":"643c1b23d282e80fc0992a25","study_id":"64370a36d30bfa807bc7e43c"},{"rt":6404,"response":{"prediction":"2"},"trial_type":"survey-text","trial_index":106,"time_elapsed":668630,"internal_node_id":"0.0-3.0-0.25","prolific_id":"62897d2024f826ea90b7efa1","session_id":"643c1b23d282e80fc0992a25","study_id":"64370a36d30bfa807bc7e43c"},{"rt":5729,"response":{"prior knowledge":1,"curiosity":5},"accuracy":[],"trial_type":"survey","trial_index":107,"time_elapsed":674368,"internal_node_id":"0.0-3.0-1.25","prolific_id":"62897d2024f826ea90b7efa1","session_id":"643c1b23d282e80fc0992a25","study_id":"64370a36d30bfa807bc7e43c"},{"rt":null,"stimulus":"\n\t\t\t<div class=\"flip_card\">\n\t\t\t\t<div class=\"flip_card_inner\">\n\t\t\t\t\t<div class=\"flip_card_front\">\n\t\t\t\t\t\t<img src=img/4.png>\n\t\t\t\t\t</div>\n\t\t\t\t\t<div class=\"flip_card_back\">\n\t\t\t\t\t\t<h2>How many double stitches does a baseball have?</h2>\n\t\t\t\t\t\t<br>\n\t\t\t\t\t\t<p>Answer: <strong>108</strong></p>\n\t\t\t\t\t</div>\n\t\t\t\t</div>\n\t\t\t</div>\n\t\t\t","response":null,"trial_type":"html-keyboard-response","trial_index":108,"time_elapsed":679369,"internal_node_id":"0.0-3.0-2.25","prolific_id":"62897d2024f826ea90b7efa1","session_id":"643c1b23d282e80fc0992a25","study_id":"64370a36d30bfa807bc7e43c"},{"rt":1616,"stimulus":"\n\t\t\t\t\t<div>\n\t\t\t\t\t<h2>Trial 26 is over</h2>\n\t\t\t\t\t<p>Press <span style=\"color: red\"><strong>any key</strong></span> to continue to the next trial</p>\n\t\t\t\t\t</div>\n\t\t\t\t","response":"g","trial_type":"html-keyboard-response","trial_index":109,"time_elapsed":680985,"internal_node_id":"0.0-3.0-3.25","prolific_id":"62897d2024f826ea90b7efa1","session_id":"643c1b23d282e80fc0992a25","study_id":"64370a36d30bfa807bc7e43c"},{"rt":6076,"response":{"prediction":"14"},"trial_type":"survey-text","trial_index":110,"time_elapsed":687062,"internal_node_id":"0.0-3.0-0.26","prolific_id":"62897d2024f826ea90b7efa1","session_id":"643c1b23d282e80fc0992a25","study_id":"64370a36d30bfa807bc7e43c"},{"rt":3513,"response":{"prior knowledge":0,"curiosity":5},"accuracy":[],"trial_type":"survey","trial_index":111,"time_elapsed":690583,"internal_node_id":"0.0-3.0-1.26","prolific_id":"62897d2024f826ea90b7efa1","session_id":"643c1b23d282e80fc0992a25","study_id":"64370a36d30bfa807bc7e43c"},{"rt":null,"stimulus":"\n\t\t\t<div class=\"flip_card\">\n\t\t\t\t<div class=\"flip_card_inner\">\n\t\t\t\t\t<div class=\"flip_card_front\">\n\t\t\t\t\t\t<img src=img/17.png>\n\t\t\t\t\t</div>\n\t\t\t\t\t<div class=\"flip_card_back\">\n\t\t\t\t\t\t<h2>How old was King Tut when he died?</h2>\n\t\t\t\t\t\t<br>\n\t\t\t\t\t\t<p>Answer: <strong>19</strong></p>\n\t\t\t\t\t</div>\n\t\t\t\t</div>\n\t\t\t</div>\n\t\t\t","response":null,"trial_type":"html-keyboard-response","trial_index":112,"time_elapsed":695596,"internal_node_id":"0.0-3.0-2.26","prolific_id":"62897d2024f826ea90b7efa1","session_id":"643c1b23d282e80fc0992a25","study_id":"64370a36d30bfa807bc7e43c"},{"rt":1650,"stimulus":"\n\t\t\t\t\t<div>\n\t\t\t\t\t<h2>Trial 27 is over</h2>\n\t\t\t\t\t<p>Press <span style=\"color: red\"><strong>any key</strong></span> to continue to the next trial</p>\n\t\t\t\t\t</div>\n\t\t\t\t","response":"g","trial_type":"html-keyboard-response","trial_index":113,"time_elapsed":697246,"internal_node_id":"0.0-3.0-3.26","prolific_id":"62897d2024f826ea90b7efa1","session_id":"643c1b23d282e80fc0992a25","study_id":"64370a36d30bfa807bc7e43c"},{"rt":7280,"response":{"prediction":"12"},"trial_type":"survey-text","trial_index":114,"time_elapsed":704527,"internal_node_id":"0.0-3.0-0.27","prolific_id":"62897d2024f826ea90b7efa1","session_id":"643c1b23d282e80fc0992a25","study_id":"64370a36d30bfa807bc7e43c"},{"rt":5488,"response":{"prior knowledge":0,"curiosity":5},"accuracy":[],"trial_type":"survey","trial_index":115,"time_elapsed":710023,"internal_node_id":"0.0-3.0-1.27","prolific_id":"62897d2024f826ea90b7efa1","session_id":"643c1b23d282e80fc0992a25","study_id":"64370a36d30bfa807bc7e43c"},{"rt":null,"stimulus":"\n\t\t\t<div class=\"flip_card\">\n\t\t\t\t<div class=\"flip_card_inner\">\n\t\t\t\t\t<div class=\"flip_card_front\">\n\t\t\t\t\t\t<img src=img/7.png>\n\t\t\t\t\t</div>\n\t\t\t\t\t<div class=\"flip_card_back\">\n\t\t\t\t\t\t<h2>How many lines are in a sonnet?</h2>\n\t\t\t\t\t\t<br>\n\t\t\t\t\t\t<p>Answer: <strong>14</strong></p>\n\t\t\t\t\t</div>\n\t\t\t\t</div>\n\t\t\t</div>\n\t\t\t","response":null,"trial_type":"html-keyboard-response","trial_index":116,"time_elapsed":715025,"internal_node_id":"0.0-3.0-2.27","prolific_id":"62897d2024f826ea90b7efa1","session_id":"643c1b23d282e80fc0992a25","study_id":"64370a36d30bfa807bc7e43c"},{"rt":665,"stimulus":"\n\t\t\t\t\t<div>\n\t\t\t\t\t<h2>Trial 28 is over</h2>\n\t\t\t\t\t<p>Press <span style=\"color: red\"><strong>any key</strong></span> to continue to the next trial</p>\n\t\t\t\t\t</div>\n\t\t\t\t","response":"f","trial_type":"html-keyboard-response","trial_index":117,"time_elapsed":715690,"internal_node_id":"0.0-3.0-3.27","prolific_id":"62897d2024f826ea90b7efa1","session_id":"643c1b23d282e80fc0992a25","study_id":"64370a36d30bfa807bc7e43c"},{"rt":4810,"response":{"prediction":"54"},"trial_type":"survey-text","trial_index":118,"time_elapsed":720502,"internal_node_id":"0.0-3.0-0.28","prolific_id":"62897d2024f826ea90b7efa1","session_id":"643c1b23d282e80fc0992a25","study_id":"64370a36d30bfa807bc7e43c"},{"rt":5040,"response":{"prior knowledge":0,"curiosity":5},"accuracy":[],"trial_type":"survey","trial_index":119,"time_elapsed":725551,"internal_node_id":"0.0-3.0-1.28","prolific_id":"62897d2024f826ea90b7efa1","session_id":"643c1b23d282e80fc0992a25","study_id":"64370a36d30bfa807bc7e43c"},{"rt":null,"stimulus":"\n\t\t\t<div class=\"flip_card\">\n\t\t\t\t<div class=\"flip_card_inner\">\n\t\t\t\t\t<div class=\"flip_card_front\">\n\t\t\t\t\t\t<img src=img/3.png>\n\t\t\t\t\t</div>\n\t\t\t\t\t<div class=\"flip_card_back\">\n\t\t\t\t\t\t<h2>How many books are in the Catholic Bible?</h2>\n\t\t\t\t\t\t<br>\n\t\t\t\t\t\t<p>Answer: <strong>73</strong></p>\n\t\t\t\t\t</div>\n\t\t\t\t</div>\n\t\t\t</div>\n\t\t\t","response":null,"trial_type":"html-keyboard-response","trial_index":120,"time_elapsed":730563,"internal_node_id":"0.0-3.0-2.28","prolific_id":"62897d2024f826ea90b7efa1","session_id":"643c1b23d282e80fc0992a25","study_id":"64370a36d30bfa807bc7e43c"},{"rt":662,"stimulus":"\n\t\t\t\t\t<div>\n\t\t\t\t\t<h2>Trial 29 is over</h2>\n\t\t\t\t\t<p>Press <span style=\"color: red\"><strong>any key</strong></span> to continue to the next trial</p>\n\t\t\t\t\t</div>\n\t\t\t\t","response":"d","trial_type":"html-keyboard-response","trial_index":121,"time_elapsed":731225,"internal_node_id":"0.0-3.0-3.28","prolific_id":"62897d2024f826ea90b7efa1","session_id":"643c1b23d282e80fc0992a25","study_id":"64370a36d30bfa807bc7e43c"},{"rt":20636,"response":{"prediction":"1960"},"trial_type":"survey-text","trial_index":122,"time_elapsed":751862,"internal_node_id":"0.0-3.0-0.29","prolific_id":"62897d2024f826ea90b7efa1","session_id":"643c1b23d282e80fc0992a25","study_id":"64370a36d30bfa807bc7e43c"},{"rt":3848,"response":{"prior knowledge":0,"curiosity":5},"accuracy":[],"trial_type":"survey","trial_index":123,"time_elapsed":755720,"internal_node_id":"0.0-3.0-1.29","prolific_id":"62897d2024f826ea90b7efa1","session_id":"643c1b23d282e80fc0992a25","study_id":"64370a36d30bfa807bc7e43c"},{"rt":null,"stimulus":"\n\t\t\t<div class=\"flip_card\">\n\t\t\t\t<div class=\"flip_card_inner\">\n\t\t\t\t\t<div class=\"flip_card_front\">\n\t\t\t\t\t\t<img src=img/6.png>\n\t\t\t\t\t</div>\n\t\t\t\t\t<div class=\"flip_card_back\">\n\t\t\t\t\t\t<h2>What year did the Berlin Wall fall?</h2>\n\t\t\t\t\t\t<br>\n\t\t\t\t\t\t<p>Answer: <strong>1989</strong></p>\n\t\t\t\t\t</div>\n\t\t\t\t</div>\n\t\t\t</div>\n\t\t\t","response":null,"trial_type":"html-keyboard-response","trial_index":124,"time_elapsed":760727,"internal_node_id":"0.0-3.0-2.29","prolific_id":"62897d2024f826ea90b7efa1","session_id":"643c1b23d282e80fc0992a25","study_id":"64370a36d30bfa807bc7e43c"},{"rt":1780,"stimulus":"\n\t\t\t\t\t<div>\n\t\t\t\t\t<h2>Trial 30 is over</h2>\n\t\t\t\t\t<p>Press <span style=\"color: red\"><strong>any key</strong></span> to continue to the next trial</p>\n\t\t\t\t\t</div>\n\t\t\t\t","response":"f","trial_type":"html-keyboard-response","trial_index":125,"time_elapsed":762507,"internal_node_id":"0.0-3.0-3.29","prolific_id":"62897d2024f826ea90b7efa1","session_id":"643c1b23d282e80fc0992a25","study_id":"64370a36d30bfa807bc7e43c"},{"rt":null,"stimulus":"\n\t\t\t<h2>Good job! You've finished the 30 trials:p</h2>\n\t\t\t<p>In the next session, you will see two cards on the screen in each trial.</p>\n\t\t\t<p>On one card is a pattern that you have seen before in the experiment,\n\t\t\t\tand on the other card is one you have not seen.</p><br>\n\t\t\t<p>Your task is to choose the one you think you <em>have</em> seen before for every trial.</p>\n\t\t\t<p>Press '<span style=\"color: red;\"><strong>F</strong></span>' to choose the card on the left,\n\t\t\t\tand '<span style=\"color: red;\"><strong>J</strong></span>' to choose the card on the right.</p>\n\t\t\t<p>Have fun!</p>\n\t\t\t<br>\n\t\t\t<p>The trials will begin in 30 seconds</p>\n\t\t\t","response":null,"trial_type":"html-keyboard-response","trial_index":126,"time_elapsed":792518,"internal_node_id":"0.0-4.0","prolific_id":"62897d2024f826ea90b7efa1","session_id":"643c1b23d282e80fc0992a25","study_id":"64370a36d30bfa807bc7e43c"},{"rt":3828,"stimulus":"\n\t\t\t\t\t\t<div class=\"two_card_container\">\n\t\t\t\t\t\t<div class=\"card_container\">\n\t\t\t\t\t\t<img src=img/23.png>\n\t\t\t\t\t\t</div>\n\n\t\t\t\t\t\t<div class=\"card_container\">\n\t\t\t\t\t\t<img src=img/36.png>\n\t\t\t\t\t\t</div>","response":"f","task":"response","correct_response":"f","trial_type":"html-keyboard-response","trial_index":127,"time_elapsed":796348,"internal_node_id":"0.0-5.0-0.0","prolific_id":"62897d2024f826ea90b7efa1","session_id":"643c1b23d282e80fc0992a25","study_id":"64370a36d30bfa807bc7e43c","correct":true},{"rt":null,"stimulus":"\n\t\t\t\t\t<p>Correct!</p>\n\t\t\t\t\t","response":null,"trial_type":"html-keyboard-response","trial_index":128,"time_elapsed":797350,"internal_node_id":"0.0-5.0-1.0","prolific_id":"62897d2024f826ea90b7efa1","session_id":"643c1b23d282e80fc0992a25","study_id":"64370a36d30bfa807bc7e43c"},{"rt":1616,"stimulus":"\n\t\t\t\t\t\t<div class=\"two_card_container\">\n\t\t\t\t\t\t<div class=\"card_container\">\n\t\t\t\t\t\t<img src=img/38.png>\n\t\t\t\t\t\t</div>\n\n\t\t\t\t\t\t<div class=\"card_container\">\n\t\t\t\t\t\t<img src=img/16.png>\n\t\t\t\t\t\t</div>","response":"j","task":"response","correct_response":"j","trial_type":"html-keyboard-response","trial_index":129,"time_elapsed":798967,"internal_node_id":"0.0-5.0-0.1","prolific_id":"62897d2024f826ea90b7efa1","session_id":"643c1b23d282e80fc0992a25","study_id":"64370a36d30bfa807bc7e43c","correct":true},{"rt":null,"stimulus":"\n\t\t\t\t\t<p>Correct!</p>\n\t\t\t\t\t","response":null,"trial_type":"html-keyboard-response","trial_index":130,"time_elapsed":799980,"internal_node_id":"0.0-5.0-1.1","prolific_id":"62897d2024f826ea90b7efa1","session_id":"643c1b23d282e80fc0992a25","study_id":"64370a36d30bfa807bc7e43c"},{"rt":757,"stimulus":"\n\t\t\t\t\t\t<div class=\"two_card_container\">\n\t\t\t\t\t\t<div class=\"card_container\">\n\t\t\t\t\t\t<img src=img/18.png>\n\t\t\t\t\t\t</div>\n\n\t\t\t\t\t\t<div class=\"card_container\">\n\t\t\t\t\t\t<img src=img/33.png>\n\t\t\t\t\t\t</div>","response":"f","task":"response","correct_response":"f","trial_type":"html-keyboard-response","trial_index":131,"time_elapsed":800738,"internal_node_id":"0.0-5.0-0.2","prolific_id":"62897d2024f826ea90b7efa1","session_id":"643c1b23d282e80fc0992a25","study_id":"64370a36d30bfa807bc7e43c","correct":true},{"rt":null,"stimulus":"\n\t\t\t\t\t<p>Correct!</p>\n\t\t\t\t\t","response":null,"trial_type":"html-keyboard-response","trial_index":132,"time_elapsed":801740,"internal_node_id":"0.0-5.0-1.2","prolific_id":"62897d2024f826ea90b7efa1","session_id":"643c1b23d282e80fc0992a25","study_id":"64370a36d30bfa807bc7e43c"},{"rt":1067,"stimulus":"\n\t\t\t\t\t\t<div class=\"two_card_container\">\n\t\t\t\t\t\t<div class=\"card_container\">\n\t\t\t\t\t\t<img src=img/3.png>\n\t\t\t\t\t\t</div>\n\n\t\t\t\t\t\t<div class=\"card_container\">\n\t\t\t\t\t\t<img src=img/32.png>\n\t\t\t\t\t\t</div>","response":"f","task":"response","correct_response":"f","trial_type":"html-keyboard-response","trial_index":133,"time_elapsed":802808,"internal_node_id":"0.0-5.0-0.3","prolific_id":"62897d2024f826ea90b7efa1","session_id":"643c1b23d282e80fc0992a25","study_id":"64370a36d30bfa807bc7e43c","correct":true},{"rt":null,"stimulus":"\n\t\t\t\t\t<p>Correct!</p>\n\t\t\t\t\t","response":null,"trial_type":"html-keyboard-response","trial_index":134,"time_elapsed":803824,"internal_node_id":"0.0-5.0-1.3","prolific_id":"62897d2024f826ea90b7efa1","session_id":"643c1b23d282e80fc0992a25","study_id":"64370a36d30bfa807bc7e43c"},{"rt":1116,"stimulus":"\n\t\t\t\t\t\t<div class=\"two_card_container\">\n\t\t\t\t\t\t<div class=\"card_container\">\n\t\t\t\t\t\t<img src=img/31.png>\n\t\t\t\t\t\t</div>\n\n\t\t\t\t\t\t<div class=\"card_container\">\n\t\t\t\t\t\t<img src=img/5.png>\n\t\t\t\t\t\t</div>","response":"j","task":"response","correct_response":"j","trial_type":"html-keyboard-response","trial_index":135,"time_elapsed":804941,"internal_node_id":"0.0-5.0-0.4","prolific_id":"62897d2024f826ea90b7efa1","session_id":"643c1b23d282e80fc0992a25","study_id":"64370a36d30bfa807bc7e43c","correct":true},{"rt":null,"stimulus":"\n\t\t\t\t\t<p>Correct!</p>\n\t\t\t\t\t","response":null,"trial_type":"html-keyboard-response","trial_index":136,"time_elapsed":805953,"internal_node_id":"0.0-5.0-1.4","prolific_id":"62897d2024f826ea90b7efa1","session_id":"643c1b23d282e80fc0992a25","study_id":"64370a36d30bfa807bc7e43c"},{"rt":1814,"stimulus":"\n\t\t\t\t\t\t<div class=\"two_card_container\">\n\t\t\t\t\t\t<div class=\"card_container\">\n\t\t\t\t\t\t<img src=img/40.png>\n\t\t\t\t\t\t</div>\n\n\t\t\t\t\t\t<div class=\"card_container\">\n\t\t\t\t\t\t<img src=img/20.png>\n\t\t\t\t\t\t</div>","response":"f","task":"response","correct_response":"j","trial_type":"html-keyboard-response","trial_index":137,"time_elapsed":807768,"internal_node_id":"0.0-5.0-0.5","prolific_id":"62897d2024f826ea90b7efa1","session_id":"643c1b23d282e80fc0992a25","study_id":"64370a36d30bfa807bc7e43c","correct":false},{"rt":null,"stimulus":"\n\t\t\t\t\t<p>Wrong answer</p>\n\t\t\t\t\t","response":null,"trial_type":"html-keyboard-response","trial_index":138,"time_elapsed":808770,"internal_node_id":"0.0-5.0-1.5","prolific_id":"62897d2024f826ea90b7efa1","session_id":"643c1b23d282e80fc0992a25","study_id":"64370a36d30bfa807bc7e43c"},{"rt":1673,"stimulus":"\n\t\t\t\t\t\t<div class=\"two_card_container\">\n\t\t\t\t\t\t<div class=\"card_container\">\n\t\t\t\t\t\t<img src=img/28.png>\n\t\t\t\t\t\t</div>\n\n\t\t\t\t\t\t<div class=\"card_container\">\n\t\t\t\t\t\t<img src=img/37.png>\n\t\t\t\t\t\t</div>","response":"f","task":"response","correct_response":"f","trial_type":"html-keyboard-response","trial_index":139,"time_elapsed":810445,"internal_node_id":"0.0-5.0-0.6","prolific_id":"62897d2024f826ea90b7efa1","session_id":"643c1b23d282e80fc0992a25","study_id":"64370a36d30bfa807bc7e43c","correct":true},{"rt":null,"stimulus":"\n\t\t\t\t\t<p>Correct!</p>\n\t\t\t\t\t","response":null,"trial_type":"html-keyboard-response","trial_index":140,"time_elapsed":811451,"internal_node_id":"0.0-5.0-1.6","prolific_id":"62897d2024f826ea90b7efa1","session_id":"643c1b23d282e80fc0992a25","study_id":"64370a36d30bfa807bc7e43c"},{"rt":1919,"stimulus":"\n\t\t\t\t\t\t<div class=\"two_card_container\">\n\t\t\t\t\t\t<div class=\"card_container\">\n\t\t\t\t\t\t<img src=img/15.png>\n\t\t\t\t\t\t</div>\n\n\t\t\t\t\t\t<div class=\"card_container\">\n\t\t\t\t\t\t<img src=img/35.png>\n\t\t\t\t\t\t</div>","response":"j","task":"response","correct_response":"f","trial_type":"html-keyboard-response","trial_index":141,"time_elapsed":813372,"internal_node_id":"0.0-5.0-0.7","prolific_id":"62897d2024f826ea90b7efa1","session_id":"643c1b23d282e80fc0992a25","study_id":"64370a36d30bfa807bc7e43c","correct":false},{"rt":null,"stimulus":"\n\t\t\t\t\t<p>Wrong answer</p>\n\t\t\t\t\t","response":null,"trial_type":"html-keyboard-response","trial_index":142,"time_elapsed":814381,"internal_node_id":"0.0-5.0-1.7","prolific_id":"62897d2024f826ea90b7efa1","session_id":"643c1b23d282e80fc0992a25","study_id":"64370a36d30bfa807bc7e43c"},{"rt":1184,"stimulus":"\n\t\t\t\t\t\t<div class=\"two_card_container\">\n\t\t\t\t\t\t<div class=\"card_container\">\n\t\t\t\t\t\t<img src=img/34.png>\n\t\t\t\t\t\t</div>\n\n\t\t\t\t\t\t<div class=\"card_container\">\n\t\t\t\t\t\t<img src=img/25.png>\n\t\t\t\t\t\t</div>","response":"j","task":"response","correct_response":"j","trial_type":"html-keyboard-response","trial_index":143,"time_elapsed":815566,"internal_node_id":"0.0-5.0-0.8","prolific_id":"62897d2024f826ea90b7efa1","session_id":"643c1b23d282e80fc0992a25","study_id":"64370a36d30bfa807bc7e43c","correct":true},{"rt":null,"stimulus":"\n\t\t\t\t\t<p>Correct!</p>\n\t\t\t\t\t","response":null,"trial_type":"html-keyboard-response","trial_index":144,"time_elapsed":816579,"internal_node_id":"0.0-5.0-1.8","prolific_id":"62897d2024f826ea90b7efa1","session_id":"643c1b23d282e80fc0992a25","study_id":"64370a36d30bfa807bc7e43c"},{"rt":1206,"stimulus":"\n\t\t\t\t\t\t<div class=\"two_card_container\">\n\t\t\t\t\t\t<div class=\"card_container\">\n\t\t\t\t\t\t<img src=img/39.png>\n\t\t\t\t\t\t</div>\n\n\t\t\t\t\t\t<div class=\"card_container\">\n\t\t\t\t\t\t<img src=img/19.png>\n\t\t\t\t\t\t</div>","response":"j","task":"response","correct_response":"j","trial_type":"html-keyboard-response","trial_index":145,"time_elapsed":817786,"internal_node_id":"0.0-5.0-0.9","prolific_id":"62897d2024f826ea90b7efa1","session_id":"643c1b23d282e80fc0992a25","study_id":"64370a36d30bfa807bc7e43c","correct":true},{"rt":null,"stimulus":"\n\t\t\t\t\t<p>Correct!</p>\n\t\t\t\t\t","response":null,"trial_type":"html-keyboard-response","trial_index":146,"time_elapsed":818801,"internal_node_id":"0.0-5.0-1.9","prolific_id":"62897d2024f826ea90b7efa1","session_id":"643c1b23d282e80fc0992a25","study_id":"64370a36d30bfa807bc7e43c"},{"rt":null,"stimulus":"\n\t\t\t<h2>Good job :p</h2>\n\t\t\t<p>In the next session, you will see a trivia question on the screen in each trial.</p>\n\t\t\t<p>Each of these trivia questions is chosen from the questions you have already seen in the first session of the experiment.</p><br>\n\t\t\t<p>Your task is to answer the trivia question based on what you remember as accurately as you can.</p>\n\t\t\t<p>Have fun!</p>\n\t\t\t<br>\n\t\t\t<p>The trials will begin in 30 seconds</p>\n\t\t\t","response":null,"trial_type":"html-keyboard-response","trial_index":147,"time_elapsed":848802,"internal_node_id":"0.0-6.0","prolific_id":"62897d2024f826ea90b7efa1","session_id":"643c1b23d282e80fc0992a25","study_id":"64370a36d30bfa807bc7e43c"},{"rt":4312,"response":{"answer":"13"},"task":"response","correct_response":"13","trial_type":"survey-text","trial_index":148,"time_elapsed":853118,"internal_node_id":"0.0-7.0-0.0","prolific_id":"62897d2024f826ea90b7efa1","session_id":"643c1b23d282e80fc0992a25","study_id":"64370a36d30bfa807bc7e43c","difference":0},{"rt":null,"stimulus":"<h2>The correct answer is 13.</h2><p>Your answer was different from the answer by 0.</p><p>You got the right answer. Amazing work!</p>","response":null,"trial_type":"html-keyboard-response","trial_index":149,"time_elapsed":855626,"internal_node_id":"0.0-7.0-1.0","prolific_id":"62897d2024f826ea90b7efa1","session_id":"643c1b23d282e80fc0992a25","study_id":"64370a36d30bfa807bc7e43c"},{"rt":8081,"response":{"answer":"1765"},"task":"response","correct_response":"7917.5","trial_type":"survey-text","trial_index":150,"time_elapsed":863710,"internal_node_id":"0.0-7.0-0.1","prolific_id":"62897d2024f826ea90b7efa1","session_id":"643c1b23d282e80fc0992a25","study_id":"64370a36d30bfa807bc7e43c","difference":78},{"rt":null,"stimulus":"<h2>The correct answer is 7917.5.</h2><p>Your answer was different from the answer by 6152.5.</p><p>Not even close... do better next time!</p>","response":null,"trial_type":"html-keyboard-response","trial_index":151,"time_elapsed":866216,"internal_node_id":"0.0-7.0-1.1","prolific_id":"62897d2024f826ea90b7efa1","session_id":"643c1b23d282e80fc0992a25","study_id":"64370a36d30bfa807bc7e43c"},{"rt":5004,"response":{"answer":"5"},"task":"response","correct_response":"5","trial_type":"survey-text","trial_index":152,"time_elapsed":871222,"internal_node_id":"0.0-7.0-0.2","prolific_id":"62897d2024f826ea90b7efa1","session_id":"643c1b23d282e80fc0992a25","study_id":"64370a36d30bfa807bc7e43c","difference":0},{"rt":null,"stimulus":"<h2>The correct answer is 5.</h2><p>Your answer was different from the answer by 0.</p><p>You got the right answer. Amazing work!</p>","response":null,"trial_type":"html-keyboard-response","trial_index":153,"time_elapsed":873729,"internal_node_id":"0.0-7.0-1.2","prolific_id":"62897d2024f826ea90b7efa1","session_id":"643c1b23d282e80fc0992a25","study_id":"64370a36d30bfa807bc7e43c"},{"rt":4275,"response":{"answer":"5"},"task":"response","correct_response":"4","trial_type":"survey-text","trial_index":154,"time_elapsed":878006,"internal_node_id":"0.0-7.0-0.3","prolific_id":"62897d2024f826ea90b7efa1","session_id":"643c1b23d282e80fc0992a25","study_id":"64370a36d30bfa807bc7e43c","difference":25},{"rt":null,"stimulus":"<h2>The correct answer is 4.</h2><p>Your answer was different from the answer by 1.</p><p>A pretty good job indeed.</p>","response":null,"trial_type":"html-keyboard-response","trial_index":155,"time_elapsed":880512,"internal_node_id":"0.0-7.0-1.3","prolific_id":"62897d2024f826ea90b7efa1","session_id":"643c1b23d282e80fc0992a25","study_id":"64370a36d30bfa807bc7e43c"},{"rt":7908,"response":{"answer":"1889"},"task":"response","correct_response":"1896","trial_type":"survey-text","trial_index":156,"time_elapsed":888422,"internal_node_id":"0.0-7.0-0.4","prolific_id":"62897d2024f826ea90b7efa1","session_id":"643c1b23d282e80fc0992a25","study_id":"64370a36d30bfa807bc7e43c","difference":0},{"rt":null,"stimulus":"<h2>The correct answer is 1896.</h2><p>Your answer was different from the answer by 7.</p><p>Excellent. Kudos to you!</p>","response":null,"trial_type":"html-keyboard-response","trial_index":157,"time_elapsed":890937,"internal_node_id":"0.0-7.0-1.4","prolific_id":"62897d2024f826ea90b7efa1","session_id":"643c1b23d282e80fc0992a25","study_id":"64370a36d30bfa807bc7e43c"},{"rt":5570,"response":{"answer":"1886"},"task":"response","correct_response":"1901","trial_type":"survey-text","trial_index":158,"time_elapsed":896510,"internal_node_id":"0.0-7.0-0.5","prolific_id":"62897d2024f826ea90b7efa1","session_id":"643c1b23d282e80fc0992a25","study_id":"64370a36d30bfa807bc7e43c","difference":1},{"rt":null,"stimulus":"<h2>The correct answer is 1901.</h2><p>Your answer was different from the answer by 15.</p><p>Excellent. Kudos to you!</p>","response":null,"trial_type":"html-keyboard-response","trial_index":159,"time_elapsed":899015,"internal_node_id":"0.0-7.0-1.5","prolific_id":"62897d2024f826ea90b7efa1","session_id":"643c1b23d282e80fc0992a25","study_id":"64370a36d30bfa807bc7e43c"},{"rt":4285,"response":{"answer":"65"},"task":"response","correct_response":"54","trial_type":"survey-text","trial_index":160,"time_elapsed":903302,"internal_node_id":"0.0-7.0-0.6","prolific_id":"62897d2024f826ea90b7efa1","session_id":"643c1b23d282e80fc0992a25","study_id":"64370a36d30bfa807bc7e43c","difference":20},{"rt":null,"stimulus":"<h2>The correct answer is 54.</h2><p>Your answer was different from the answer by 11.</p><p>A pretty good job indeed.</p>","response":null,"trial_type":"html-keyboard-response","trial_index":161,"time_elapsed":905807,"internal_node_id":"0.0-7.0-1.6","prolific_id":"62897d2024f826ea90b7efa1","session_id":"643c1b23d282e80fc0992a25","study_id":"64370a36d30bfa807bc7e43c"},{"rt":9693,"response":{"answer":"43"},"task":"response","correct_response":"28","trial_type":"survey-text","trial_index":162,"time_elapsed":915502,"internal_node_id":"0.0-7.0-0.7","prolific_id":"62897d2024f826ea90b7efa1","session_id":"643c1b23d282e80fc0992a25","study_id":"64370a36d30bfa807bc7e43c","difference":54},{"rt":null,"stimulus":"<h2>The correct answer is 28.</h2><p>Your answer was different from the answer by 15.</p><p>Not even close... do better next time!</p>","response":null,"trial_type":"html-keyboard-response","trial_index":163,"time_elapsed":918017,"internal_node_id":"0.0-7.0-1.7","prolific_id":"62897d2024f826ea90b7efa1","session_id":"643c1b23d282e80fc0992a25","study_id":"64370a36d30bfa807bc7e43c"},{"rt":4004,"response":{"answer":"5"},"task":"response","correct_response":"21","trial_type":"survey-text","trial_index":164,"time_elapsed":922023,"internal_node_id":"0.0-7.0-0.8","prolific_id":"62897d2024f826ea90b7efa1","session_id":"643c1b23d282e80fc0992a25","study_id":"64370a36d30bfa807bc7e43c","difference":76},{"rt":null,"stimulus":"<h2>The correct answer is 21.</h2><p>Your answer was different from the answer by 16.</p><p>Not even close... do better next time!</p>","response":null,"trial_type":"html-keyboard-response","trial_index":165,"time_elapsed":924536,"internal_node_id":"0.0-7.0-1.8","prolific_id":"62897d2024f826ea90b7efa1","session_id":"643c1b23d282e80fc0992a25","study_id":"64370a36d30bfa807bc7e43c"},{"rt":6443,"response":{"answer":"1"},"task":"response","correct_response":"14","trial_type":"survey-text","trial_index":166,"time_elapsed":930982,"internal_node_id":"0.0-7.0-0.9","prolific_id":"62897d2024f826ea90b7efa1","session_id":"643c1b23d282e80fc0992a25","study_id":"64370a36d30bfa807bc7e43c","difference":93},{"rt":null,"stimulus":"<h2>The correct answer is 14.</h2><p>Your answer was different from the answer by 13.</p><p>Not even close... do better next time!</p>","response":null,"trial_type":"html-keyboard-response","trial_index":167,"time_elapsed":933482,"internal_node_id":"0.0-7.0-1.9","prolific_id":"62897d2024f826ea90b7efa1","session_id":"643c1b23d282e80fc0992a25","study_id":"64370a36d30bfa807bc7e43c"}]