[{"success":true,"timeout":false,"failed_images":[],"failed_audio":[],"failed_video":[],"trial_type":"preload","trial_index":0,"time_elapsed":4361,"internal_node_id":"0.0-0.0","prolific_id":"62b08773cf2ee3e1920099c8","session_id":"643c252be9613f6b3c8b6f82","study_id":"64370a36d30bfa807bc7e43c"},{"rt":13317,"stimulus":"\n\t\t\t\t\t<p>Welcome and thank you for participating in this study!</p>\n\t\t\t\t\t<p>In each trial, you will be given a trivia question and then be asked to:</p><br>\n\t\t\t\t\t<div class=\"list\">\n\t\t\t\t\t<p>1) Predict the answer</p>\n\t\t\t\t\t<p>2) Rate how much you already know about the topic</p>\n\t\t\t\t\t<p>3) Rate how much you want to know the answer</p>\n\t\t\t\t\t</div>\n\t\t\t\t\t<br>\n\t\t\t\t\t<p>Then, you will see a card that flips over to reveal the answer.</p>\n\t\t\t\t\t<br>\n\t\t\t\t\t<p>Let's try a practice round. Press <span style=\"color: red\"><strong>any key</strong></span> to move to the next slide</p>\n\t\t\t\t\t","response":"h","trial_type":"html-keyboard-response","trial_index":1,"time_elapsed":17680,"internal_node_id":"0.0-1.0","prolific_id":"62b08773cf2ee3e1920099c8","session_id":"643c252be9613f6b3c8b6f82","study_id":"64370a36d30bfa807bc7e43c"},{"rt":5697,"response":{"practice prediction":"6"},"task":"practice","trial_type":"survey-text","trial_index":2,"time_elapsed":23413,"internal_node_id":"0.0-2.0-0.0","prolific_id":"62b08773cf2ee3e1920099c8","session_id":"643c252be9613f6b3c8b6f82","study_id":"64370a36d30bfa807bc7e43c"},{"rt":13818,"response":{"practice":4},"accuracy":[],"trial_type":"survey","trial_index":3,"time_elapsed":37274,"internal_node_id":"0.0-2.0-1.0","prolific_id":"62b08773cf2ee3e1920099c8","session_id":"643c252be9613f6b3c8b6f82","study_id":"64370a36d30bfa807bc7e43c"},{"rt":null,"stimulus":"\n\t\t\t\t<div class=\"flip_card\">\n\t\t\t\t\t<div class=\"flip_card_inner\">\n\t\t\t\t\t\t<div class=\"flip_card_front\">\n\t\t\t\t\t\t\t<img src=img/practice.png>\n\t\t\t\t\t\t</div>\n\t\t\t\t\t\t<div class=\"flip_card_back\">\n\t\t\t\t\t\t\t<h2>\"How many legs does a lobster have?\"</h2>\n\t\t\t\t\t\t    <br>\n\t\t\t\t\t\t    <p>Answer: <strong>\"10\"</strong></p>\n\t\t\t\t\t    </div>\n\t\t\t\t    </div>\n\t\t\t    </div>\n\t\t\t\t","response":null,"trial_type":"html-keyboard-response","trial_index":4,"time_elapsed":42285,"internal_node_id":"0.0-2.0-2.0","prolific_id":"62b08773cf2ee3e1920099c8","session_id":"643c252be9613f6b3c8b6f82","study_id":"64370a36d30bfa807bc7e43c"},{"rt":3264,"stimulus":"\n\t\t\t\t\t<div>\n\t\t\t\t\t<h2>The practice round is over</h2>\n\t\t\t\t\t<p>Press <span style=\"color: red\"><strong>any key</strong></span> to continue to the actual trials</p>\n\t\t\t\t\t<p>Good Luck!</p>\n\t\t\t\t\t</div>\n\t\t\t\t\t","response":"h","trial_type":"html-keyboard-response","trial_index":5,"time_elapsed":45550,"internal_node_id":"0.0-2.0-3.0","prolific_id":"62b08773cf2ee3e1920099c8","session_id":"643c252be9613f6b3c8b6f82","study_id":"64370a36d30bfa807bc7e43c"},{"rt":15481,"response":{"prediction":"1992"},"trial_type":"survey-text","trial_index":6,"time_elapsed":61036,"internal_node_id":"0.0-3.0-0.0","prolific_id":"62b08773cf2ee3e1920099c8","session_id":"643c252be9613f6b3c8b6f82","study_id":"64370a36d30bfa807bc7e43c"},{"rt":6605,"response":{"prior knowledge":1,"curiosity":3},"accuracy":[],"trial_type":"survey","trial_index":7,"time_elapsed":67658,"internal_node_id":"0.0-3.0-1.0","prolific_id":"62b08773cf2ee3e1920099c8","session_id":"643c252be9613f6b3c8b6f82","study_id":"64370a36d30bfa807bc7e43c"},{"rt":null,"stimulus":"\n\t\t\t<div class=\"flip_card\">\n\t\t\t\t<div class=\"flip_card_inner\">\n\t\t\t\t\t<div class=\"flip_card_front\">\n\t\t\t\t\t\t<img src=img/5.png>\n\t\t\t\t\t</div>\n\t\t\t\t\t<div class=\"flip_card_back\">\n\t\t\t\t\t\t<h2>What year did the Berlin Wall fall?</h2>\n\t\t\t\t\t\t<br>\n\t\t\t\t\t\t<p>Answer: <strong>1989</strong></p>\n\t\t\t\t\t</div>\n\t\t\t\t</div>\n\t\t\t</div>\n\t\t\t","response":null,"trial_type":"html-keyboard-response","trial_index":8,"time_elapsed":72664,"internal_node_id":"0.0-3.0-2.0","prolific_id":"62b08773cf2ee3e1920099c8","session_id":"643c252be9613f6b3c8b6f82","study_id":"64370a36d30bfa807bc7e43c"},{"rt":2548,"stimulus":"\n\t\t\t\t\t<div>\n\t\t\t\t\t<h2>Trial 1 is over</h2>\n\t\t\t\t\t<p>Press <span style=\"color: red\"><strong>any key</strong></span> to continue to the next trial</p>\n\t\t\t\t\t</div>\n\t\t\t\t","response":" ","trial_type":"html-keyboard-response","trial_index":9,"time_elapsed":75214,"internal_node_id":"0.0-3.0-3.0","prolific_id":"62b08773cf2ee3e1920099c8","session_id":"643c252be9613f6b3c8b6f82","study_id":"64370a36d30bfa807bc7e43c"},{"rt":8678,"response":{"prediction":"27"},"trial_type":"survey-text","trial_index":10,"time_elapsed":83900,"internal_node_id":"0.0-3.0-0.1","prolific_id":"62b08773cf2ee3e1920099c8","session_id":"643c252be9613f6b3c8b6f82","study_id":"64370a36d30bfa807bc7e43c"},{"rt":6964,"response":{"prior knowledge":0,"curiosity":2},"accuracy":[],"trial_type":"survey","trial_index":11,"time_elapsed":90879,"internal_node_id":"0.0-3.0-1.1","prolific_id":"62b08773cf2ee3e1920099c8","session_id":"643c252be9613f6b3c8b6f82","study_id":"64370a36d30bfa807bc7e43c"},{"rt":null,"stimulus":"\n\t\t\t<div class=\"flip_card\">\n\t\t\t\t<div class=\"flip_card_inner\">\n\t\t\t\t\t<div class=\"flip_card_front\">\n\t\t\t\t\t\t<img src=img/24.png>\n\t\t\t\t\t</div>\n\t\t\t\t\t<div class=\"flip_card_back\">\n\t\t\t\t\t\t<h2>How many single hand gestures, or mudras, are used in Indian classical dance?</h2>\n\t\t\t\t\t\t<br>\n\t\t\t\t\t\t<p>Answer: <strong>28</strong></p>\n\t\t\t\t\t</div>\n\t\t\t\t</div>\n\t\t\t</div>\n\t\t\t","response":null,"trial_type":"html-keyboard-response","trial_index":12,"time_elapsed":95894,"internal_node_id":"0.0-3.0-2.1","prolific_id":"62b08773cf2ee3e1920099c8","session_id":"643c252be9613f6b3c8b6f82","study_id":"64370a36d30bfa807bc7e43c"},{"rt":1391,"stimulus":"\n\t\t\t\t\t<div>\n\t\t\t\t\t<h2>Trial 2 is over</h2>\n\t\t\t\t\t<p>Press <span style=\"color: red\"><strong>any key</strong></span> to continue to the next trial</p>\n\t\t\t\t\t</div>\n\t\t\t\t","response":" ","trial_type":"html-keyboard-response","trial_index":13,"time_elapsed":97286,"internal_node_id":"0.0-3.0-3.1","prolific_id":"62b08773cf2ee3e1920099c8","session_id":"643c252be9613f6b3c8b6f82","study_id":"64370a36d30bfa807bc7e43c"},{"rt":5777,"response":{"prediction":"12"},"trial_type":"survey-text","trial_index":14,"time_elapsed":103068,"internal_node_id":"0.0-3.0-0.2","prolific_id":"62b08773cf2ee3e1920099c8","session_id":"643c252be9613f6b3c8b6f82","study_id":"64370a36d30bfa807bc7e43c"},{"rt":6164,"response":{"prior knowledge":2,"curiosity":4},"accuracy":[],"trial_type":"survey","trial_index":15,"time_elapsed":109246,"internal_node_id":"0.0-3.0-1.2","prolific_id":"62b08773cf2ee3e1920099c8","session_id":"643c252be9613f6b3c8b6f82","study_id":"64370a36d30bfa807bc7e43c"},{"rt":null,"stimulus":"\n\t\t\t<div class=\"flip_card\">\n\t\t\t\t<div class=\"flip_card_inner\">\n\t\t\t\t\t<div class=\"flip_card_front\">\n\t\t\t\t\t\t<img src=img/18.png>\n\t\t\t\t\t</div>\n\t\t\t\t\t<div class=\"flip_card_back\">\n\t\t\t\t\t\t<h2>How many different animals (real or imaginary) are represented in the Chinese calendar?</h2>\n\t\t\t\t\t\t<br>\n\t\t\t\t\t\t<p>Answer: <strong>12</strong></p>\n\t\t\t\t\t</div>\n\t\t\t\t</div>\n\t\t\t</div>\n\t\t\t","response":null,"trial_type":"html-keyboard-response","trial_index":16,"time_elapsed":114248,"internal_node_id":"0.0-3.0-2.2","prolific_id":"62b08773cf2ee3e1920099c8","session_id":"643c252be9613f6b3c8b6f82","study_id":"64370a36d30bfa807bc7e43c"},{"rt":1364,"stimulus":"\n\t\t\t\t\t<div>\n\t\t\t\t\t<h2>Trial 3 is over</h2>\n\t\t\t\t\t<p>Press <span style=\"color: red\"><strong>any key</strong></span> to continue to the next trial</p>\n\t\t\t\t\t</div>\n\t\t\t\t","response":" ","trial_type":"html-keyboard-response","trial_index":17,"time_elapsed":115613,"internal_node_id":"0.0-3.0-3.2","prolific_id":"62b08773cf2ee3e1920099c8","session_id":"643c252be9613f6b3c8b6f82","study_id":"64370a36d30bfa807bc7e43c"},{"rt":14652,"response":{"prediction":"26"},"trial_type":"survey-text","trial_index":18,"time_elapsed":130268,"internal_node_id":"0.0-3.0-0.3","prolific_id":"62b08773cf2ee3e1920099c8","session_id":"643c252be9613f6b3c8b6f82","study_id":"64370a36d30bfa807bc7e43c"},{"rt":5268,"response":{"prior knowledge":1,"curiosity":2},"accuracy":[],"trial_type":"survey","trial_index":19,"time_elapsed":135550,"internal_node_id":"0.0-3.0-1.3","prolific_id":"62b08773cf2ee3e1920099c8","session_id":"643c252be9613f6b3c8b6f82","study_id":"64370a36d30bfa807bc7e43c"},{"rt":null,"stimulus":"\n\t\t\t<div class=\"flip_card\">\n\t\t\t\t<div class=\"flip_card_inner\">\n\t\t\t\t\t<div class=\"flip_card_front\">\n\t\t\t\t\t\t<img src=img/19.png>\n\t\t\t\t\t</div>\n\t\t\t\t\t<div class=\"flip_card_back\">\n\t\t\t\t\t\t<h2>How many people are vegan globally (in millions)?</h2>\n\t\t\t\t\t\t<br>\n\t\t\t\t\t\t<p>Answer: <strong>79</strong></p>\n\t\t\t\t\t</div>\n\t\t\t\t</div>\n\t\t\t</div>\n\t\t\t","response":null,"trial_type":"html-keyboard-response","trial_index":20,"time_elapsed":140556,"internal_node_id":"0.0-3.0-2.3","prolific_id":"62b08773cf2ee3e1920099c8","session_id":"643c252be9613f6b3c8b6f82","study_id":"64370a36d30bfa807bc7e43c"},{"rt":1584,"stimulus":"\n\t\t\t\t\t<div>\n\t\t\t\t\t<h2>Trial 4 is over</h2>\n\t\t\t\t\t<p>Press <span style=\"color: red\"><strong>any key</strong></span> to continue to the next trial</p>\n\t\t\t\t\t</div>\n\t\t\t\t","response":" ","trial_type":"html-keyboard-response","trial_index":21,"time_elapsed":142142,"internal_node_id":"0.0-3.0-3.3","prolific_id":"62b08773cf2ee3e1920099c8","session_id":"643c252be9613f6b3c8b6f82","study_id":"64370a36d30bfa807bc7e43c"},{"rt":10113,"response":{"prediction":"1924"},"trial_type":"survey-text","trial_index":22,"time_elapsed":152260,"internal_node_id":"0.0-3.0-0.4","prolific_id":"62b08773cf2ee3e1920099c8","session_id":"643c252be9613f6b3c8b6f82","study_id":"64370a36d30bfa807bc7e43c"},{"rt":4663,"response":{"prior knowledge":0,"curiosity":2},"accuracy":[],"trial_type":"survey","trial_index":23,"time_elapsed":156934,"internal_node_id":"0.0-3.0-1.4","prolific_id":"62b08773cf2ee3e1920099c8","session_id":"643c252be9613f6b3c8b6f82","study_id":"64370a36d30bfa807bc7e43c"},{"rt":null,"stimulus":"\n\t\t\t<div class=\"flip_card\">\n\t\t\t\t<div class=\"flip_card_inner\">\n\t\t\t\t\t<div class=\"flip_card_front\">\n\t\t\t\t\t\t<img src=img/15.png>\n\t\t\t\t\t</div>\n\t\t\t\t\t<div class=\"flip_card_back\">\n\t\t\t\t\t\t<h2>In what year did the first Modern Olympic Games take place?</h2>\n\t\t\t\t\t\t<br>\n\t\t\t\t\t\t<p>Answer: <strong>1896</strong></p>\n\t\t\t\t\t</div>\n\t\t\t\t</div>\n\t\t\t</div>\n\t\t\t","response":null,"trial_type":"html-keyboard-response","trial_index":24,"time_elapsed":161937,"internal_node_id":"0.0-3.0-2.4","prolific_id":"62b08773cf2ee3e1920099c8","session_id":"643c252be9613f6b3c8b6f82","study_id":"64370a36d30bfa807bc7e43c"},{"rt":1394,"stimulus":"\n\t\t\t\t\t<div>\n\t\t\t\t\t<h2>Trial 5 is over</h2>\n\t\t\t\t\t<p>Press <span style=\"color: red\"><strong>any key</strong></span> to continue to the next trial</p>\n\t\t\t\t\t</div>\n\t\t\t\t","response":" ","trial_type":"html-keyboard-response","trial_index":25,"time_elapsed":163333,"internal_node_id":"0.0-3.0-3.4","prolific_id":"62b08773cf2ee3e1920099c8","session_id":"643c252be9613f6b3c8b6f82","study_id":"64370a36d30bfa807bc7e43c"},{"rt":14526,"response":{"prediction":"1000000"},"trial_type":"survey-text","trial_index":26,"time_elapsed":177860,"internal_node_id":"0.0-3.0-0.5","prolific_id":"62b08773cf2ee3e1920099c8","session_id":"643c252be9613f6b3c8b6f82","study_id":"64370a36d30bfa807bc7e43c"},{"rt":3718,"response":{"prior knowledge":0,"curiosity":1},"accuracy":[],"trial_type":"survey","trial_index":27,"time_elapsed":181589,"internal_node_id":"0.0-3.0-1.5","prolific_id":"62b08773cf2ee3e1920099c8","session_id":"643c252be9613f6b3c8b6f82","study_id":"64370a36d30bfa807bc7e43c"},{"rt":null,"stimulus":"\n\t\t\t<div class=\"flip_card\">\n\t\t\t\t<div class=\"flip_card_inner\">\n\t\t\t\t\t<div class=\"flip_card_front\">\n\t\t\t\t\t\t<img src=img/21.png>\n\t\t\t\t\t</div>\n\t\t\t\t\t<div class=\"flip_card_back\">\n\t\t\t\t\t\t<h2>What is the diameter of Earth in miles?</h2>\n\t\t\t\t\t\t<br>\n\t\t\t\t\t\t<p>Answer: <strong>7917.5</strong></p>\n\t\t\t\t\t</div>\n\t\t\t\t</div>\n\t\t\t</div>\n\t\t\t","response":null,"trial_type":"html-keyboard-response","trial_index":28,"time_elapsed":186598,"internal_node_id":"0.0-3.0-2.5","prolific_id":"62b08773cf2ee3e1920099c8","session_id":"643c252be9613f6b3c8b6f82","study_id":"64370a36d30bfa807bc7e43c"},{"rt":2095,"stimulus":"\n\t\t\t\t\t<div>\n\t\t\t\t\t<h2>Trial 6 is over</h2>\n\t\t\t\t\t<p>Press <span style=\"color: red\"><strong>any key</strong></span> to continue to the next trial</p>\n\t\t\t\t\t</div>\n\t\t\t\t","response":" ","trial_type":"html-keyboard-response","trial_index":29,"time_elapsed":188694,"internal_node_id":"0.0-3.0-3.5","prolific_id":"62b08773cf2ee3e1920099c8","session_id":"643c252be9613f6b3c8b6f82","study_id":"64370a36d30bfa807bc7e43c"},{"rt":11138,"response":{"prediction":"15"},"trial_type":"survey-text","trial_index":30,"time_elapsed":199836,"internal_node_id":"0.0-3.0-0.6","prolific_id":"62b08773cf2ee3e1920099c8","session_id":"643c252be9613f6b3c8b6f82","study_id":"64370a36d30bfa807bc7e43c"},{"rt":3727,"response":{"prior knowledge":0,"curiosity":2},"accuracy":[],"trial_type":"survey","trial_index":31,"time_elapsed":203574,"internal_node_id":"0.0-3.0-1.6","prolific_id":"62b08773cf2ee3e1920099c8","session_id":"643c252be9613f6b3c8b6f82","study_id":"64370a36d30bfa807bc7e43c"},{"rt":null,"stimulus":"\n\t\t\t<div class=\"flip_card\">\n\t\t\t\t<div class=\"flip_card_inner\">\n\t\t\t\t\t<div class=\"flip_card_front\">\n\t\t\t\t\t\t<img src=img/12.png>\n\t\t\t\t\t</div>\n\t\t\t\t\t<div class=\"flip_card_back\">\n\t\t\t\t\t\t<h2>How many tones are in the Vietnamese language?</h2>\n\t\t\t\t\t\t<br>\n\t\t\t\t\t\t<p>Answer: <strong>6</strong></p>\n\t\t\t\t\t</div>\n\t\t\t\t</div>\n\t\t\t</div>\n\t\t\t","response":null,"trial_type":"html-keyboard-response","trial_index":32,"time_elapsed":208587,"internal_node_id":"0.0-3.0-2.6","prolific_id":"62b08773cf2ee3e1920099c8","session_id":"643c252be9613f6b3c8b6f82","study_id":"64370a36d30bfa807bc7e43c"},{"rt":1258,"stimulus":"\n\t\t\t\t\t<div>\n\t\t\t\t\t<h2>Trial 7 is over</h2>\n\t\t\t\t\t<p>Press <span style=\"color: red\"><strong>any key</strong></span> to continue to the next trial</p>\n\t\t\t\t\t</div>\n\t\t\t\t","response":" ","trial_type":"html-keyboard-response","trial_index":33,"time_elapsed":209846,"internal_node_id":"0.0-3.0-3.6","prolific_id":"62b08773cf2ee3e1920099c8","session_id":"643c252be9613f6b3c8b6f82","study_id":"64370a36d30bfa807bc7e43c"},{"rt":8563,"response":{"prediction":"5000"},"trial_type":"survey-text","trial_index":34,"time_elapsed":218412,"internal_node_id":"0.0-3.0-0.7","prolific_id":"62b08773cf2ee3e1920099c8","session_id":"643c252be9613f6b3c8b6f82","study_id":"64370a36d30bfa807bc7e43c"},{"rt":4686,"response":{"prior knowledge":1,"curiosity":3},"accuracy":[],"trial_type":"survey","trial_index":35,"time_elapsed":223110,"internal_node_id":"0.0-3.0-1.7","prolific_id":"62b08773cf2ee3e1920099c8","session_id":"643c252be9613f6b3c8b6f82","study_id":"64370a36d30bfa807bc7e43c"},{"rt":null,"stimulus":"\n\t\t\t<div class=\"flip_card\">\n\t\t\t\t<div class=\"flip_card_inner\">\n\t\t\t\t\t<div class=\"flip_card_front\">\n\t\t\t\t\t\t<img src=img/13.png>\n\t\t\t\t\t</div>\n\t\t\t\t\t<div class=\"flip_card_back\">\n\t\t\t\t\t\t<h2>How long is the Great Wall of China (in miles)?</h2>\n\t\t\t\t\t\t<br>\n\t\t\t\t\t\t<p>Answer: <strong>13171</strong></p>\n\t\t\t\t\t</div>\n\t\t\t\t</div>\n\t\t\t</div>\n\t\t\t","response":null,"trial_type":"html-keyboard-response","trial_index":36,"time_elapsed":228125,"internal_node_id":"0.0-3.0-2.7","prolific_id":"62b08773cf2ee3e1920099c8","session_id":"643c252be9613f6b3c8b6f82","study_id":"64370a36d30bfa807bc7e43c"},{"rt":1590,"stimulus":"\n\t\t\t\t\t<div>\n\t\t\t\t\t<h2>Trial 8 is over</h2>\n\t\t\t\t\t<p>Press <span style=\"color: red\"><strong>any key</strong></span> to continue to the next trial</p>\n\t\t\t\t\t</div>\n\t\t\t\t","response":" ","trial_type":"html-keyboard-response","trial_index":37,"time_elapsed":229717,"internal_node_id":"0.0-3.0-3.7","prolific_id":"62b08773cf2ee3e1920099c8","session_id":"643c252be9613f6b3c8b6f82","study_id":"64370a36d30bfa807bc7e43c"},{"rt":5555,"response":{"prediction":"3"},"trial_type":"survey-text","trial_index":38,"time_elapsed":235276,"internal_node_id":"0.0-3.0-0.8","prolific_id":"62b08773cf2ee3e1920099c8","session_id":"643c252be9613f6b3c8b6f82","study_id":"64370a36d30bfa807bc7e43c"},{"rt":4262,"response":{"prior knowledge":1,"curiosity":3},"accuracy":[],"trial_type":"survey","trial_index":39,"time_elapsed":239549,"internal_node_id":"0.0-3.0-1.8","prolific_id":"62b08773cf2ee3e1920099c8","session_id":"643c252be9613f6b3c8b6f82","study_id":"64370a36d30bfa807bc7e43c"},{"rt":null,"stimulus":"\n\t\t\t<div class=\"flip_card\">\n\t\t\t\t<div class=\"flip_card_inner\">\n\t\t\t\t\t<div class=\"flip_card_front\">\n\t\t\t\t\t\t<img src=img/14.png>\n\t\t\t\t\t</div>\n\t\t\t\t\t<div class=\"flip_card_back\">\n\t\t\t\t\t\t<h2>How many moons does Neptune have?</h2>\n\t\t\t\t\t\t<br>\n\t\t\t\t\t\t<p>Answer: <strong>14</strong></p>\n\t\t\t\t\t</div>\n\t\t\t\t</div>\n\t\t\t</div>\n\t\t\t","response":null,"trial_type":"html-keyboard-response","trial_index":40,"time_elapsed":244555,"internal_node_id":"0.0-3.0-2.8","prolific_id":"62b08773cf2ee3e1920099c8","session_id":"643c252be9613f6b3c8b6f82","study_id":"64370a36d30bfa807bc7e43c"},{"rt":1368,"stimulus":"\n\t\t\t\t\t<div>\n\t\t\t\t\t<h2>Trial 9 is over</h2>\n\t\t\t\t\t<p>Press <span style=\"color: red\"><strong>any key</strong></span> to continue to the next trial</p>\n\t\t\t\t\t</div>\n\t\t\t\t","response":" ","trial_type":"html-keyboard-response","trial_index":41,"time_elapsed":245924,"internal_node_id":"0.0-3.0-3.8","prolific_id":"62b08773cf2ee3e1920099c8","session_id":"643c252be9613f6b3c8b6f82","study_id":"64370a36d30bfa807bc7e43c"},{"rt":7860,"response":{"prediction":"226"},"trial_type":"survey-text","trial_index":42,"time_elapsed":253788,"internal_node_id":"0.0-3.0-0.9","prolific_id":"62b08773cf2ee3e1920099c8","session_id":"643c252be9613f6b3c8b6f82","study_id":"64370a36d30bfa807bc7e43c"},{"rt":4463,"response":{"prior knowledge":2,"curiosity":3},"accuracy":[],"trial_type":"survey","trial_index":43,"time_elapsed":258261,"internal_node_id":"0.0-3.0-1.9","prolific_id":"62b08773cf2ee3e1920099c8","session_id":"643c252be9613f6b3c8b6f82","study_id":"64370a36d30bfa807bc7e43c"},{"rt":null,"stimulus":"\n\t\t\t<div class=\"flip_card\">\n\t\t\t\t<div class=\"flip_card_inner\">\n\t\t\t\t\t<div class=\"flip_card_front\">\n\t\t\t\t\t\t<img src=img/30.png>\n\t\t\t\t\t</div>\n\t\t\t\t\t<div class=\"flip_card_back\">\n\t\t\t\t\t\t<h2>How many bones is a human baby born with?</h2>\n\t\t\t\t\t\t<br>\n\t\t\t\t\t\t<p>Answer: <strong>300</strong></p>\n\t\t\t\t\t</div>\n\t\t\t\t</div>\n\t\t\t</div>\n\t\t\t","response":null,"trial_type":"html-keyboard-response","trial_index":44,"time_elapsed":263267,"internal_node_id":"0.0-3.0-2.9","prolific_id":"62b08773cf2ee3e1920099c8","session_id":"643c252be9613f6b3c8b6f82","study_id":"64370a36d30bfa807bc7e43c"},{"rt":1328,"stimulus":"\n\t\t\t\t\t<div>\n\t\t\t\t\t<h2>Trial 10 is over</h2>\n\t\t\t\t\t<p>Press <span style=\"color: red\"><strong>any key</strong></span> to continue to the next trial</p>\n\t\t\t\t\t</div>\n\t\t\t\t","response":" ","trial_type":"html-keyboard-response","trial_index":45,"time_elapsed":264596,"internal_node_id":"0.0-3.0-3.9","prolific_id":"62b08773cf2ee3e1920099c8","session_id":"643c252be9613f6b3c8b6f82","study_id":"64370a36d30bfa807bc7e43c"},{"rt":10924,"response":{"prediction":"35"},"trial_type":"survey-text","trial_index":46,"time_elapsed":275524,"internal_node_id":"0.0-3.0-0.10","prolific_id":"62b08773cf2ee3e1920099c8","session_id":"643c252be9613f6b3c8b6f82","study_id":"64370a36d30bfa807bc7e43c"},{"rt":3511,"response":{"prior knowledge":1,"curiosity":4},"accuracy":[],"trial_type":"survey","trial_index":47,"time_elapsed":279045,"internal_node_id":"0.0-3.0-1.10","prolific_id":"62b08773cf2ee3e1920099c8","session_id":"643c252be9613f6b3c8b6f82","study_id":"64370a36d30bfa807bc7e43c"},{"rt":null,"stimulus":"\n\t\t\t<div class=\"flip_card\">\n\t\t\t\t<div class=\"flip_card_inner\">\n\t\t\t\t\t<div class=\"flip_card_front\">\n\t\t\t\t\t\t<img src=img/17.png>\n\t\t\t\t\t</div>\n\t\t\t\t\t<div class=\"flip_card_back\">\n\t\t\t\t\t\t<h2>How many constellations are there?</h2>\n\t\t\t\t\t\t<br>\n\t\t\t\t\t\t<p>Answer: <strong>88</strong></p>\n\t\t\t\t\t</div>\n\t\t\t\t</div>\n\t\t\t</div>\n\t\t\t","response":null,"trial_type":"html-keyboard-response","trial_index":48,"time_elapsed":284053,"internal_node_id":"0.0-3.0-2.10","prolific_id":"62b08773cf2ee3e1920099c8","session_id":"643c252be9613f6b3c8b6f82","study_id":"64370a36d30bfa807bc7e43c"},{"rt":1168,"stimulus":"\n\t\t\t\t\t<div>\n\t\t\t\t\t<h2>Trial 11 is over</h2>\n\t\t\t\t\t<p>Press <span style=\"color: red\"><strong>any key</strong></span> to continue to the next trial</p>\n\t\t\t\t\t</div>\n\t\t\t\t","response":" ","trial_type":"html-keyboard-response","trial_index":49,"time_elapsed":285221,"internal_node_id":"0.0-3.0-3.10","prolific_id":"62b08773cf2ee3e1920099c8","session_id":"643c252be9613f6b3c8b6f82","study_id":"64370a36d30bfa807bc7e43c"},{"rt":8643,"response":{"prediction":"5"},"trial_type":"survey-text","trial_index":50,"time_elapsed":293868,"internal_node_id":"0.0-3.0-0.11","prolific_id":"62b08773cf2ee3e1920099c8","session_id":"643c252be9613f6b3c8b6f82","study_id":"64370a36d30bfa807bc7e43c"},{"rt":4655,"response":{"prior knowledge":2,"curiosity":4},"accuracy":[],"trial_type":"survey","trial_index":51,"time_elapsed":298533,"internal_node_id":"0.0-3.0-1.11","prolific_id":"62b08773cf2ee3e1920099c8","session_id":"643c252be9613f6b3c8b6f82","study_id":"64370a36d30bfa807bc7e43c"},{"rt":null,"stimulus":"\n\t\t\t<div class=\"flip_card\">\n\t\t\t\t<div class=\"flip_card_inner\">\n\t\t\t\t\t<div class=\"flip_card_front\">\n\t\t\t\t\t\t<img src=img/9.png>\n\t\t\t\t\t</div>\n\t\t\t\t\t<div class=\"flip_card_back\">\n\t\t\t\t\t\t<h2>How many times a day do Muslims pray?</h2>\n\t\t\t\t\t\t<br>\n\t\t\t\t\t\t<p>Answer: <strong>5</strong></p>\n\t\t\t\t\t</div>\n\t\t\t\t</div>\n\t\t\t</div>\n\t\t\t","response":null,"trial_type":"html-keyboard-response","trial_index":52,"time_elapsed":303535,"internal_node_id":"0.0-3.0-2.11","prolific_id":"62b08773cf2ee3e1920099c8","session_id":"643c252be9613f6b3c8b6f82","study_id":"64370a36d30bfa807bc7e43c"},{"rt":2509,"stimulus":"\n\t\t\t\t\t<div>\n\t\t\t\t\t<h2>Trial 12 is over</h2>\n\t\t\t\t\t<p>Press <span style=\"color: red\"><strong>any key</strong></span> to continue to the next trial</p>\n\t\t\t\t\t</div>\n\t\t\t\t","response":" ","trial_type":"html-keyboard-response","trial_index":53,"time_elapsed":306045,"internal_node_id":"0.0-3.0-3.11","prolific_id":"62b08773cf2ee3e1920099c8","session_id":"643c252be9613f6b3c8b6f82","study_id":"64370a36d30bfa807bc7e43c"},{"rt":7074,"response":{"prediction":"3"},"trial_type":"survey-text","trial_index":54,"time_elapsed":313123,"internal_node_id":"0.0-3.0-0.12","prolific_id":"62b08773cf2ee3e1920099c8","session_id":"643c252be9613f6b3c8b6f82","study_id":"64370a36d30bfa807bc7e43c"},{"rt":5206,"response":{"prior knowledge":0,"curiosity":2},"accuracy":[],"trial_type":"survey","trial_index":55,"time_elapsed":318341,"internal_node_id":"0.0-3.0-1.12","prolific_id":"62b08773cf2ee3e1920099c8","session_id":"643c252be9613f6b3c8b6f82","study_id":"64370a36d30bfa807bc7e43c"},{"rt":null,"stimulus":"\n\t\t\t<div class=\"flip_card\">\n\t\t\t\t<div class=\"flip_card_inner\">\n\t\t\t\t\t<div class=\"flip_card_front\">\n\t\t\t\t\t\t<img src=img/16.png>\n\t\t\t\t\t</div>\n\t\t\t\t\t<div class=\"flip_card_back\">\n\t\t\t\t\t\t<h2>How many countries have territory in the Arctic Circle?</h2>\n\t\t\t\t\t\t<br>\n\t\t\t\t\t\t<p>Answer: <strong>8</strong></p>\n\t\t\t\t\t</div>\n\t\t\t\t</div>\n\t\t\t</div>\n\t\t\t","response":null,"trial_type":"html-keyboard-response","trial_index":56,"time_elapsed":323357,"internal_node_id":"0.0-3.0-2.12","prolific_id":"62b08773cf2ee3e1920099c8","session_id":"643c252be9613f6b3c8b6f82","study_id":"64370a36d30bfa807bc7e43c"},{"rt":1366,"stimulus":"\n\t\t\t\t\t<div>\n\t\t\t\t\t<h2>Trial 13 is over</h2>\n\t\t\t\t\t<p>Press <span style=\"color: red\"><strong>any key</strong></span> to continue to the next trial</p>\n\t\t\t\t\t</div>\n\t\t\t\t","response":" ","trial_type":"html-keyboard-response","trial_index":57,"time_elapsed":324724,"internal_node_id":"0.0-3.0-3.12","prolific_id":"62b08773cf2ee3e1920099c8","session_id":"643c252be9613f6b3c8b6f82","study_id":"64370a36d30bfa807bc7e43c"},{"rt":5748,"response":{"prediction":"14"},"trial_type":"survey-text","trial_index":58,"time_elapsed":330475,"internal_node_id":"0.0-3.0-0.13","prolific_id":"62b08773cf2ee3e1920099c8","session_id":"643c252be9613f6b3c8b6f82","study_id":"64370a36d30bfa807bc7e43c"},{"rt":3751,"response":{"prior knowledge":0,"curiosity":2},"accuracy":[],"trial_type":"survey","trial_index":59,"time_elapsed":334237,"internal_node_id":"0.0-3.0-1.13","prolific_id":"62b08773cf2ee3e1920099c8","session_id":"643c252be9613f6b3c8b6f82","study_id":"64370a36d30bfa807bc7e43c"},{"rt":null,"stimulus":"\n\t\t\t<div class=\"flip_card\">\n\t\t\t\t<div class=\"flip_card_inner\">\n\t\t\t\t\t<div class=\"flip_card_front\">\n\t\t\t\t\t\t<img src=img/25.png>\n\t\t\t\t\t</div>\n\t\t\t\t\t<div class=\"flip_card_back\">\n\t\t\t\t\t\t<h2>How many native species of kangaroos are found in Australia?</h2>\n\t\t\t\t\t\t<br>\n\t\t\t\t\t\t<p>Answer: <strong>4</strong></p>\n\t\t\t\t\t</div>\n\t\t\t\t</div>\n\t\t\t</div>\n\t\t\t","response":null,"trial_type":"html-keyboard-response","trial_index":60,"time_elapsed":339241,"internal_node_id":"0.0-3.0-2.13","prolific_id":"62b08773cf2ee3e1920099c8","session_id":"643c252be9613f6b3c8b6f82","study_id":"64370a36d30bfa807bc7e43c"},{"rt":1243,"stimulus":"\n\t\t\t\t\t<div>\n\t\t\t\t\t<h2>Trial 14 is over</h2>\n\t\t\t\t\t<p>Press <span style=\"color: red\"><strong>any key</strong></span> to continue to the next trial</p>\n\t\t\t\t\t</div>\n\t\t\t\t","response":" ","trial_type":"html-keyboard-response","trial_index":61,"time_elapsed":340485,"internal_node_id":"0.0-3.0-3.13","prolific_id":"62b08773cf2ee3e1920099c8","session_id":"643c252be9613f6b3c8b6f82","study_id":"64370a36d30bfa807bc7e43c"},{"rt":5042,"response":{"prediction":"125"},"trial_type":"survey-text","trial_index":62,"time_elapsed":345531,"internal_node_id":"0.0-3.0-0.14","prolific_id":"62b08773cf2ee3e1920099c8","session_id":"643c252be9613f6b3c8b6f82","study_id":"64370a36d30bfa807bc7e43c"},{"rt":7966,"response":{"prior knowledge":4,"curiosity":5},"accuracy":[],"trial_type":"survey","trial_index":63,"time_elapsed":353509,"internal_node_id":"0.0-3.0-1.14","prolific_id":"62b08773cf2ee3e1920099c8","session_id":"643c252be9613f6b3c8b6f82","study_id":"64370a36d30bfa807bc7e43c"},{"rt":null,"stimulus":"\n\t\t\t<div class=\"flip_card\">\n\t\t\t\t<div class=\"flip_card_inner\">\n\t\t\t\t\t<div class=\"flip_card_front\">\n\t\t\t\t\t\t<img src=img/4.png>\n\t\t\t\t\t</div>\n\t\t\t\t\t<div class=\"flip_card_back\">\n\t\t\t\t\t\t<h2>How many books has Stephen King published?</h2>\n\t\t\t\t\t\t<br>\n\t\t\t\t\t\t<p>Answer: <strong>65</strong></p>\n\t\t\t\t\t</div>\n\t\t\t\t</div>\n\t\t\t</div>\n\t\t\t","response":null,"trial_type":"html-keyboard-response","trial_index":64,"time_elapsed":358517,"internal_node_id":"0.0-3.0-2.14","prolific_id":"62b08773cf2ee3e1920099c8","session_id":"643c252be9613f6b3c8b6f82","study_id":"64370a36d30bfa807bc7e43c"},{"rt":1766,"stimulus":"\n\t\t\t\t\t<div>\n\t\t\t\t\t<h2>Trial 15 is over</h2>\n\t\t\t\t\t<p>Press <span style=\"color: red\"><strong>any key</strong></span> to continue to the next trial</p>\n\t\t\t\t\t</div>\n\t\t\t\t","response":" ","trial_type":"html-keyboard-response","trial_index":65,"time_elapsed":360284,"internal_node_id":"0.0-3.0-3.14","prolific_id":"62b08773cf2ee3e1920099c8","session_id":"643c252be9613f6b3c8b6f82","study_id":"64370a36d30bfa807bc7e43c"},{"rt":4692,"response":{"prediction":"7"},"trial_type":"survey-text","trial_index":66,"time_elapsed":364979,"internal_node_id":"0.0-3.0-0.15","prolific_id":"62b08773cf2ee3e1920099c8","session_id":"643c252be9613f6b3c8b6f82","study_id":"64370a36d30bfa807bc7e43c"},{"rt":3647,"response":{"prior knowledge":0,"curiosity":2},"accuracy":[],"trial_type":"survey","trial_index":67,"time_elapsed":368637,"internal_node_id":"0.0-3.0-1.15","prolific_id":"62b08773cf2ee3e1920099c8","session_id":"643c252be9613f6b3c8b6f82","study_id":"64370a36d30bfa807bc7e43c"},{"rt":null,"stimulus":"\n\t\t\t<div class=\"flip_card\">\n\t\t\t\t<div class=\"flip_card_inner\">\n\t\t\t\t\t<div class=\"flip_card_front\">\n\t\t\t\t\t\t<img src=img/28.png>\n\t\t\t\t\t</div>\n\t\t\t\t\t<div class=\"flip_card_back\">\n\t\t\t\t\t\t<h2>How many main islands make up Japan?</h2>\n\t\t\t\t\t\t<br>\n\t\t\t\t\t\t<p>Answer: <strong>4</strong></p>\n\t\t\t\t\t</div>\n\t\t\t\t</div>\n\t\t\t</div>\n\t\t\t","response":null,"trial_type":"html-keyboard-response","trial_index":68,"time_elapsed":373641,"internal_node_id":"0.0-3.0-2.15","prolific_id":"62b08773cf2ee3e1920099c8","session_id":"643c252be9613f6b3c8b6f82","study_id":"64370a36d30bfa807bc7e43c"},{"rt":1499,"stimulus":"\n\t\t\t\t\t<div>\n\t\t\t\t\t<h2>Trial 16 is over</h2>\n\t\t\t\t\t<p>Press <span style=\"color: red\"><strong>any key</strong></span> to continue to the next trial</p>\n\t\t\t\t\t</div>\n\t\t\t\t","response":" ","trial_type":"html-keyboard-response","trial_index":69,"time_elapsed":375141,"internal_node_id":"0.0-3.0-3.15","prolific_id":"62b08773cf2ee3e1920099c8","session_id":"643c252be9613f6b3c8b6f82","study_id":"64370a36d30bfa807bc7e43c"},{"rt":6218,"response":{"prediction":"14"},"trial_type":"survey-text","trial_index":70,"time_elapsed":381363,"internal_node_id":"0.0-3.0-0.16","prolific_id":"62b08773cf2ee3e1920099c8","session_id":"643c252be9613f6b3c8b6f82","study_id":"64370a36d30bfa807bc7e43c"},{"rt":5151,"response":{"prior knowledge":0,"curiosity":2},"accuracy":[],"trial_type":"survey","trial_index":71,"time_elapsed":386525,"internal_node_id":"0.0-3.0-1.16","prolific_id":"62b08773cf2ee3e1920099c8","session_id":"643c252be9613f6b3c8b6f82","study_id":"64370a36d30bfa807bc7e43c"},{"rt":null,"stimulus":"\n\t\t\t<div class=\"flip_card\">\n\t\t\t\t<div class=\"flip_card_inner\">\n\t\t\t\t\t<div class=\"flip_card_front\">\n\t\t\t\t\t\t<img src=img/27.png>\n\t\t\t\t\t</div>\n\t\t\t\t\t<div class=\"flip_card_back\">\n\t\t\t\t\t\t<h2>How many countries in Africa have French as the official language?</h2>\n\t\t\t\t\t\t<br>\n\t\t\t\t\t\t<p>Answer: <strong>21</strong></p>\n\t\t\t\t\t</div>\n\t\t\t\t</div>\n\t\t\t</div>\n\t\t\t","response":null,"trial_type":"html-keyboard-response","trial_index":72,"time_elapsed":391534,"internal_node_id":"0.0-3.0-2.16","prolific_id":"62b08773cf2ee3e1920099c8","session_id":"643c252be9613f6b3c8b6f82","study_id":"64370a36d30bfa807bc7e43c"},{"rt":853,"stimulus":"\n\t\t\t\t\t<div>\n\t\t\t\t\t<h2>Trial 17 is over</h2>\n\t\t\t\t\t<p>Press <span style=\"color: red\"><strong>any key</strong></span> to continue to the next trial</p>\n\t\t\t\t\t</div>\n\t\t\t\t","response":" ","trial_type":"html-keyboard-response","trial_index":73,"time_elapsed":392388,"internal_node_id":"0.0-3.0-3.16","prolific_id":"62b08773cf2ee3e1920099c8","session_id":"643c252be9613f6b3c8b6f82","study_id":"64370a36d30bfa807bc7e43c"},{"rt":7163,"response":{"prediction":"500"},"trial_type":"survey-text","trial_index":74,"time_elapsed":399556,"internal_node_id":"0.0-3.0-0.17","prolific_id":"62b08773cf2ee3e1920099c8","session_id":"643c252be9613f6b3c8b6f82","study_id":"64370a36d30bfa807bc7e43c"},{"rt":3950,"response":{"prior knowledge":1,"curiosity":5},"accuracy":[],"trial_type":"survey","trial_index":75,"time_elapsed":403517,"internal_node_id":"0.0-3.0-1.17","prolific_id":"62b08773cf2ee3e1920099c8","session_id":"643c252be9613f6b3c8b6f82","study_id":"64370a36d30bfa807bc7e43c"},{"rt":null,"stimulus":"\n\t\t\t<div class=\"flip_card\">\n\t\t\t\t<div class=\"flip_card_inner\">\n\t\t\t\t\t<div class=\"flip_card_front\">\n\t\t\t\t\t\t<img src=img/23.png>\n\t\t\t\t\t</div>\n\t\t\t\t\t<div class=\"flip_card_back\">\n\t\t\t\t\t\t<h2>How many floors are in the Burj Khalifa, the tallest building in the world?</h2>\n\t\t\t\t\t\t<br>\n\t\t\t\t\t\t<p>Answer: <strong>163</strong></p>\n\t\t\t\t\t</div>\n\t\t\t\t</div>\n\t\t\t</div>\n\t\t\t","response":null,"trial_type":"html-keyboard-response","trial_index":76,"time_elapsed":408533,"internal_node_id":"0.0-3.0-2.17","prolific_id":"62b08773cf2ee3e1920099c8","session_id":"643c252be9613f6b3c8b6f82","study_id":"64370a36d30bfa807bc7e43c"},{"rt":1455,"stimulus":"\n\t\t\t\t\t<div>\n\t\t\t\t\t<h2>Trial 18 is over</h2>\n\t\t\t\t\t<p>Press <span style=\"color: red\"><strong>any key</strong></span> to continue to the next trial</p>\n\t\t\t\t\t</div>\n\t\t\t\t","response":" ","trial_type":"html-keyboard-response","trial_index":77,"time_elapsed":409989,"internal_node_id":"0.0-3.0-3.17","prolific_id":"62b08773cf2ee3e1920099c8","session_id":"643c252be9613f6b3c8b6f82","study_id":"64370a36d30bfa807bc7e43c"},{"rt":6675,"response":{"prediction":"1924"},"trial_type":"survey-text","trial_index":78,"time_elapsed":416667,"internal_node_id":"0.0-3.0-0.18","prolific_id":"62b08773cf2ee3e1920099c8","session_id":"643c252be9613f6b3c8b6f82","study_id":"64370a36d30bfa807bc7e43c"},{"rt":3775,"response":{"prior knowledge":2,"curiosity":4},"accuracy":[],"trial_type":"survey","trial_index":79,"time_elapsed":420453,"internal_node_id":"0.0-3.0-1.18","prolific_id":"62b08773cf2ee3e1920099c8","session_id":"643c252be9613f6b3c8b6f82","study_id":"64370a36d30bfa807bc7e43c"},{"rt":null,"stimulus":"\n\t\t\t<div class=\"flip_card\">\n\t\t\t\t<div class=\"flip_card_inner\">\n\t\t\t\t\t<div class=\"flip_card_front\">\n\t\t\t\t\t\t<img src=img/6.png>\n\t\t\t\t\t</div>\n\t\t\t\t\t<div class=\"flip_card_back\">\n\t\t\t\t\t\t<h2>What year did the titanic sink?</h2>\n\t\t\t\t\t\t<br>\n\t\t\t\t\t\t<p>Answer: <strong>1912</strong></p>\n\t\t\t\t\t</div>\n\t\t\t\t</div>\n\t\t\t</div>\n\t\t\t","response":null,"trial_type":"html-keyboard-response","trial_index":80,"time_elapsed":425468,"internal_node_id":"0.0-3.0-2.18","prolific_id":"62b08773cf2ee3e1920099c8","session_id":"643c252be9613f6b3c8b6f82","study_id":"64370a36d30bfa807bc7e43c"},{"rt":1454,"stimulus":"\n\t\t\t\t\t<div>\n\t\t\t\t\t<h2>Trial 19 is over</h2>\n\t\t\t\t\t<p>Press <span style=\"color: red\"><strong>any key</strong></span> to continue to the next trial</p>\n\t\t\t\t\t</div>\n\t\t\t\t","response":" ","trial_type":"html-keyboard-response","trial_index":81,"time_elapsed":426924,"internal_node_id":"0.0-3.0-3.18","prolific_id":"62b08773cf2ee3e1920099c8","session_id":"643c252be9613f6b3c8b6f82","study_id":"64370a36d30bfa807bc7e43c"},{"rt":10051,"response":{"prediction":"13"},"trial_type":"survey-text","trial_index":82,"time_elapsed":436979,"internal_node_id":"0.0-3.0-0.19","prolific_id":"62b08773cf2ee3e1920099c8","session_id":"643c252be9613f6b3c8b6f82","study_id":"64370a36d30bfa807bc7e43c"},{"rt":3406,"response":{"prior knowledge":1,"curiosity":4},"accuracy":[],"trial_type":"survey","trial_index":83,"time_elapsed":440396,"internal_node_id":"0.0-3.0-1.19","prolific_id":"62b08773cf2ee3e1920099c8","session_id":"643c252be9613f6b3c8b6f82","study_id":"64370a36d30bfa807bc7e43c"},{"rt":null,"stimulus":"\n\t\t\t<div class=\"flip_card\">\n\t\t\t\t<div class=\"flip_card_inner\">\n\t\t\t\t\t<div class=\"flip_card_front\">\n\t\t\t\t\t\t<img src=img/22.png>\n\t\t\t\t\t</div>\n\t\t\t\t\t<div class=\"flip_card_back\">\n\t\t\t\t\t\t<h2>A bar mitzvah is traditionally celebrated when Jewish males turn what age?</h2>\n\t\t\t\t\t\t<br>\n\t\t\t\t\t\t<p>Answer: <strong>13</strong></p>\n\t\t\t\t\t</div>\n\t\t\t\t</div>\n\t\t\t</div>\n\t\t\t","response":null,"trial_type":"html-keyboard-response","trial_index":84,"time_elapsed":445398,"internal_node_id":"0.0-3.0-2.19","prolific_id":"62b08773cf2ee3e1920099c8","session_id":"643c252be9613f6b3c8b6f82","study_id":"64370a36d30bfa807bc7e43c"},{"rt":1613,"stimulus":"\n\t\t\t\t\t<div>\n\t\t\t\t\t<h2>Trial 20 is over</h2>\n\t\t\t\t\t<p>Press <span style=\"color: red\"><strong>any key</strong></span> to continue to the next trial</p>\n\t\t\t\t\t</div>\n\t\t\t\t","response":" ","trial_type":"html-keyboard-response","trial_index":85,"time_elapsed":447012,"internal_node_id":"0.0-3.0-3.19","prolific_id":"62b08773cf2ee3e1920099c8","session_id":"643c252be9613f6b3c8b6f82","study_id":"64370a36d30bfa807bc7e43c"},{"rt":5179,"response":{"prediction":"13"},"trial_type":"survey-text","trial_index":86,"time_elapsed":452195,"internal_node_id":"0.0-3.0-0.20","prolific_id":"62b08773cf2ee3e1920099c8","session_id":"643c252be9613f6b3c8b6f82","study_id":"64370a36d30bfa807bc7e43c"},{"rt":7495,"response":{"prior knowledge":5,"curiosity":3},"accuracy":[],"trial_type":"survey","trial_index":87,"time_elapsed":459700,"internal_node_id":"0.0-3.0-1.20","prolific_id":"62b08773cf2ee3e1920099c8","session_id":"643c252be9613f6b3c8b6f82","study_id":"64370a36d30bfa807bc7e43c"},{"rt":null,"stimulus":"\n\t\t\t<div class=\"flip_card\">\n\t\t\t\t<div class=\"flip_card_inner\">\n\t\t\t\t\t<div class=\"flip_card_front\">\n\t\t\t\t\t\t<img src=img/29.png>\n\t\t\t\t\t</div>\n\t\t\t\t\t<div class=\"flip_card_back\">\n\t\t\t\t\t\t<h2>How much is in a Baker's Dozen?</h2>\n\t\t\t\t\t\t<br>\n\t\t\t\t\t\t<p>Answer: <strong>13</strong></p>\n\t\t\t\t\t</div>\n\t\t\t\t</div>\n\t\t\t</div>\n\t\t\t","response":null,"trial_type":"html-keyboard-response","trial_index":88,"time_elapsed":464701,"internal_node_id":"0.0-3.0-2.20","prolific_id":"62b08773cf2ee3e1920099c8","session_id":"643c252be9613f6b3c8b6f82","study_id":"64370a36d30bfa807bc7e43c"},{"rt":1325,"stimulus":"\n\t\t\t\t\t<div>\n\t\t\t\t\t<h2>Trial 21 is over</h2>\n\t\t\t\t\t<p>Press <span style=\"color: red\"><strong>any key</strong></span> to continue to the next trial</p>\n\t\t\t\t\t</div>\n\t\t\t\t","response":" ","trial_type":"html-keyboard-response","trial_index":89,"time_elapsed":466027,"internal_node_id":"0.0-3.0-3.20","prolific_id":"62b08773cf2ee3e1920099c8","session_id":"643c252be9613f6b3c8b6f82","study_id":"64370a36d30bfa807bc7e43c"},{"rt":6396,"response":{"prediction":"6"},"trial_type":"survey-text","trial_index":90,"time_elapsed":472427,"internal_node_id":"0.0-3.0-0.21","prolific_id":"62b08773cf2ee3e1920099c8","session_id":"643c252be9613f6b3c8b6f82","study_id":"64370a36d30bfa807bc7e43c"},{"rt":4638,"response":{"prior knowledge":1,"curiosity":4},"accuracy":[],"trial_type":"survey","trial_index":91,"time_elapsed":477076,"internal_node_id":"0.0-3.0-1.21","prolific_id":"62b08773cf2ee3e1920099c8","session_id":"643c252be9613f6b3c8b6f82","study_id":"64370a36d30bfa807bc7e43c"},{"rt":null,"stimulus":"\n\t\t\t<div class=\"flip_card\">\n\t\t\t\t<div class=\"flip_card_inner\">\n\t\t\t\t\t<div class=\"flip_card_front\">\n\t\t\t\t\t\t<img src=img/11.png>\n\t\t\t\t\t</div>\n\t\t\t\t\t<div class=\"flip_card_back\">\n\t\t\t\t\t\t<h2>How many soccer players should each team have on the field at the start of each match?</h2>\n\t\t\t\t\t\t<br>\n\t\t\t\t\t\t<p>Answer: <strong>11</strong></p>\n\t\t\t\t\t</div>\n\t\t\t\t</div>\n\t\t\t</div>\n\t\t\t","response":null,"trial_type":"html-keyboard-response","trial_index":92,"time_elapsed":482081,"internal_node_id":"0.0-3.0-2.21","prolific_id":"62b08773cf2ee3e1920099c8","session_id":"643c252be9613f6b3c8b6f82","study_id":"64370a36d30bfa807bc7e43c"},{"rt":1218,"stimulus":"\n\t\t\t\t\t<div>\n\t\t\t\t\t<h2>Trial 22 is over</h2>\n\t\t\t\t\t<p>Press <span style=\"color: red\"><strong>any key</strong></span> to continue to the next trial</p>\n\t\t\t\t\t</div>\n\t\t\t\t","response":" ","trial_type":"html-keyboard-response","trial_index":93,"time_elapsed":483300,"internal_node_id":"0.0-3.0-3.21","prolific_id":"62b08773cf2ee3e1920099c8","session_id":"643c252be9613f6b3c8b6f82","study_id":"64370a36d30bfa807bc7e43c"},{"rt":10339,"response":{"prediction":"1930"},"trial_type":"survey-text","trial_index":94,"time_elapsed":493643,"internal_node_id":"0.0-3.0-0.22","prolific_id":"62b08773cf2ee3e1920099c8","session_id":"643c252be9613f6b3c8b6f82","study_id":"64370a36d30bfa807bc7e43c"},{"rt":4935,"response":{"prior knowledge":1,"curiosity":4},"accuracy":[],"trial_type":"survey","trial_index":95,"time_elapsed":498588,"internal_node_id":"0.0-3.0-1.22","prolific_id":"62b08773cf2ee3e1920099c8","session_id":"643c252be9613f6b3c8b6f82","study_id":"64370a36d30bfa807bc7e43c"},{"rt":null,"stimulus":"\n\t\t\t<div class=\"flip_card\">\n\t\t\t\t<div class=\"flip_card_inner\">\n\t\t\t\t\t<div class=\"flip_card_front\">\n\t\t\t\t\t\t<img src=img/1.png>\n\t\t\t\t\t</div>\n\t\t\t\t\t<div class=\"flip_card_back\">\n\t\t\t\t\t\t<h2>In what year was the Mexican artist Frida Kahlo born?</h2>\n\t\t\t\t\t\t<br>\n\t\t\t\t\t\t<p>Answer: <strong>1907</strong></p>\n\t\t\t\t\t</div>\n\t\t\t\t</div>\n\t\t\t</div>\n\t\t\t","response":null,"trial_type":"html-keyboard-response","trial_index":96,"time_elapsed":503590,"internal_node_id":"0.0-3.0-2.22","prolific_id":"62b08773cf2ee3e1920099c8","session_id":"643c252be9613f6b3c8b6f82","study_id":"64370a36d30bfa807bc7e43c"},{"rt":1422,"stimulus":"\n\t\t\t\t\t<div>\n\t\t\t\t\t<h2>Trial 23 is over</h2>\n\t\t\t\t\t<p>Press <span style=\"color: red\"><strong>any key</strong></span> to continue to the next trial</p>\n\t\t\t\t\t</div>\n\t\t\t\t","response":" ","trial_type":"html-keyboard-response","trial_index":97,"time_elapsed":505012,"internal_node_id":"0.0-3.0-3.22","prolific_id":"62b08773cf2ee3e1920099c8","session_id":"643c252be9613f6b3c8b6f82","study_id":"64370a36d30bfa807bc7e43c"},{"rt":9915,"response":{"prediction":"55"},"trial_type":"survey-text","trial_index":98,"time_elapsed":514931,"internal_node_id":"0.0-3.0-0.23","prolific_id":"62b08773cf2ee3e1920099c8","session_id":"643c252be9613f6b3c8b6f82","study_id":"64370a36d30bfa807bc7e43c"},{"rt":4487,"response":{"prior knowledge":0,"curiosity":5},"accuracy":[],"trial_type":"survey","trial_index":99,"time_elapsed":519428,"internal_node_id":"0.0-3.0-1.23","prolific_id":"62b08773cf2ee3e1920099c8","session_id":"643c252be9613f6b3c8b6f82","study_id":"64370a36d30bfa807bc7e43c"},{"rt":null,"stimulus":"\n\t\t\t<div class=\"flip_card\">\n\t\t\t\t<div class=\"flip_card_inner\">\n\t\t\t\t\t<div class=\"flip_card_front\">\n\t\t\t\t\t\t<img src=img/3.png>\n\t\t\t\t\t</div>\n\t\t\t\t\t<div class=\"flip_card_back\">\n\t\t\t\t\t\t<h2>How many countries are in Africa?</h2>\n\t\t\t\t\t\t<br>\n\t\t\t\t\t\t<p>Answer: <strong>54</strong></p>\n\t\t\t\t\t</div>\n\t\t\t\t</div>\n\t\t\t</div>\n\t\t\t","response":null,"trial_type":"html-keyboard-response","trial_index":100,"time_elapsed":524435,"internal_node_id":"0.0-3.0-2.23","prolific_id":"62b08773cf2ee3e1920099c8","session_id":"643c252be9613f6b3c8b6f82","study_id":"64370a36d30bfa807bc7e43c"},{"rt":1383,"stimulus":"\n\t\t\t\t\t<div>\n\t\t\t\t\t<h2>Trial 24 is over</h2>\n\t\t\t\t\t<p>Press <span style=\"color: red\"><strong>any key</strong></span> to continue to the next trial</p>\n\t\t\t\t\t</div>\n\t\t\t\t","response":" ","trial_type":"html-keyboard-response","trial_index":101,"time_elapsed":525819,"internal_node_id":"0.0-3.0-3.23","prolific_id":"62b08773cf2ee3e1920099c8","session_id":"643c252be9613f6b3c8b6f82","study_id":"64370a36d30bfa807bc7e43c"},{"rt":7708,"response":{"prediction":"25"},"trial_type":"survey-text","trial_index":102,"time_elapsed":533531,"internal_node_id":"0.0-3.0-0.24","prolific_id":"62b08773cf2ee3e1920099c8","session_id":"643c252be9613f6b3c8b6f82","study_id":"64370a36d30bfa807bc7e43c"},{"rt":5967,"response":{"prior knowledge":1,"curiosity":4},"accuracy":[],"trial_type":"survey","trial_index":103,"time_elapsed":539508,"internal_node_id":"0.0-3.0-1.24","prolific_id":"62b08773cf2ee3e1920099c8","session_id":"643c252be9613f6b3c8b6f82","study_id":"64370a36d30bfa807bc7e43c"},{"rt":null,"stimulus":"\n\t\t\t<div class=\"flip_card\">\n\t\t\t\t<div class=\"flip_card_inner\">\n\t\t\t\t\t<div class=\"flip_card_front\">\n\t\t\t\t\t\t<img src=img/8.png>\n\t\t\t\t\t</div>\n\t\t\t\t\t<div class=\"flip_card_back\">\n\t\t\t\t\t\t<h2>How old was King Tut when he died?</h2>\n\t\t\t\t\t\t<br>\n\t\t\t\t\t\t<p>Answer: <strong>19</strong></p>\n\t\t\t\t\t</div>\n\t\t\t\t</div>\n\t\t\t</div>\n\t\t\t","response":null,"trial_type":"html-keyboard-response","trial_index":104,"time_elapsed":544518,"internal_node_id":"0.0-3.0-2.24","prolific_id":"62b08773cf2ee3e1920099c8","session_id":"643c252be9613f6b3c8b6f82","study_id":"64370a36d30bfa807bc7e43c"},{"rt":1165,"stimulus":"\n\t\t\t\t\t<div>\n\t\t\t\t\t<h2>Trial 25 is over</h2>\n\t\t\t\t\t<p>Press <span style=\"color: red\"><strong>any key</strong></span> to continue to the next trial</p>\n\t\t\t\t\t</div>\n\t\t\t\t","response":" ","trial_type":"html-keyboard-response","trial_index":105,"time_elapsed":545685,"internal_node_id":"0.0-3.0-3.24","prolific_id":"62b08773cf2ee3e1920099c8","session_id":"643c252be9613f6b3c8b6f82","study_id":"64370a36d30bfa807bc7e43c"},{"rt":7882,"response":{"prediction":"12"},"trial_type":"survey-text","trial_index":106,"time_elapsed":553570,"internal_node_id":"0.0-3.0-0.25","prolific_id":"62b08773cf2ee3e1920099c8","session_id":"643c252be9613f6b3c8b6f82","study_id":"64370a36d30bfa807bc7e43c"},{"rt":4103,"response":{"prior knowledge":1,"curiosity":5},"accuracy":[],"trial_type":"survey","trial_index":107,"time_elapsed":557684,"internal_node_id":"0.0-3.0-1.25","prolific_id":"62b08773cf2ee3e1920099c8","session_id":"643c252be9613f6b3c8b6f82","study_id":"64370a36d30bfa807bc7e43c"},{"rt":null,"stimulus":"\n\t\t\t<div class=\"flip_card\">\n\t\t\t\t<div class=\"flip_card_inner\">\n\t\t\t\t\t<div class=\"flip_card_front\">\n\t\t\t\t\t\t<img src=img/26.png>\n\t\t\t\t\t</div>\n\t\t\t\t\t<div class=\"flip_card_back\">\n\t\t\t\t\t\t<h2>How many books are in the Catholic Bible?</h2>\n\t\t\t\t\t\t<br>\n\t\t\t\t\t\t<p>Answer: <strong>73</strong></p>\n\t\t\t\t\t</div>\n\t\t\t\t</div>\n\t\t\t</div>\n\t\t\t","response":null,"trial_type":"html-keyboard-response","trial_index":108,"time_elapsed":562697,"internal_node_id":"0.0-3.0-2.25","prolific_id":"62b08773cf2ee3e1920099c8","session_id":"643c252be9613f6b3c8b6f82","study_id":"64370a36d30bfa807bc7e43c"},{"rt":1353,"stimulus":"\n\t\t\t\t\t<div>\n\t\t\t\t\t<h2>Trial 26 is over</h2>\n\t\t\t\t\t<p>Press <span style=\"color: red\"><strong>any key</strong></span> to continue to the next trial</p>\n\t\t\t\t\t</div>\n\t\t\t\t","response":" ","trial_type":"html-keyboard-response","trial_index":109,"time_elapsed":564051,"internal_node_id":"0.0-3.0-3.25","prolific_id":"62b08773cf2ee3e1920099c8","session_id":"643c252be9613f6b3c8b6f82","study_id":"64370a36d30bfa807bc7e43c"},{"rt":10004,"response":{"prediction":"1890"},"trial_type":"survey-text","trial_index":110,"time_elapsed":574059,"internal_node_id":"0.0-3.0-0.26","prolific_id":"62b08773cf2ee3e1920099c8","session_id":"643c252be9613f6b3c8b6f82","study_id":"64370a36d30bfa807bc7e43c"},{"rt":3454,"response":{"prior knowledge":0,"curiosity":2},"accuracy":[],"trial_type":"survey","trial_index":111,"time_elapsed":577524,"internal_node_id":"0.0-3.0-1.26","prolific_id":"62b08773cf2ee3e1920099c8","session_id":"643c252be9613f6b3c8b6f82","study_id":"64370a36d30bfa807bc7e43c"},{"rt":null,"stimulus":"\n\t\t\t<div class=\"flip_card\">\n\t\t\t\t<div class=\"flip_card_inner\">\n\t\t\t\t\t<div class=\"flip_card_front\">\n\t\t\t\t\t\t<img src=img/20.png>\n\t\t\t\t\t</div>\n\t\t\t\t\t<div class=\"flip_card_back\">\n\t\t\t\t\t\t<h2>In what year was the first Nobel Prize awarded?</h2>\n\t\t\t\t\t\t<br>\n\t\t\t\t\t\t<p>Answer: <strong>1901</strong></p>\n\t\t\t\t\t</div>\n\t\t\t\t</div>\n\t\t\t</div>\n\t\t\t","response":null,"trial_type":"html-keyboard-response","trial_index":112,"time_elapsed":582526,"internal_node_id":"0.0-3.0-2.26","prolific_id":"62b08773cf2ee3e1920099c8","session_id":"643c252be9613f6b3c8b6f82","study_id":"64370a36d30bfa807bc7e43c"},{"rt":1589,"stimulus":"\n\t\t\t\t\t<div>\n\t\t\t\t\t<h2>Trial 27 is over</h2>\n\t\t\t\t\t<p>Press <span style=\"color: red\"><strong>any key</strong></span> to continue to the next trial</p>\n\t\t\t\t\t</div>\n\t\t\t\t","response":" ","trial_type":"html-keyboard-response","trial_index":113,"time_elapsed":584116,"internal_node_id":"0.0-3.0-3.26","prolific_id":"62b08773cf2ee3e1920099c8","session_id":"643c252be9613f6b3c8b6f82","study_id":"64370a36d30bfa807bc7e43c"},{"rt":7579,"response":{"prediction":"123"},"trial_type":"survey-text","trial_index":114,"time_elapsed":591698,"internal_node_id":"0.0-3.0-0.27","prolific_id":"62b08773cf2ee3e1920099c8","session_id":"643c252be9613f6b3c8b6f82","study_id":"64370a36d30bfa807bc7e43c"},{"rt":4327,"response":{"prior knowledge":0,"curiosity":3},"accuracy":[],"trial_type":"survey","trial_index":115,"time_elapsed":596036,"internal_node_id":"0.0-3.0-1.27","prolific_id":"62b08773cf2ee3e1920099c8","session_id":"643c252be9613f6b3c8b6f82","study_id":"64370a36d30bfa807bc7e43c"},{"rt":null,"stimulus":"\n\t\t\t<div class=\"flip_card\">\n\t\t\t\t<div class=\"flip_card_inner\">\n\t\t\t\t\t<div class=\"flip_card_front\">\n\t\t\t\t\t\t<img src=img/2.png>\n\t\t\t\t\t</div>\n\t\t\t\t\t<div class=\"flip_card_back\">\n\t\t\t\t\t\t<h2>How many double stitches does a baseball have?</h2>\n\t\t\t\t\t\t<br>\n\t\t\t\t\t\t<p>Answer: <strong>108</strong></p>\n\t\t\t\t\t</div>\n\t\t\t\t</div>\n\t\t\t</div>\n\t\t\t","response":null,"trial_type":"html-keyboard-response","trial_index":116,"time_elapsed":601038,"internal_node_id":"0.0-3.0-2.27","prolific_id":"62b08773cf2ee3e1920099c8","session_id":"643c252be9613f6b3c8b6f82","study_id":"64370a36d30bfa807bc7e43c"},{"rt":1181,"stimulus":"\n\t\t\t\t\t<div>\n\t\t\t\t\t<h2>Trial 28 is over</h2>\n\t\t\t\t\t<p>Press <span style=\"color: red\"><strong>any key</strong></span> to continue to the next trial</p>\n\t\t\t\t\t</div>\n\t\t\t\t","response":" ","trial_type":"html-keyboard-response","trial_index":117,"time_elapsed":602219,"internal_node_id":"0.0-3.0-3.27","prolific_id":"62b08773cf2ee3e1920099c8","session_id":"643c252be9613f6b3c8b6f82","study_id":"64370a36d30bfa807bc7e43c"},{"rt":6332,"response":{"prediction":"28"},"trial_type":"survey-text","trial_index":118,"time_elapsed":608555,"internal_node_id":"0.0-3.0-0.28","prolific_id":"62b08773cf2ee3e1920099c8","session_id":"643c252be9613f6b3c8b6f82","study_id":"64370a36d30bfa807bc7e43c"},{"rt":3814,"response":{"prior knowledge":1,"curiosity":3},"accuracy":[],"trial_type":"survey","trial_index":119,"time_elapsed":612380,"internal_node_id":"0.0-3.0-1.28","prolific_id":"62b08773cf2ee3e1920099c8","session_id":"643c252be9613f6b3c8b6f82","study_id":"64370a36d30bfa807bc7e43c"},{"rt":null,"stimulus":"\n\t\t\t<div class=\"flip_card\">\n\t\t\t\t<div class=\"flip_card_inner\">\n\t\t\t\t\t<div class=\"flip_card_front\">\n\t\t\t\t\t\t<img src=img/10.png>\n\t\t\t\t\t</div>\n\t\t\t\t\t<div class=\"flip_card_back\">\n\t\t\t\t\t\t<h2>How many lines are in a sonnet?</h2>\n\t\t\t\t\t\t<br>\n\t\t\t\t\t\t<p>Answer: <strong>14</strong></p>\n\t\t\t\t\t</div>\n\t\t\t\t</div>\n\t\t\t</div>\n\t\t\t","response":null,"trial_type":"html-keyboard-response","trial_index":120,"time_elapsed":617388,"internal_node_id":"0.0-3.0-2.28","prolific_id":"62b08773cf2ee3e1920099c8","session_id":"643c252be9613f6b3c8b6f82","study_id":"64370a36d30bfa807bc7e43c"},{"rt":1304,"stimulus":"\n\t\t\t\t\t<div>\n\t\t\t\t\t<h2>Trial 29 is over</h2>\n\t\t\t\t\t<p>Press <span style=\"color: red\"><strong>any key</strong></span> to continue to the next trial</p>\n\t\t\t\t\t</div>\n\t\t\t\t","response":" ","trial_type":"html-keyboard-response","trial_index":121,"time_elapsed":618692,"internal_node_id":"0.0-3.0-3.28","prolific_id":"62b08773cf2ee3e1920099c8","session_id":"643c252be9613f6b3c8b6f82","study_id":"64370a36d30bfa807bc7e43c"},{"rt":8963,"response":{"prediction":"2006"},"trial_type":"survey-text","trial_index":122,"time_elapsed":627659,"internal_node_id":"0.0-3.0-0.29","prolific_id":"62b08773cf2ee3e1920099c8","session_id":"643c252be9613f6b3c8b6f82","study_id":"64370a36d30bfa807bc7e43c"},{"rt":4311,"response":{"prior knowledge":1,"curiosity":2},"accuracy":[],"trial_type":"survey","trial_index":123,"time_elapsed":631980,"internal_node_id":"0.0-3.0-1.29","prolific_id":"62b08773cf2ee3e1920099c8","session_id":"643c252be9613f6b3c8b6f82","study_id":"64370a36d30bfa807bc7e43c"},{"rt":null,"stimulus":"\n\t\t\t<div class=\"flip_card\">\n\t\t\t\t<div class=\"flip_card_inner\">\n\t\t\t\t\t<div class=\"flip_card_front\">\n\t\t\t\t\t\t<img src=img/7.png>\n\t\t\t\t\t</div>\n\t\t\t\t\t<div class=\"flip_card_back\">\n\t\t\t\t\t\t<h2>What year was the very first model of the iPhone released?</h2>\n\t\t\t\t\t\t<br>\n\t\t\t\t\t\t<p>Answer: <strong>2007</strong></p>\n\t\t\t\t\t</div>\n\t\t\t\t</div>\n\t\t\t</div>\n\t\t\t","response":null,"trial_type":"html-keyboard-response","trial_index":124,"time_elapsed":636982,"internal_node_id":"0.0-3.0-2.29","prolific_id":"62b08773cf2ee3e1920099c8","session_id":"643c252be9613f6b3c8b6f82","study_id":"64370a36d30bfa807bc7e43c"},{"rt":1428,"stimulus":"\n\t\t\t\t\t<div>\n\t\t\t\t\t<h2>Trial 30 is over</h2>\n\t\t\t\t\t<p>Press <span style=\"color: red\"><strong>any key</strong></span> to continue to the next trial</p>\n\t\t\t\t\t</div>\n\t\t\t\t","response":" ","trial_type":"html-keyboard-response","trial_index":125,"time_elapsed":638411,"internal_node_id":"0.0-3.0-3.29","prolific_id":"62b08773cf2ee3e1920099c8","session_id":"643c252be9613f6b3c8b6f82","study_id":"64370a36d30bfa807bc7e43c"},{"rt":null,"stimulus":"\n\t\t\t<h2>Good job! You've finished the 30 trials:p</h2>\n\t\t\t<p>In the next session, you will see two cards on the screen in each trial.</p>\n\t\t\t<p>On one card is a pattern that you have seen before in the experiment,\n\t\t\t\tand on the other card is one you have not seen.</p><br>\n\t\t\t<p>Your task is to choose the one you think you <em>have</em> seen before for every trial.</p>\n\t\t\t<p>Press '<span style=\"color: red;\"><strong>F</strong></span>' to choose the card on the left,\n\t\t\t\tand '<span style=\"color: red;\"><strong>J</strong></span>' to choose the card on the right.</p>\n\t\t\t<p>Have fun!</p>\n\t\t\t<br>\n\t\t\t<p>The trials will begin in 30 seconds</p>\n\t\t\t","response":null,"trial_type":"html-keyboard-response","trial_index":126,"time_elapsed":668421,"internal_node_id":"0.0-4.0","prolific_id":"62b08773cf2ee3e1920099c8","session_id":"643c252be9613f6b3c8b6f82","study_id":"64370a36d30bfa807bc7e43c"},{"rt":1603,"stimulus":"\n\t\t\t\t\t\t<div class=\"two_card_container\">\n\t\t\t\t\t\t<div class=\"card_container\">\n\t\t\t\t\t\t<img src=img/10.png>\n\t\t\t\t\t\t</div>\n\n\t\t\t\t\t\t<div class=\"card_container\">\n\t\t\t\t\t\t<img src=img/38.png>\n\t\t\t\t\t\t</div>","response":"f","task":"response","correct_response":"f","trial_type":"html-keyboard-response","trial_index":127,"time_elapsed":670028,"internal_node_id":"0.0-5.0-0.0","prolific_id":"62b08773cf2ee3e1920099c8","session_id":"643c252be9613f6b3c8b6f82","study_id":"64370a36d30bfa807bc7e43c","correct":true},{"rt":null,"stimulus":"\n\t\t\t\t\t<p>Correct!</p>\n\t\t\t\t\t","response":null,"trial_type":"html-keyboard-response","trial_index":128,"time_elapsed":671034,"internal_node_id":"0.0-5.0-1.0","prolific_id":"62b08773cf2ee3e1920099c8","session_id":"643c252be9613f6b3c8b6f82","study_id":"64370a36d30bfa807bc7e43c"},{"rt":1711,"stimulus":"\n\t\t\t\t\t\t<div class=\"two_card_container\">\n\t\t\t\t\t\t<div class=\"card_container\">\n\t\t\t\t\t\t<img src=img/30.png>\n\t\t\t\t\t\t</div>\n\n\t\t\t\t\t\t<div class=\"card_container\">\n\t\t\t\t\t\t<img src=img/37.png>\n\t\t\t\t\t\t</div>","response":"f","task":"response","correct_response":"f","trial_type":"html-keyboard-response","trial_index":129,"time_elapsed":672747,"internal_node_id":"0.0-5.0-0.1","prolific_id":"62b08773cf2ee3e1920099c8","session_id":"643c252be9613f6b3c8b6f82","study_id":"64370a36d30bfa807bc7e43c","correct":true},{"rt":null,"stimulus":"\n\t\t\t\t\t<p>Correct!</p>\n\t\t\t\t\t","response":null,"trial_type":"html-keyboard-response","trial_index":130,"time_elapsed":673757,"internal_node_id":"0.0-5.0-1.1","prolific_id":"62b08773cf2ee3e1920099c8","session_id":"643c252be9613f6b3c8b6f82","study_id":"64370a36d30bfa807bc7e43c"},{"rt":1508,"stimulus":"\n\t\t\t\t\t\t<div class=\"two_card_container\">\n\t\t\t\t\t\t<div class=\"card_container\">\n\t\t\t\t\t\t<img src=img/15.png>\n\t\t\t\t\t\t</div>\n\n\t\t\t\t\t\t<div class=\"card_container\">\n\t\t\t\t\t\t<img src=img/36.png>\n\t\t\t\t\t\t</div>","response":"f","task":"response","correct_response":"f","trial_type":"html-keyboard-response","trial_index":131,"time_elapsed":675267,"internal_node_id":"0.0-5.0-0.2","prolific_id":"62b08773cf2ee3e1920099c8","session_id":"643c252be9613f6b3c8b6f82","study_id":"64370a36d30bfa807bc7e43c","correct":true},{"rt":null,"stimulus":"\n\t\t\t\t\t<p>Correct!</p>\n\t\t\t\t\t","response":null,"trial_type":"html-keyboard-response","trial_index":132,"time_elapsed":676270,"internal_node_id":"0.0-5.0-1.2","prolific_id":"62b08773cf2ee3e1920099c8","session_id":"643c252be9613f6b3c8b6f82","study_id":"64370a36d30bfa807bc7e43c"},{"rt":1715,"stimulus":"\n\t\t\t\t\t\t<div class=\"two_card_container\">\n\t\t\t\t\t\t<div class=\"card_container\">\n\t\t\t\t\t\t<img src=img/33.png>\n\t\t\t\t\t\t</div>\n\n\t\t\t\t\t\t<div class=\"card_container\">\n\t\t\t\t\t\t<img src=img/29.png>\n\t\t\t\t\t\t</div>","response":"j","task":"response","correct_response":"j","trial_type":"html-keyboard-response","trial_index":133,"time_elapsed":677987,"internal_node_id":"0.0-5.0-0.3","prolific_id":"62b08773cf2ee3e1920099c8","session_id":"643c252be9613f6b3c8b6f82","study_id":"64370a36d30bfa807bc7e43c","correct":true},{"rt":null,"stimulus":"\n\t\t\t\t\t<p>Correct!</p>\n\t\t\t\t\t","response":null,"trial_type":"html-keyboard-response","trial_index":134,"time_elapsed":678990,"internal_node_id":"0.0-5.0-1.3","prolific_id":"62b08773cf2ee3e1920099c8","session_id":"643c252be9613f6b3c8b6f82","study_id":"64370a36d30bfa807bc7e43c"},{"rt":1932,"stimulus":"\n\t\t\t\t\t\t<div class=\"two_card_container\">\n\t\t\t\t\t\t<div class=\"card_container\">\n\t\t\t\t\t\t<img src=img/40.png>\n\t\t\t\t\t\t</div>\n\n\t\t\t\t\t\t<div class=\"card_container\">\n\t\t\t\t\t\t<img src=img/7.png>\n\t\t\t\t\t\t</div>","response":"j","task":"response","correct_response":"j","trial_type":"html-keyboard-response","trial_index":135,"time_elapsed":680924,"internal_node_id":"0.0-5.0-0.4","prolific_id":"62b08773cf2ee3e1920099c8","session_id":"643c252be9613f6b3c8b6f82","study_id":"64370a36d30bfa807bc7e43c","correct":true},{"rt":null,"stimulus":"\n\t\t\t\t\t<p>Correct!</p>\n\t\t\t\t\t","response":null,"trial_type":"html-keyboard-response","trial_index":136,"time_elapsed":681927,"internal_node_id":"0.0-5.0-1.4","prolific_id":"62b08773cf2ee3e1920099c8","session_id":"643c252be9613f6b3c8b6f82","study_id":"64370a36d30bfa807bc7e43c"},{"rt":2002,"stimulus":"\n\t\t\t\t\t\t<div class=\"two_card_container\">\n\t\t\t\t\t\t<div class=\"card_container\">\n\t\t\t\t\t\t<img src=img/3.png>\n\t\t\t\t\t\t</div>\n\n\t\t\t\t\t\t<div class=\"card_container\">\n\t\t\t\t\t\t<img src=img/31.png>\n\t\t\t\t\t\t</div>","response":"f","task":"response","correct_response":"f","trial_type":"html-keyboard-response","trial_index":137,"time_elapsed":683931,"internal_node_id":"0.0-5.0-0.5","prolific_id":"62b08773cf2ee3e1920099c8","session_id":"643c252be9613f6b3c8b6f82","study_id":"64370a36d30bfa807bc7e43c","correct":true},{"rt":null,"stimulus":"\n\t\t\t\t\t<p>Correct!</p>\n\t\t\t\t\t","response":null,"trial_type":"html-keyboard-response","trial_index":138,"time_elapsed":684940,"internal_node_id":"0.0-5.0-1.5","prolific_id":"62b08773cf2ee3e1920099c8","session_id":"643c252be9613f6b3c8b6f82","study_id":"64370a36d30bfa807bc7e43c"},{"rt":1477,"stimulus":"\n\t\t\t\t\t\t<div class=\"two_card_container\">\n\t\t\t\t\t\t<div class=\"card_container\">\n\t\t\t\t\t\t<img src=img/22.png>\n\t\t\t\t\t\t</div>\n\n\t\t\t\t\t\t<div class=\"card_container\">\n\t\t\t\t\t\t<img src=img/35.png>\n\t\t\t\t\t\t</div>","response":"f","task":"response","correct_response":"f","trial_type":"html-keyboard-response","trial_index":139,"time_elapsed":686419,"internal_node_id":"0.0-5.0-0.6","prolific_id":"62b08773cf2ee3e1920099c8","session_id":"643c252be9613f6b3c8b6f82","study_id":"64370a36d30bfa807bc7e43c","correct":true},{"rt":null,"stimulus":"\n\t\t\t\t\t<p>Correct!</p>\n\t\t\t\t\t","response":null,"trial_type":"html-keyboard-response","trial_index":140,"time_elapsed":687421,"internal_node_id":"0.0-5.0-1.6","prolific_id":"62b08773cf2ee3e1920099c8","session_id":"643c252be9613f6b3c8b6f82","study_id":"64370a36d30bfa807bc7e43c"},{"rt":1196,"stimulus":"\n\t\t\t\t\t\t<div class=\"two_card_container\">\n\t\t\t\t\t\t<div class=\"card_container\">\n\t\t\t\t\t\t<img src=img/32.png>\n\t\t\t\t\t\t</div>\n\n\t\t\t\t\t\t<div class=\"card_container\">\n\t\t\t\t\t\t<img src=img/23.png>\n\t\t\t\t\t\t</div>","response":"j","task":"response","correct_response":"j","trial_type":"html-keyboard-response","trial_index":141,"time_elapsed":688619,"internal_node_id":"0.0-5.0-0.7","prolific_id":"62b08773cf2ee3e1920099c8","session_id":"643c252be9613f6b3c8b6f82","study_id":"64370a36d30bfa807bc7e43c","correct":true},{"rt":null,"stimulus":"\n\t\t\t\t\t<p>Correct!</p>\n\t\t\t\t\t","response":null,"trial_type":"html-keyboard-response","trial_index":142,"time_elapsed":689625,"internal_node_id":"0.0-5.0-1.7","prolific_id":"62b08773cf2ee3e1920099c8","session_id":"643c252be9613f6b3c8b6f82","study_id":"64370a36d30bfa807bc7e43c"},{"rt":1353,"stimulus":"\n\t\t\t\t\t\t<div class=\"two_card_container\">\n\t\t\t\t\t\t<div class=\"card_container\">\n\t\t\t\t\t\t<img src=img/39.png>\n\t\t\t\t\t\t</div>\n\n\t\t\t\t\t\t<div class=\"card_container\">\n\t\t\t\t\t\t<img src=img/24.png>\n\t\t\t\t\t\t</div>","response":"j","task":"response","correct_response":"j","trial_type":"html-keyboard-response","trial_index":143,"time_elapsed":690979,"internal_node_id":"0.0-5.0-0.8","prolific_id":"62b08773cf2ee3e1920099c8","session_id":"643c252be9613f6b3c8b6f82","study_id":"64370a36d30bfa807bc7e43c","correct":true},{"rt":null,"stimulus":"\n\t\t\t\t\t<p>Correct!</p>\n\t\t\t\t\t","response":null,"trial_type":"html-keyboard-response","trial_index":144,"time_elapsed":691983,"internal_node_id":"0.0-5.0-1.8","prolific_id":"62b08773cf2ee3e1920099c8","session_id":"643c252be9613f6b3c8b6f82","study_id":"64370a36d30bfa807bc7e43c"},{"rt":1354,"stimulus":"\n\t\t\t\t\t\t<div class=\"two_card_container\">\n\t\t\t\t\t\t<div class=\"card_container\">\n\t\t\t\t\t\t<img src=img/34.png>\n\t\t\t\t\t\t</div>\n\n\t\t\t\t\t\t<div class=\"card_container\">\n\t\t\t\t\t\t<img src=img/5.png>\n\t\t\t\t\t\t</div>","response":"j","task":"response","correct_response":"j","trial_type":"html-keyboard-response","trial_index":145,"time_elapsed":693339,"internal_node_id":"0.0-5.0-0.9","prolific_id":"62b08773cf2ee3e1920099c8","session_id":"643c252be9613f6b3c8b6f82","study_id":"64370a36d30bfa807bc7e43c","correct":true},{"rt":null,"stimulus":"\n\t\t\t\t\t<p>Correct!</p>\n\t\t\t\t\t","response":null,"trial_type":"html-keyboard-response","trial_index":146,"time_elapsed":694342,"internal_node_id":"0.0-5.0-1.9","prolific_id":"62b08773cf2ee3e1920099c8","session_id":"643c252be9613f6b3c8b6f82","study_id":"64370a36d30bfa807bc7e43c"},{"rt":null,"stimulus":"\n\t\t\t<h2>Good job :p</h2>\n\t\t\t<p>In the next session, you will see a trivia question on the screen in each trial.</p>\n\t\t\t<p>Each of these trivia questions is chosen from the questions you have already seen in the first session of the experiment.</p><br>\n\t\t\t<p>Your task is to answer the trivia question based on what you remember as accurately as you can.</p>\n\t\t\t<p>Have fun!</p>\n\t\t\t<br>\n\t\t\t<p>The trials will begin in 30 seconds</p>\n\t\t\t","response":null,"trial_type":"html-keyboard-response","trial_index":147,"time_elapsed":724345,"internal_node_id":"0.0-6.0","prolific_id":"62b08773cf2ee3e1920099c8","session_id":"643c252be9613f6b3c8b6f82","study_id":"64370a36d30bfa807bc7e43c"},{"rt":5261,"response":{"answer":"13"},"task":"response","correct_response":"13","trial_type":"survey-text","trial_index":148,"time_elapsed":729610,"internal_node_id":"0.0-7.0-0.0","prolific_id":"62b08773cf2ee3e1920099c8","session_id":"643c252be9613f6b3c8b6f82","study_id":"64370a36d30bfa807bc7e43c","difference":0},{"rt":null,"stimulus":"<h2>The correct answer is 13.</h2><p>Your answer was different from the answer by 0.</p><p>You got the right answer. Amazing work!</p>","response":null,"trial_type":"html-keyboard-response","trial_index":149,"time_elapsed":732121,"internal_node_id":"0.0-7.0-1.0","prolific_id":"62b08773cf2ee3e1920099c8","session_id":"643c252be9613f6b3c8b6f82","study_id":"64370a36d30bfa807bc7e43c"},{"rt":4886,"response":{"answer":"1903"},"task":"response","correct_response":"1901","trial_type":"survey-text","trial_index":150,"time_elapsed":737010,"internal_node_id":"0.0-7.0-0.1","prolific_id":"62b08773cf2ee3e1920099c8","session_id":"643c252be9613f6b3c8b6f82","study_id":"64370a36d30bfa807bc7e43c","difference":0},{"rt":null,"stimulus":"<h2>The correct answer is 1901.</h2><p>Your answer was different from the answer by 2.</p><p>Excellent. Kudos to you!</p>","response":null,"trial_type":"html-keyboard-response","trial_index":151,"time_elapsed":739514,"internal_node_id":"0.0-7.0-1.1","prolific_id":"62b08773cf2ee3e1920099c8","session_id":"643c252be9613f6b3c8b6f82","study_id":"64370a36d30bfa807bc7e43c"},{"rt":6997,"response":{"answer":"7300"},"task":"response","correct_response":"13171","trial_type":"survey-text","trial_index":152,"time_elapsed":746514,"internal_node_id":"0.0-7.0-0.2","prolific_id":"62b08773cf2ee3e1920099c8","session_id":"643c252be9613f6b3c8b6f82","study_id":"64370a36d30bfa807bc7e43c","difference":45},{"rt":null,"stimulus":"<h2>The correct answer is 13171.</h2><p>Your answer was different from the answer by 5871.</p><p>Not the worst. Can you do better on the next?</p>","response":null,"trial_type":"html-keyboard-response","trial_index":153,"time_elapsed":749019,"internal_node_id":"0.0-7.0-1.2","prolific_id":"62b08773cf2ee3e1920099c8","session_id":"643c252be9613f6b3c8b6f82","study_id":"64370a36d30bfa807bc7e43c"},{"rt":5091,"response":{"answer":"163"},"task":"response","correct_response":"163","trial_type":"survey-text","trial_index":154,"time_elapsed":754114,"internal_node_id":"0.0-7.0-0.3","prolific_id":"62b08773cf2ee3e1920099c8","session_id":"643c252be9613f6b3c8b6f82","study_id":"64370a36d30bfa807bc7e43c","difference":0},{"rt":null,"stimulus":"<h2>The correct answer is 163.</h2><p>Your answer was different from the answer by 0.</p><p>You got the right answer. Amazing work!</p>","response":null,"trial_type":"html-keyboard-response","trial_index":155,"time_elapsed":756623,"internal_node_id":"0.0-7.0-1.3","prolific_id":"62b08773cf2ee3e1920099c8","session_id":"643c252be9613f6b3c8b6f82","study_id":"64370a36d30bfa807bc7e43c"},{"rt":5335,"response":{"answer":"1901"},"task":"response","correct_response":"1907","trial_type":"survey-text","trial_index":156,"time_elapsed":761961,"internal_node_id":"0.0-7.0-0.4","prolific_id":"62b08773cf2ee3e1920099c8","session_id":"643c252be9613f6b3c8b6f82","study_id":"64370a36d30bfa807bc7e43c","difference":0},{"rt":null,"stimulus":"<h2>The correct answer is 1907.</h2><p>Your answer was different from the answer by 6.</p><p>Excellent. Kudos to you!</p>","response":null,"trial_type":"html-keyboard-response","trial_index":157,"time_elapsed":764462,"internal_node_id":"0.0-7.0-1.4","prolific_id":"62b08773cf2ee3e1920099c8","session_id":"643c252be9613f6b3c8b6f82","study_id":"64370a36d30bfa807bc7e43c"},{"rt":4104,"response":{"answer":"300"},"task":"response","correct_response":"300","trial_type":"survey-text","trial_index":158,"time_elapsed":768570,"internal_node_id":"0.0-7.0-0.5","prolific_id":"62b08773cf2ee3e1920099c8","session_id":"643c252be9613f6b3c8b6f82","study_id":"64370a36d30bfa807bc7e43c","difference":0},{"rt":null,"stimulus":"<h2>The correct answer is 300.</h2><p>Your answer was different from the answer by 0.</p><p>You got the right answer. Amazing work!</p>","response":null,"trial_type":"html-keyboard-response","trial_index":159,"time_elapsed":771071,"internal_node_id":"0.0-7.0-1.5","prolific_id":"62b08773cf2ee3e1920099c8","session_id":"643c252be9613f6b3c8b6f82","study_id":"64370a36d30bfa807bc7e43c"},{"rt":3512,"response":{"answer":"12"},"task":"response","correct_response":"12","trial_type":"survey-text","trial_index":160,"time_elapsed":774586,"internal_node_id":"0.0-7.0-0.6","prolific_id":"62b08773cf2ee3e1920099c8","session_id":"643c252be9613f6b3c8b6f82","study_id":"64370a36d30bfa807bc7e43c","difference":0},{"rt":null,"stimulus":"<h2>The correct answer is 12.</h2><p>Your answer was different from the answer by 0.</p><p>You got the right answer. Amazing work!</p>","response":null,"trial_type":"html-keyboard-response","trial_index":161,"time_elapsed":777100,"internal_node_id":"0.0-7.0-1.6","prolific_id":"62b08773cf2ee3e1920099c8","session_id":"643c252be9613f6b3c8b6f82","study_id":"64370a36d30bfa807bc7e43c"},{"rt":3563,"response":{"answer":"1989"},"task":"response","correct_response":"1989","trial_type":"survey-text","trial_index":162,"time_elapsed":780666,"internal_node_id":"0.0-7.0-0.7","prolific_id":"62b08773cf2ee3e1920099c8","session_id":"643c252be9613f6b3c8b6f82","study_id":"64370a36d30bfa807bc7e43c","difference":0},{"rt":null,"stimulus":"<h2>The correct answer is 1989.</h2><p>Your answer was different from the answer by 0.</p><p>You got the right answer. Amazing work!</p>","response":null,"trial_type":"html-keyboard-response","trial_index":163,"time_elapsed":783170,"internal_node_id":"0.0-7.0-1.7","prolific_id":"62b08773cf2ee3e1920099c8","session_id":"643c252be9613f6b3c8b6f82","study_id":"64370a36d30bfa807bc7e43c"},{"rt":3213,"response":{"answer":"65"},"task":"response","correct_response":"65","trial_type":"survey-text","trial_index":164,"time_elapsed":786386,"internal_node_id":"0.0-7.0-0.8","prolific_id":"62b08773cf2ee3e1920099c8","session_id":"643c252be9613f6b3c8b6f82","study_id":"64370a36d30bfa807bc7e43c","difference":0},{"rt":null,"stimulus":"<h2>The correct answer is 65.</h2><p>Your answer was different from the answer by 0.</p><p>You got the right answer. Amazing work!</p>","response":null,"trial_type":"html-keyboard-response","trial_index":165,"time_elapsed":788887,"internal_node_id":"0.0-7.0-1.8","prolific_id":"62b08773cf2ee3e1920099c8","session_id":"643c252be9613f6b3c8b6f82","study_id":"64370a36d30bfa807bc7e43c"},{"rt":4257,"response":{"answer":"79"},"task":"response","correct_response":"79","trial_type":"survey-text","trial_index":166,"time_elapsed":793146,"internal_node_id":"0.0-7.0-0.9","prolific_id":"62b08773cf2ee3e1920099c8","session_id":"643c252be9613f6b3c8b6f82","study_id":"64370a36d30bfa807bc7e43c","difference":0},{"rt":null,"stimulus":"<h2>The correct answer is 79.</h2><p>Your answer was different from the answer by 0.</p><p>You got the right answer. Amazing work!</p>","response":null,"trial_type":"html-keyboard-response","trial_index":167,"time_elapsed":795657,"internal_node_id":"0.0-7.0-1.9","prolific_id":"62b08773cf2ee3e1920099c8","session_id":"643c252be9613f6b3c8b6f82","study_id":"64370a36d30bfa807bc7e43c"}]