[{"success":true,"timeout":false,"failed_images":[],"failed_audio":[],"failed_video":[],"trial_type":"preload","trial_index":0,"time_elapsed":3539,"internal_node_id":"0.0-0.0","prolific_id":"62b9f3589e8d599c11a2f9fc","session_id":"643c24d80d8cc24ba0339900","study_id":"64370a36d30bfa807bc7e43c"},{"rt":10651,"stimulus":"\n\t\t\t\t\t<p>Welcome and thank you for participating in this study!</p>\n\t\t\t\t\t<p>In each trial, you will be given a trivia question and then be asked to:</p><br>\n\t\t\t\t\t<div class=\"list\">\n\t\t\t\t\t<p>1) Predict the answer</p>\n\t\t\t\t\t<p>2) Rate how much you already know about the topic</p>\n\t\t\t\t\t<p>3) Rate how much you want to know the answer</p>\n\t\t\t\t\t</div>\n\t\t\t\t\t<br>\n\t\t\t\t\t<p>Then, you will see a card that flips over to reveal the answer.</p>\n\t\t\t\t\t<br>\n\t\t\t\t\t<p>Let's try a practice round. Press <span style=\"color: red\"><strong>any key</strong></span> to move to the next slide</p>\n\t\t\t\t\t","response":" ","trial_type":"html-keyboard-response","trial_index":1,"time_elapsed":14200,"internal_node_id":"0.0-1.0","prolific_id":"62b9f3589e8d599c11a2f9fc","session_id":"643c24d80d8cc24ba0339900","study_id":"64370a36d30bfa807bc7e43c"},{"rt":8004,"response":{"practice prediction":"8"},"task":"practice","trial_type":"survey-text","trial_index":2,"time_elapsed":22274,"internal_node_id":"0.0-2.0-0.0","prolific_id":"62b9f3589e8d599c11a2f9fc","session_id":"643c24d80d8cc24ba0339900","study_id":"64370a36d30bfa807bc7e43c"},{"rt":13608,"response":{"practice":5},"accuracy":[],"trial_type":"survey","trial_index":3,"time_elapsed":36085,"internal_node_id":"0.0-2.0-1.0","prolific_id":"62b9f3589e8d599c11a2f9fc","session_id":"643c24d80d8cc24ba0339900","study_id":"64370a36d30bfa807bc7e43c"},{"rt":null,"stimulus":"\n\t\t\t\t<div class=\"flip_card\">\n\t\t\t\t\t<div class=\"flip_card_inner\">\n\t\t\t\t\t\t<div class=\"flip_card_front\">\n\t\t\t\t\t\t\t<img src=img/practice.png>\n\t\t\t\t\t\t</div>\n\t\t\t\t\t\t<div class=\"flip_card_back\">\n\t\t\t\t\t\t\t<h2>\"How many legs does a lobster have?\"</h2>\n\t\t\t\t\t\t    <br>\n\t\t\t\t\t\t    <p>Answer: <strong>\"10\"</strong></p>\n\t\t\t\t\t    </div>\n\t\t\t\t    </div>\n\t\t\t    </div>\n\t\t\t\t","response":null,"trial_type":"html-keyboard-response","trial_index":4,"time_elapsed":41091,"internal_node_id":"0.0-2.0-2.0","prolific_id":"62b9f3589e8d599c11a2f9fc","session_id":"643c24d80d8cc24ba0339900","study_id":"64370a36d30bfa807bc7e43c"},{"rt":1341,"stimulus":"\n\t\t\t\t\t<div>\n\t\t\t\t\t<h2>The practice round is over</h2>\n\t\t\t\t\t<p>Press <span style=\"color: red\"><strong>any key</strong></span> to continue to the actual trials</p>\n\t\t\t\t\t<p>Good Luck!</p>\n\t\t\t\t\t</div>\n\t\t\t\t\t","response":" ","trial_type":"html-keyboard-response","trial_index":5,"time_elapsed":42437,"internal_node_id":"0.0-2.0-3.0","prolific_id":"62b9f3589e8d599c11a2f9fc","session_id":"643c24d80d8cc24ba0339900","study_id":"64370a36d30bfa807bc7e43c"},{"rt":26037,"response":{"prediction":"85"},"trial_type":"survey-text","trial_index":6,"time_elapsed":68487,"internal_node_id":"0.0-3.0-0.0","prolific_id":"62b9f3589e8d599c11a2f9fc","session_id":"643c24d80d8cc24ba0339900","study_id":"64370a36d30bfa807bc7e43c"},{"rt":9077,"response":{"prior knowledge":5,"curiosity":5},"accuracy":[],"trial_type":"survey","trial_index":7,"time_elapsed":77639,"internal_node_id":"0.0-3.0-1.0","prolific_id":"62b9f3589e8d599c11a2f9fc","session_id":"643c24d80d8cc24ba0339900","study_id":"64370a36d30bfa807bc7e43c"},{"rt":null,"stimulus":"\n\t\t\t<div class=\"flip_card\">\n\t\t\t\t<div class=\"flip_card_inner\">\n\t\t\t\t\t<div class=\"flip_card_front\">\n\t\t\t\t\t\t<img src=img/30.png>\n\t\t\t\t\t</div>\n\t\t\t\t\t<div class=\"flip_card_back\">\n\t\t\t\t\t\t<h2>How many floors are in the Burj Khalifa, the tallest building in the world?</h2>\n\t\t\t\t\t\t<br>\n\t\t\t\t\t\t<p>Answer: <strong>163</strong></p>\n\t\t\t\t\t</div>\n\t\t\t\t</div>\n\t\t\t</div>\n\t\t\t","response":null,"trial_type":"html-keyboard-response","trial_index":8,"time_elapsed":82644,"internal_node_id":"0.0-3.0-2.0","prolific_id":"62b9f3589e8d599c11a2f9fc","session_id":"643c24d80d8cc24ba0339900","study_id":"64370a36d30bfa807bc7e43c"},{"rt":1228,"stimulus":"\n\t\t\t\t\t<div>\n\t\t\t\t\t<h2>Trial 1 is over</h2>\n\t\t\t\t\t<p>Press <span style=\"color: red\"><strong>any key</strong></span> to continue to the next trial</p>\n\t\t\t\t\t</div>\n\t\t\t\t","response":" ","trial_type":"html-keyboard-response","trial_index":9,"time_elapsed":83877,"internal_node_id":"0.0-3.0-3.0","prolific_id":"62b9f3589e8d599c11a2f9fc","session_id":"643c24d80d8cc24ba0339900","study_id":"64370a36d30bfa807bc7e43c"},{"rt":13045,"response":{"prediction":"5"},"trial_type":"survey-text","trial_index":10,"time_elapsed":96932,"internal_node_id":"0.0-3.0-0.1","prolific_id":"62b9f3589e8d599c11a2f9fc","session_id":"643c24d80d8cc24ba0339900","study_id":"64370a36d30bfa807bc7e43c"},{"rt":6865,"response":{"prior knowledge":5,"curiosity":5},"accuracy":[],"trial_type":"survey","trial_index":11,"time_elapsed":103863,"internal_node_id":"0.0-3.0-1.1","prolific_id":"62b9f3589e8d599c11a2f9fc","session_id":"643c24d80d8cc24ba0339900","study_id":"64370a36d30bfa807bc7e43c"},{"rt":null,"stimulus":"\n\t\t\t<div class=\"flip_card\">\n\t\t\t\t<div class=\"flip_card_inner\">\n\t\t\t\t\t<div class=\"flip_card_front\">\n\t\t\t\t\t\t<img src=img/16.png>\n\t\t\t\t\t</div>\n\t\t\t\t\t<div class=\"flip_card_back\">\n\t\t\t\t\t\t<h2>How many countries in Africa have French as the official language?</h2>\n\t\t\t\t\t\t<br>\n\t\t\t\t\t\t<p>Answer: <strong>21</strong></p>\n\t\t\t\t\t</div>\n\t\t\t\t</div>\n\t\t\t</div>\n\t\t\t","response":null,"trial_type":"html-keyboard-response","trial_index":12,"time_elapsed":108868,"internal_node_id":"0.0-3.0-2.1","prolific_id":"62b9f3589e8d599c11a2f9fc","session_id":"643c24d80d8cc24ba0339900","study_id":"64370a36d30bfa807bc7e43c"},{"rt":2406,"stimulus":"\n\t\t\t\t\t<div>\n\t\t\t\t\t<h2>Trial 2 is over</h2>\n\t\t\t\t\t<p>Press <span style=\"color: red\"><strong>any key</strong></span> to continue to the next trial</p>\n\t\t\t\t\t</div>\n\t\t\t\t","response":" ","trial_type":"html-keyboard-response","trial_index":13,"time_elapsed":111277,"internal_node_id":"0.0-3.0-3.1","prolific_id":"62b9f3589e8d599c11a2f9fc","session_id":"643c24d80d8cc24ba0339900","study_id":"64370a36d30bfa807bc7e43c"},{"rt":8292,"response":{"prediction":"10"},"trial_type":"survey-text","trial_index":14,"time_elapsed":119580,"internal_node_id":"0.0-3.0-0.2","prolific_id":"62b9f3589e8d599c11a2f9fc","session_id":"643c24d80d8cc24ba0339900","study_id":"64370a36d30bfa807bc7e43c"},{"rt":6566,"response":{"prior knowledge":5,"curiosity":5},"accuracy":[],"trial_type":"survey","trial_index":15,"time_elapsed":126224,"internal_node_id":"0.0-3.0-1.2","prolific_id":"62b9f3589e8d599c11a2f9fc","session_id":"643c24d80d8cc24ba0339900","study_id":"64370a36d30bfa807bc7e43c"},{"rt":null,"stimulus":"\n\t\t\t<div class=\"flip_card\">\n\t\t\t\t<div class=\"flip_card_inner\">\n\t\t\t\t\t<div class=\"flip_card_front\">\n\t\t\t\t\t\t<img src=img/15.png>\n\t\t\t\t\t</div>\n\t\t\t\t\t<div class=\"flip_card_back\">\n\t\t\t\t\t\t<h2>How many native species of kangaroos are found in Australia?</h2>\n\t\t\t\t\t\t<br>\n\t\t\t\t\t\t<p>Answer: <strong>4</strong></p>\n\t\t\t\t\t</div>\n\t\t\t\t</div>\n\t\t\t</div>\n\t\t\t","response":null,"trial_type":"html-keyboard-response","trial_index":16,"time_elapsed":131228,"internal_node_id":"0.0-3.0-2.2","prolific_id":"62b9f3589e8d599c11a2f9fc","session_id":"643c24d80d8cc24ba0339900","study_id":"64370a36d30bfa807bc7e43c"},{"rt":8168,"stimulus":"\n\t\t\t\t\t<div>\n\t\t\t\t\t<h2>Trial 3 is over</h2>\n\t\t\t\t\t<p>Press <span style=\"color: red\"><strong>any key</strong></span> to continue to the next trial</p>\n\t\t\t\t\t</div>\n\t\t\t\t","response":" ","trial_type":"html-keyboard-response","trial_index":17,"time_elapsed":139398,"internal_node_id":"0.0-3.0-3.2","prolific_id":"62b9f3589e8d599c11a2f9fc","session_id":"643c24d80d8cc24ba0339900","study_id":"64370a36d30bfa807bc7e43c"},{"rt":11638,"response":{"prediction":"25"},"trial_type":"survey-text","trial_index":18,"time_elapsed":151044,"internal_node_id":"0.0-3.0-0.3","prolific_id":"62b9f3589e8d599c11a2f9fc","session_id":"643c24d80d8cc24ba0339900","study_id":"64370a36d30bfa807bc7e43c"},{"rt":8636,"response":{"prior knowledge":3,"curiosity":5},"accuracy":[],"trial_type":"survey","trial_index":19,"time_elapsed":159746,"internal_node_id":"0.0-3.0-1.3","prolific_id":"62b9f3589e8d599c11a2f9fc","session_id":"643c24d80d8cc24ba0339900","study_id":"64370a36d30bfa807bc7e43c"},{"rt":null,"stimulus":"\n\t\t\t<div class=\"flip_card\">\n\t\t\t\t<div class=\"flip_card_inner\">\n\t\t\t\t\t<div class=\"flip_card_front\">\n\t\t\t\t\t\t<img src=img/7.png>\n\t\t\t\t\t</div>\n\t\t\t\t\t<div class=\"flip_card_back\">\n\t\t\t\t\t\t<h2>How many single hand gestures, or mudras, are used in Indian classical dance?</h2>\n\t\t\t\t\t\t<br>\n\t\t\t\t\t\t<p>Answer: <strong>28</strong></p>\n\t\t\t\t\t</div>\n\t\t\t\t</div>\n\t\t\t</div>\n\t\t\t","response":null,"trial_type":"html-keyboard-response","trial_index":20,"time_elapsed":164750,"internal_node_id":"0.0-3.0-2.3","prolific_id":"62b9f3589e8d599c11a2f9fc","session_id":"643c24d80d8cc24ba0339900","study_id":"64370a36d30bfa807bc7e43c"},{"rt":1311,"stimulus":"\n\t\t\t\t\t<div>\n\t\t\t\t\t<h2>Trial 4 is over</h2>\n\t\t\t\t\t<p>Press <span style=\"color: red\"><strong>any key</strong></span> to continue to the next trial</p>\n\t\t\t\t\t</div>\n\t\t\t\t","response":" ","trial_type":"html-keyboard-response","trial_index":21,"time_elapsed":166066,"internal_node_id":"0.0-3.0-3.3","prolific_id":"62b9f3589e8d599c11a2f9fc","session_id":"643c24d80d8cc24ba0339900","study_id":"64370a36d30bfa807bc7e43c"},{"rt":6476,"response":{"prediction":"4"},"trial_type":"survey-text","trial_index":22,"time_elapsed":172549,"internal_node_id":"0.0-3.0-0.4","prolific_id":"62b9f3589e8d599c11a2f9fc","session_id":"643c24d80d8cc24ba0339900","study_id":"64370a36d30bfa807bc7e43c"},{"rt":5976,"response":{"prior knowledge":5,"curiosity":5},"accuracy":[],"trial_type":"survey","trial_index":23,"time_elapsed":178591,"internal_node_id":"0.0-3.0-1.4","prolific_id":"62b9f3589e8d599c11a2f9fc","session_id":"643c24d80d8cc24ba0339900","study_id":"64370a36d30bfa807bc7e43c"},{"rt":null,"stimulus":"\n\t\t\t<div class=\"flip_card\">\n\t\t\t\t<div class=\"flip_card_inner\">\n\t\t\t\t\t<div class=\"flip_card_front\">\n\t\t\t\t\t\t<img src=img/27.png>\n\t\t\t\t\t</div>\n\t\t\t\t\t<div class=\"flip_card_back\">\n\t\t\t\t\t\t<h2>How many tones are in the Vietnamese language?</h2>\n\t\t\t\t\t\t<br>\n\t\t\t\t\t\t<p>Answer: <strong>6</strong></p>\n\t\t\t\t\t</div>\n\t\t\t\t</div>\n\t\t\t</div>\n\t\t\t","response":null,"trial_type":"html-keyboard-response","trial_index":24,"time_elapsed":183594,"internal_node_id":"0.0-3.0-2.4","prolific_id":"62b9f3589e8d599c11a2f9fc","session_id":"643c24d80d8cc24ba0339900","study_id":"64370a36d30bfa807bc7e43c"},{"rt":1181,"stimulus":"\n\t\t\t\t\t<div>\n\t\t\t\t\t<h2>Trial 5 is over</h2>\n\t\t\t\t\t<p>Press <span style=\"color: red\"><strong>any key</strong></span> to continue to the next trial</p>\n\t\t\t\t\t</div>\n\t\t\t\t","response":" ","trial_type":"html-keyboard-response","trial_index":25,"time_elapsed":184779,"internal_node_id":"0.0-3.0-3.4","prolific_id":"62b9f3589e8d599c11a2f9fc","session_id":"643c24d80d8cc24ba0339900","study_id":"64370a36d30bfa807bc7e43c"},{"rt":14824,"response":{"prediction":"2004"},"trial_type":"survey-text","trial_index":26,"time_elapsed":199614,"internal_node_id":"0.0-3.0-0.5","prolific_id":"62b9f3589e8d599c11a2f9fc","session_id":"643c24d80d8cc24ba0339900","study_id":"64370a36d30bfa807bc7e43c"},{"rt":6016,"response":{"prior knowledge":5,"curiosity":5},"accuracy":[],"trial_type":"survey","trial_index":27,"time_elapsed":205687,"internal_node_id":"0.0-3.0-1.5","prolific_id":"62b9f3589e8d599c11a2f9fc","session_id":"643c24d80d8cc24ba0339900","study_id":"64370a36d30bfa807bc7e43c"},{"rt":null,"stimulus":"\n\t\t\t<div class=\"flip_card\">\n\t\t\t\t<div class=\"flip_card_inner\">\n\t\t\t\t\t<div class=\"flip_card_front\">\n\t\t\t\t\t\t<img src=img/21.png>\n\t\t\t\t\t</div>\n\t\t\t\t\t<div class=\"flip_card_back\">\n\t\t\t\t\t\t<h2>What year was the very first model of the iPhone released?</h2>\n\t\t\t\t\t\t<br>\n\t\t\t\t\t\t<p>Answer: <strong>2007</strong></p>\n\t\t\t\t\t</div>\n\t\t\t\t</div>\n\t\t\t</div>\n\t\t\t","response":null,"trial_type":"html-keyboard-response","trial_index":28,"time_elapsed":210692,"internal_node_id":"0.0-3.0-2.5","prolific_id":"62b9f3589e8d599c11a2f9fc","session_id":"643c24d80d8cc24ba0339900","study_id":"64370a36d30bfa807bc7e43c"},{"rt":1075,"stimulus":"\n\t\t\t\t\t<div>\n\t\t\t\t\t<h2>Trial 6 is over</h2>\n\t\t\t\t\t<p>Press <span style=\"color: red\"><strong>any key</strong></span> to continue to the next trial</p>\n\t\t\t\t\t</div>\n\t\t\t\t","response":" ","trial_type":"html-keyboard-response","trial_index":29,"time_elapsed":211773,"internal_node_id":"0.0-3.0-3.5","prolific_id":"62b9f3589e8d599c11a2f9fc","session_id":"643c24d80d8cc24ba0339900","study_id":"64370a36d30bfa807bc7e43c"},{"rt":14275,"response":{"prediction":"1"},"trial_type":"survey-text","trial_index":30,"time_elapsed":226058,"internal_node_id":"0.0-3.0-0.6","prolific_id":"62b9f3589e8d599c11a2f9fc","session_id":"643c24d80d8cc24ba0339900","study_id":"64370a36d30bfa807bc7e43c"},{"rt":6253,"response":{"prior knowledge":5,"curiosity":5},"accuracy":[],"trial_type":"survey","trial_index":31,"time_elapsed":232377,"internal_node_id":"0.0-3.0-1.6","prolific_id":"62b9f3589e8d599c11a2f9fc","session_id":"643c24d80d8cc24ba0339900","study_id":"64370a36d30bfa807bc7e43c"},{"rt":null,"stimulus":"\n\t\t\t<div class=\"flip_card\">\n\t\t\t\t<div class=\"flip_card_inner\">\n\t\t\t\t\t<div class=\"flip_card_front\">\n\t\t\t\t\t\t<img src=img/20.png>\n\t\t\t\t\t</div>\n\t\t\t\t\t<div class=\"flip_card_back\">\n\t\t\t\t\t\t<h2>How many different animals (real or imaginary) are represented in the Chinese calendar?</h2>\n\t\t\t\t\t\t<br>\n\t\t\t\t\t\t<p>Answer: <strong>12</strong></p>\n\t\t\t\t\t</div>\n\t\t\t\t</div>\n\t\t\t</div>\n\t\t\t","response":null,"trial_type":"html-keyboard-response","trial_index":32,"time_elapsed":237380,"internal_node_id":"0.0-3.0-2.6","prolific_id":"62b9f3589e8d599c11a2f9fc","session_id":"643c24d80d8cc24ba0339900","study_id":"64370a36d30bfa807bc7e43c"},{"rt":1114,"stimulus":"\n\t\t\t\t\t<div>\n\t\t\t\t\t<h2>Trial 7 is over</h2>\n\t\t\t\t\t<p>Press <span style=\"color: red\"><strong>any key</strong></span> to continue to the next trial</p>\n\t\t\t\t\t</div>\n\t\t\t\t","response":" ","trial_type":"html-keyboard-response","trial_index":33,"time_elapsed":238495,"internal_node_id":"0.0-3.0-3.6","prolific_id":"62b9f3589e8d599c11a2f9fc","session_id":"643c24d80d8cc24ba0339900","study_id":"64370a36d30bfa807bc7e43c"},{"rt":12691,"response":{"prediction":"10"},"trial_type":"survey-text","trial_index":34,"time_elapsed":251199,"internal_node_id":"0.0-3.0-0.7","prolific_id":"62b9f3589e8d599c11a2f9fc","session_id":"643c24d80d8cc24ba0339900","study_id":"64370a36d30bfa807bc7e43c"},{"rt":5791,"response":{"prior knowledge":5,"curiosity":5},"accuracy":[],"trial_type":"survey","trial_index":35,"time_elapsed":257049,"internal_node_id":"0.0-3.0-1.7","prolific_id":"62b9f3589e8d599c11a2f9fc","session_id":"643c24d80d8cc24ba0339900","study_id":"64370a36d30bfa807bc7e43c"},{"rt":null,"stimulus":"\n\t\t\t<div class=\"flip_card\">\n\t\t\t\t<div class=\"flip_card_inner\">\n\t\t\t\t\t<div class=\"flip_card_front\">\n\t\t\t\t\t\t<img src=img/6.png>\n\t\t\t\t\t</div>\n\t\t\t\t\t<div class=\"flip_card_back\">\n\t\t\t\t\t\t<h2>How many soccer players should each team have on the field at the start of each match?</h2>\n\t\t\t\t\t\t<br>\n\t\t\t\t\t\t<p>Answer: <strong>11</strong></p>\n\t\t\t\t\t</div>\n\t\t\t\t</div>\n\t\t\t</div>\n\t\t\t","response":null,"trial_type":"html-keyboard-response","trial_index":36,"time_elapsed":262055,"internal_node_id":"0.0-3.0-2.7","prolific_id":"62b9f3589e8d599c11a2f9fc","session_id":"643c24d80d8cc24ba0339900","study_id":"64370a36d30bfa807bc7e43c"},{"rt":1049,"stimulus":"\n\t\t\t\t\t<div>\n\t\t\t\t\t<h2>Trial 8 is over</h2>\n\t\t\t\t\t<p>Press <span style=\"color: red\"><strong>any key</strong></span> to continue to the next trial</p>\n\t\t\t\t\t</div>\n\t\t\t\t","response":" ","trial_type":"html-keyboard-response","trial_index":37,"time_elapsed":263108,"internal_node_id":"0.0-3.0-3.7","prolific_id":"62b9f3589e8d599c11a2f9fc","session_id":"643c24d80d8cc24ba0339900","study_id":"64370a36d30bfa807bc7e43c"},{"rt":7388,"response":{"prediction":"1"},"trial_type":"survey-text","trial_index":38,"time_elapsed":270505,"internal_node_id":"0.0-3.0-0.8","prolific_id":"62b9f3589e8d599c11a2f9fc","session_id":"643c24d80d8cc24ba0339900","study_id":"64370a36d30bfa807bc7e43c"},{"rt":5845,"response":{"prior knowledge":5,"curiosity":5},"accuracy":[],"trial_type":"survey","trial_index":39,"time_elapsed":276412,"internal_node_id":"0.0-3.0-1.8","prolific_id":"62b9f3589e8d599c11a2f9fc","session_id":"643c24d80d8cc24ba0339900","study_id":"64370a36d30bfa807bc7e43c"},{"rt":null,"stimulus":"\n\t\t\t<div class=\"flip_card\">\n\t\t\t\t<div class=\"flip_card_inner\">\n\t\t\t\t\t<div class=\"flip_card_front\">\n\t\t\t\t\t\t<img src=img/19.png>\n\t\t\t\t\t</div>\n\t\t\t\t\t<div class=\"flip_card_back\">\n\t\t\t\t\t\t<h2>How many moons does Neptune have?</h2>\n\t\t\t\t\t\t<br>\n\t\t\t\t\t\t<p>Answer: <strong>14</strong></p>\n\t\t\t\t\t</div>\n\t\t\t\t</div>\n\t\t\t</div>\n\t\t\t","response":null,"trial_type":"html-keyboard-response","trial_index":40,"time_elapsed":281416,"internal_node_id":"0.0-3.0-2.8","prolific_id":"62b9f3589e8d599c11a2f9fc","session_id":"643c24d80d8cc24ba0339900","study_id":"64370a36d30bfa807bc7e43c"},{"rt":1100,"stimulus":"\n\t\t\t\t\t<div>\n\t\t\t\t\t<h2>Trial 9 is over</h2>\n\t\t\t\t\t<p>Press <span style=\"color: red\"><strong>any key</strong></span> to continue to the next trial</p>\n\t\t\t\t\t</div>\n\t\t\t\t","response":" ","trial_type":"html-keyboard-response","trial_index":41,"time_elapsed":282518,"internal_node_id":"0.0-3.0-3.8","prolific_id":"62b9f3589e8d599c11a2f9fc","session_id":"643c24d80d8cc24ba0339900","study_id":"64370a36d30bfa807bc7e43c"},{"rt":9089,"response":{"prediction":"5"},"trial_type":"survey-text","trial_index":42,"time_elapsed":291619,"internal_node_id":"0.0-3.0-0.9","prolific_id":"62b9f3589e8d599c11a2f9fc","session_id":"643c24d80d8cc24ba0339900","study_id":"64370a36d30bfa807bc7e43c"},{"rt":6402,"response":{"prior knowledge":5,"curiosity":5},"accuracy":[],"trial_type":"survey","trial_index":43,"time_elapsed":298079,"internal_node_id":"0.0-3.0-1.9","prolific_id":"62b9f3589e8d599c11a2f9fc","session_id":"643c24d80d8cc24ba0339900","study_id":"64370a36d30bfa807bc7e43c"},{"rt":null,"stimulus":"\n\t\t\t<div class=\"flip_card\">\n\t\t\t\t<div class=\"flip_card_inner\">\n\t\t\t\t\t<div class=\"flip_card_front\">\n\t\t\t\t\t\t<img src=img/1.png>\n\t\t\t\t\t</div>\n\t\t\t\t\t<div class=\"flip_card_back\">\n\t\t\t\t\t\t<h2>How many countries have territory in the Arctic Circle?</h2>\n\t\t\t\t\t\t<br>\n\t\t\t\t\t\t<p>Answer: <strong>8</strong></p>\n\t\t\t\t\t</div>\n\t\t\t\t</div>\n\t\t\t</div>\n\t\t\t","response":null,"trial_type":"html-keyboard-response","trial_index":44,"time_elapsed":303083,"internal_node_id":"0.0-3.0-2.9","prolific_id":"62b9f3589e8d599c11a2f9fc","session_id":"643c24d80d8cc24ba0339900","study_id":"64370a36d30bfa807bc7e43c"},{"rt":1107,"stimulus":"\n\t\t\t\t\t<div>\n\t\t\t\t\t<h2>Trial 10 is over</h2>\n\t\t\t\t\t<p>Press <span style=\"color: red\"><strong>any key</strong></span> to continue to the next trial</p>\n\t\t\t\t\t</div>\n\t\t\t\t","response":" ","trial_type":"html-keyboard-response","trial_index":45,"time_elapsed":304194,"internal_node_id":"0.0-3.0-3.9","prolific_id":"62b9f3589e8d599c11a2f9fc","session_id":"643c24d80d8cc24ba0339900","study_id":"64370a36d30bfa807bc7e43c"},{"rt":13464,"response":{"prediction":"6"},"trial_type":"survey-text","trial_index":46,"time_elapsed":317669,"internal_node_id":"0.0-3.0-0.10","prolific_id":"62b9f3589e8d599c11a2f9fc","session_id":"643c24d80d8cc24ba0339900","study_id":"64370a36d30bfa807bc7e43c"},{"rt":5895,"response":{"prior knowledge":5,"curiosity":5},"accuracy":[],"trial_type":"survey","trial_index":47,"time_elapsed":323624,"internal_node_id":"0.0-3.0-1.10","prolific_id":"62b9f3589e8d599c11a2f9fc","session_id":"643c24d80d8cc24ba0339900","study_id":"64370a36d30bfa807bc7e43c"},{"rt":null,"stimulus":"\n\t\t\t<div class=\"flip_card\">\n\t\t\t\t<div class=\"flip_card_inner\">\n\t\t\t\t\t<div class=\"flip_card_front\">\n\t\t\t\t\t\t<img src=img/11.png>\n\t\t\t\t\t</div>\n\t\t\t\t\t<div class=\"flip_card_back\">\n\t\t\t\t\t\t<h2>How many double stitches does a baseball have?</h2>\n\t\t\t\t\t\t<br>\n\t\t\t\t\t\t<p>Answer: <strong>108</strong></p>\n\t\t\t\t\t</div>\n\t\t\t\t</div>\n\t\t\t</div>\n\t\t\t","response":null,"trial_type":"html-keyboard-response","trial_index":48,"time_elapsed":328627,"internal_node_id":"0.0-3.0-2.10","prolific_id":"62b9f3589e8d599c11a2f9fc","session_id":"643c24d80d8cc24ba0339900","study_id":"64370a36d30bfa807bc7e43c"},{"rt":926,"stimulus":"\n\t\t\t\t\t<div>\n\t\t\t\t\t<h2>Trial 11 is over</h2>\n\t\t\t\t\t<p>Press <span style=\"color: red\"><strong>any key</strong></span> to continue to the next trial</p>\n\t\t\t\t\t</div>\n\t\t\t\t","response":" ","trial_type":"html-keyboard-response","trial_index":49,"time_elapsed":329555,"internal_node_id":"0.0-3.0-3.10","prolific_id":"62b9f3589e8d599c11a2f9fc","session_id":"643c24d80d8cc24ba0339900","study_id":"64370a36d30bfa807bc7e43c"},{"rt":26150,"response":{"prediction":"1914"},"trial_type":"survey-text","trial_index":50,"time_elapsed":355712,"internal_node_id":"0.0-3.0-0.11","prolific_id":"62b9f3589e8d599c11a2f9fc","session_id":"643c24d80d8cc24ba0339900","study_id":"64370a36d30bfa807bc7e43c"},{"rt":5052,"response":{"prior knowledge":5,"curiosity":5},"accuracy":[],"trial_type":"survey","trial_index":51,"time_elapsed":360825,"internal_node_id":"0.0-3.0-1.11","prolific_id":"62b9f3589e8d599c11a2f9fc","session_id":"643c24d80d8cc24ba0339900","study_id":"64370a36d30bfa807bc7e43c"},{"rt":null,"stimulus":"\n\t\t\t<div class=\"flip_card\">\n\t\t\t\t<div class=\"flip_card_inner\">\n\t\t\t\t\t<div class=\"flip_card_front\">\n\t\t\t\t\t\t<img src=img/14.png>\n\t\t\t\t\t</div>\n\t\t\t\t\t<div class=\"flip_card_back\">\n\t\t\t\t\t\t<h2>What year did the titanic sink?</h2>\n\t\t\t\t\t\t<br>\n\t\t\t\t\t\t<p>Answer: <strong>1912</strong></p>\n\t\t\t\t\t</div>\n\t\t\t\t</div>\n\t\t\t</div>\n\t\t\t","response":null,"trial_type":"html-keyboard-response","trial_index":52,"time_elapsed":365830,"internal_node_id":"0.0-3.0-2.11","prolific_id":"62b9f3589e8d599c11a2f9fc","session_id":"643c24d80d8cc24ba0339900","study_id":"64370a36d30bfa807bc7e43c"},{"rt":759,"stimulus":"\n\t\t\t\t\t<div>\n\t\t\t\t\t<h2>Trial 12 is over</h2>\n\t\t\t\t\t<p>Press <span style=\"color: red\"><strong>any key</strong></span> to continue to the next trial</p>\n\t\t\t\t\t</div>\n\t\t\t\t","response":" ","trial_type":"html-keyboard-response","trial_index":53,"time_elapsed":366592,"internal_node_id":"0.0-3.0-3.11","prolific_id":"62b9f3589e8d599c11a2f9fc","session_id":"643c24d80d8cc24ba0339900","study_id":"64370a36d30bfa807bc7e43c"},{"rt":31232,"response":{"prediction":"80000"},"trial_type":"survey-text","trial_index":54,"time_elapsed":397836,"internal_node_id":"0.0-3.0-0.12","prolific_id":"62b9f3589e8d599c11a2f9fc","session_id":"643c24d80d8cc24ba0339900","study_id":"64370a36d30bfa807bc7e43c"},{"rt":5972,"response":{"prior knowledge":5,"curiosity":5},"accuracy":[],"trial_type":"survey","trial_index":55,"time_elapsed":403888,"internal_node_id":"0.0-3.0-1.12","prolific_id":"62b9f3589e8d599c11a2f9fc","session_id":"643c24d80d8cc24ba0339900","study_id":"64370a36d30bfa807bc7e43c"},{"rt":null,"stimulus":"\n\t\t\t<div class=\"flip_card\">\n\t\t\t\t<div class=\"flip_card_inner\">\n\t\t\t\t\t<div class=\"flip_card_front\">\n\t\t\t\t\t\t<img src=img/17.png>\n\t\t\t\t\t</div>\n\t\t\t\t\t<div class=\"flip_card_back\">\n\t\t\t\t\t\t<h2>What is the diameter of Earth in miles?</h2>\n\t\t\t\t\t\t<br>\n\t\t\t\t\t\t<p>Answer: <strong>7917.5</strong></p>\n\t\t\t\t\t</div>\n\t\t\t\t</div>\n\t\t\t</div>\n\t\t\t","response":null,"trial_type":"html-keyboard-response","trial_index":56,"time_elapsed":408893,"internal_node_id":"0.0-3.0-2.12","prolific_id":"62b9f3589e8d599c11a2f9fc","session_id":"643c24d80d8cc24ba0339900","study_id":"64370a36d30bfa807bc7e43c"},{"rt":2156,"stimulus":"\n\t\t\t\t\t<div>\n\t\t\t\t\t<h2>Trial 13 is over</h2>\n\t\t\t\t\t<p>Press <span style=\"color: red\"><strong>any key</strong></span> to continue to the next trial</p>\n\t\t\t\t\t</div>\n\t\t\t\t","response":" ","trial_type":"html-keyboard-response","trial_index":57,"time_elapsed":411054,"internal_node_id":"0.0-3.0-3.12","prolific_id":"62b9f3589e8d599c11a2f9fc","session_id":"643c24d80d8cc24ba0339900","study_id":"64370a36d30bfa807bc7e43c"},{"rt":22263,"response":{"prediction":"14000"},"trial_type":"survey-text","trial_index":58,"time_elapsed":433326,"internal_node_id":"0.0-3.0-0.13","prolific_id":"62b9f3589e8d599c11a2f9fc","session_id":"643c24d80d8cc24ba0339900","study_id":"64370a36d30bfa807bc7e43c"},{"rt":5240,"response":{"prior knowledge":5,"curiosity":5},"accuracy":[],"trial_type":"survey","trial_index":59,"time_elapsed":438637,"internal_node_id":"0.0-3.0-1.13","prolific_id":"62b9f3589e8d599c11a2f9fc","session_id":"643c24d80d8cc24ba0339900","study_id":"64370a36d30bfa807bc7e43c"},{"rt":null,"stimulus":"\n\t\t\t<div class=\"flip_card\">\n\t\t\t\t<div class=\"flip_card_inner\">\n\t\t\t\t\t<div class=\"flip_card_front\">\n\t\t\t\t\t\t<img src=img/26.png>\n\t\t\t\t\t</div>\n\t\t\t\t\t<div class=\"flip_card_back\">\n\t\t\t\t\t\t<h2>How long is the Great Wall of China (in miles)?</h2>\n\t\t\t\t\t\t<br>\n\t\t\t\t\t\t<p>Answer: <strong>13171</strong></p>\n\t\t\t\t\t</div>\n\t\t\t\t</div>\n\t\t\t</div>\n\t\t\t","response":null,"trial_type":"html-keyboard-response","trial_index":60,"time_elapsed":443643,"internal_node_id":"0.0-3.0-2.13","prolific_id":"62b9f3589e8d599c11a2f9fc","session_id":"643c24d80d8cc24ba0339900","study_id":"64370a36d30bfa807bc7e43c"},{"rt":961,"stimulus":"\n\t\t\t\t\t<div>\n\t\t\t\t\t<h2>Trial 14 is over</h2>\n\t\t\t\t\t<p>Press <span style=\"color: red\"><strong>any key</strong></span> to continue to the next trial</p>\n\t\t\t\t\t</div>\n\t\t\t\t","response":" ","trial_type":"html-keyboard-response","trial_index":61,"time_elapsed":444609,"internal_node_id":"0.0-3.0-3.13","prolific_id":"62b9f3589e8d599c11a2f9fc","session_id":"643c24d80d8cc24ba0339900","study_id":"64370a36d30bfa807bc7e43c"},{"rt":19592,"response":{"prediction":"54"},"trial_type":"survey-text","trial_index":62,"time_elapsed":464209,"internal_node_id":"0.0-3.0-0.14","prolific_id":"62b9f3589e8d599c11a2f9fc","session_id":"643c24d80d8cc24ba0339900","study_id":"64370a36d30bfa807bc7e43c"},{"rt":5273,"response":{"prior knowledge":5,"curiosity":5},"accuracy":[],"trial_type":"survey","trial_index":63,"time_elapsed":469557,"internal_node_id":"0.0-3.0-1.14","prolific_id":"62b9f3589e8d599c11a2f9fc","session_id":"643c24d80d8cc24ba0339900","study_id":"64370a36d30bfa807bc7e43c"},{"rt":null,"stimulus":"\n\t\t\t<div class=\"flip_card\">\n\t\t\t\t<div class=\"flip_card_inner\">\n\t\t\t\t\t<div class=\"flip_card_front\">\n\t\t\t\t\t\t<img src=img/10.png>\n\t\t\t\t\t</div>\n\t\t\t\t\t<div class=\"flip_card_back\">\n\t\t\t\t\t\t<h2>How many countries are in Africa?</h2>\n\t\t\t\t\t\t<br>\n\t\t\t\t\t\t<p>Answer: <strong>54</strong></p>\n\t\t\t\t\t</div>\n\t\t\t\t</div>\n\t\t\t</div>\n\t\t\t","response":null,"trial_type":"html-keyboard-response","trial_index":64,"time_elapsed":474565,"internal_node_id":"0.0-3.0-2.14","prolific_id":"62b9f3589e8d599c11a2f9fc","session_id":"643c24d80d8cc24ba0339900","study_id":"64370a36d30bfa807bc7e43c"},{"rt":1164,"stimulus":"\n\t\t\t\t\t<div>\n\t\t\t\t\t<h2>Trial 15 is over</h2>\n\t\t\t\t\t<p>Press <span style=\"color: red\"><strong>any key</strong></span> to continue to the next trial</p>\n\t\t\t\t\t</div>\n\t\t\t\t","response":" ","trial_type":"html-keyboard-response","trial_index":65,"time_elapsed":475732,"internal_node_id":"0.0-3.0-3.14","prolific_id":"62b9f3589e8d599c11a2f9fc","session_id":"643c24d80d8cc24ba0339900","study_id":"64370a36d30bfa807bc7e43c"},{"rt":23912,"response":{"prediction":"1902"},"trial_type":"survey-text","trial_index":66,"time_elapsed":499657,"internal_node_id":"0.0-3.0-0.15","prolific_id":"62b9f3589e8d599c11a2f9fc","session_id":"643c24d80d8cc24ba0339900","study_id":"64370a36d30bfa807bc7e43c"},{"rt":6753,"response":{"prior knowledge":5,"curiosity":5},"accuracy":[],"trial_type":"survey","trial_index":67,"time_elapsed":506472,"internal_node_id":"0.0-3.0-1.15","prolific_id":"62b9f3589e8d599c11a2f9fc","session_id":"643c24d80d8cc24ba0339900","study_id":"64370a36d30bfa807bc7e43c"},{"rt":null,"stimulus":"\n\t\t\t<div class=\"flip_card\">\n\t\t\t\t<div class=\"flip_card_inner\">\n\t\t\t\t\t<div class=\"flip_card_front\">\n\t\t\t\t\t\t<img src=img/13.png>\n\t\t\t\t\t</div>\n\t\t\t\t\t<div class=\"flip_card_back\">\n\t\t\t\t\t\t<h2>In what year was the first Nobel Prize awarded?</h2>\n\t\t\t\t\t\t<br>\n\t\t\t\t\t\t<p>Answer: <strong>1901</strong></p>\n\t\t\t\t\t</div>\n\t\t\t\t</div>\n\t\t\t</div>\n\t\t\t","response":null,"trial_type":"html-keyboard-response","trial_index":68,"time_elapsed":511477,"internal_node_id":"0.0-3.0-2.15","prolific_id":"62b9f3589e8d599c11a2f9fc","session_id":"643c24d80d8cc24ba0339900","study_id":"64370a36d30bfa807bc7e43c"},{"rt":116,"stimulus":"\n\t\t\t\t\t<div>\n\t\t\t\t\t<h2>Trial 16 is over</h2>\n\t\t\t\t\t<p>Press <span style=\"color: red\"><strong>any key</strong></span> to continue to the next trial</p>\n\t\t\t\t\t</div>\n\t\t\t\t","response":" ","trial_type":"html-keyboard-response","trial_index":69,"time_elapsed":511598,"internal_node_id":"0.0-3.0-3.15","prolific_id":"62b9f3589e8d599c11a2f9fc","session_id":"643c24d80d8cc24ba0339900","study_id":"64370a36d30bfa807bc7e43c"},{"rt":10411,"response":{"prediction":"1902"},"trial_type":"survey-text","trial_index":70,"time_elapsed":522020,"internal_node_id":"0.0-3.0-0.16","prolific_id":"62b9f3589e8d599c11a2f9fc","session_id":"643c24d80d8cc24ba0339900","study_id":"64370a36d30bfa807bc7e43c"},{"rt":5565,"response":{"prior knowledge":5,"curiosity":5},"accuracy":[],"trial_type":"survey","trial_index":71,"time_elapsed":527642,"internal_node_id":"0.0-3.0-1.16","prolific_id":"62b9f3589e8d599c11a2f9fc","session_id":"643c24d80d8cc24ba0339900","study_id":"64370a36d30bfa807bc7e43c"},{"rt":null,"stimulus":"\n\t\t\t<div class=\"flip_card\">\n\t\t\t\t<div class=\"flip_card_inner\">\n\t\t\t\t\t<div class=\"flip_card_front\">\n\t\t\t\t\t\t<img src=img/12.png>\n\t\t\t\t\t</div>\n\t\t\t\t\t<div class=\"flip_card_back\">\n\t\t\t\t\t\t<h2>In what year did the first Modern Olympic Games take place?</h2>\n\t\t\t\t\t\t<br>\n\t\t\t\t\t\t<p>Answer: <strong>1896</strong></p>\n\t\t\t\t\t</div>\n\t\t\t\t</div>\n\t\t\t</div>\n\t\t\t","response":null,"trial_type":"html-keyboard-response","trial_index":72,"time_elapsed":532646,"internal_node_id":"0.0-3.0-2.16","prolific_id":"62b9f3589e8d599c11a2f9fc","session_id":"643c24d80d8cc24ba0339900","study_id":"64370a36d30bfa807bc7e43c"},{"rt":1173,"stimulus":"\n\t\t\t\t\t<div>\n\t\t\t\t\t<h2>Trial 17 is over</h2>\n\t\t\t\t\t<p>Press <span style=\"color: red\"><strong>any key</strong></span> to continue to the next trial</p>\n\t\t\t\t\t</div>\n\t\t\t\t","response":" ","trial_type":"html-keyboard-response","trial_index":73,"time_elapsed":533823,"internal_node_id":"0.0-3.0-3.16","prolific_id":"62b9f3589e8d599c11a2f9fc","session_id":"643c24d80d8cc24ba0339900","study_id":"64370a36d30bfa807bc7e43c"},{"rt":11851,"response":{"prediction":"1987"},"trial_type":"survey-text","trial_index":74,"time_elapsed":545684,"internal_node_id":"0.0-3.0-0.17","prolific_id":"62b9f3589e8d599c11a2f9fc","session_id":"643c24d80d8cc24ba0339900","study_id":"64370a36d30bfa807bc7e43c"},{"rt":6945,"response":{"prior knowledge":5,"curiosity":5},"accuracy":[],"trial_type":"survey","trial_index":75,"time_elapsed":552685,"internal_node_id":"0.0-3.0-1.17","prolific_id":"62b9f3589e8d599c11a2f9fc","session_id":"643c24d80d8cc24ba0339900","study_id":"64370a36d30bfa807bc7e43c"},{"rt":null,"stimulus":"\n\t\t\t<div class=\"flip_card\">\n\t\t\t\t<div class=\"flip_card_inner\">\n\t\t\t\t\t<div class=\"flip_card_front\">\n\t\t\t\t\t\t<img src=img/22.png>\n\t\t\t\t\t</div>\n\t\t\t\t\t<div class=\"flip_card_back\">\n\t\t\t\t\t\t<h2>What year did the Berlin Wall fall?</h2>\n\t\t\t\t\t\t<br>\n\t\t\t\t\t\t<p>Answer: <strong>1989</strong></p>\n\t\t\t\t\t</div>\n\t\t\t\t</div>\n\t\t\t</div>\n\t\t\t","response":null,"trial_type":"html-keyboard-response","trial_index":76,"time_elapsed":557690,"internal_node_id":"0.0-3.0-2.17","prolific_id":"62b9f3589e8d599c11a2f9fc","session_id":"643c24d80d8cc24ba0339900","study_id":"64370a36d30bfa807bc7e43c"},{"rt":1120,"stimulus":"\n\t\t\t\t\t<div>\n\t\t\t\t\t<h2>Trial 18 is over</h2>\n\t\t\t\t\t<p>Press <span style=\"color: red\"><strong>any key</strong></span> to continue to the next trial</p>\n\t\t\t\t\t</div>\n\t\t\t\t","response":" ","trial_type":"html-keyboard-response","trial_index":77,"time_elapsed":558814,"internal_node_id":"0.0-3.0-3.17","prolific_id":"62b9f3589e8d599c11a2f9fc","session_id":"643c24d80d8cc24ba0339900","study_id":"64370a36d30bfa807bc7e43c"},{"rt":4400,"response":{"prediction":"5"},"trial_type":"survey-text","trial_index":78,"time_elapsed":563225,"internal_node_id":"0.0-3.0-0.18","prolific_id":"62b9f3589e8d599c11a2f9fc","session_id":"643c24d80d8cc24ba0339900","study_id":"64370a36d30bfa807bc7e43c"},{"rt":5256,"response":{"prior knowledge":5,"curiosity":5},"accuracy":[],"trial_type":"survey","trial_index":79,"time_elapsed":568536,"internal_node_id":"0.0-3.0-1.18","prolific_id":"62b9f3589e8d599c11a2f9fc","session_id":"643c24d80d8cc24ba0339900","study_id":"64370a36d30bfa807bc7e43c"},{"rt":null,"stimulus":"\n\t\t\t<div class=\"flip_card\">\n\t\t\t\t<div class=\"flip_card_inner\">\n\t\t\t\t\t<div class=\"flip_card_front\">\n\t\t\t\t\t\t<img src=img/2.png>\n\t\t\t\t\t</div>\n\t\t\t\t\t<div class=\"flip_card_back\">\n\t\t\t\t\t\t<h2>How many times a day do Muslims pray?</h2>\n\t\t\t\t\t\t<br>\n\t\t\t\t\t\t<p>Answer: <strong>5</strong></p>\n\t\t\t\t\t</div>\n\t\t\t\t</div>\n\t\t\t</div>\n\t\t\t","response":null,"trial_type":"html-keyboard-response","trial_index":80,"time_elapsed":573539,"internal_node_id":"0.0-3.0-2.18","prolific_id":"62b9f3589e8d599c11a2f9fc","session_id":"643c24d80d8cc24ba0339900","study_id":"64370a36d30bfa807bc7e43c"},{"rt":1042,"stimulus":"\n\t\t\t\t\t<div>\n\t\t\t\t\t<h2>Trial 19 is over</h2>\n\t\t\t\t\t<p>Press <span style=\"color: red\"><strong>any key</strong></span> to continue to the next trial</p>\n\t\t\t\t\t</div>\n\t\t\t\t","response":" ","trial_type":"html-keyboard-response","trial_index":81,"time_elapsed":574584,"internal_node_id":"0.0-3.0-3.18","prolific_id":"62b9f3589e8d599c11a2f9fc","session_id":"643c24d80d8cc24ba0339900","study_id":"64370a36d30bfa807bc7e43c"},{"rt":11618,"response":{"prediction":"100"},"trial_type":"survey-text","trial_index":82,"time_elapsed":586210,"internal_node_id":"0.0-3.0-0.19","prolific_id":"62b9f3589e8d599c11a2f9fc","session_id":"643c24d80d8cc24ba0339900","study_id":"64370a36d30bfa807bc7e43c"},{"rt":6847,"response":{"prior knowledge":5,"curiosity":5},"accuracy":[],"trial_type":"survey","trial_index":83,"time_elapsed":593116,"internal_node_id":"0.0-3.0-1.19","prolific_id":"62b9f3589e8d599c11a2f9fc","session_id":"643c24d80d8cc24ba0339900","study_id":"64370a36d30bfa807bc7e43c"},{"rt":null,"stimulus":"\n\t\t\t<div class=\"flip_card\">\n\t\t\t\t<div class=\"flip_card_inner\">\n\t\t\t\t\t<div class=\"flip_card_front\">\n\t\t\t\t\t\t<img src=img/28.png>\n\t\t\t\t\t</div>\n\t\t\t\t\t<div class=\"flip_card_back\">\n\t\t\t\t\t\t<h2>How many lines are in a sonnet?</h2>\n\t\t\t\t\t\t<br>\n\t\t\t\t\t\t<p>Answer: <strong>14</strong></p>\n\t\t\t\t\t</div>\n\t\t\t\t</div>\n\t\t\t</div>\n\t\t\t","response":null,"trial_type":"html-keyboard-response","trial_index":84,"time_elapsed":598120,"internal_node_id":"0.0-3.0-2.19","prolific_id":"62b9f3589e8d599c11a2f9fc","session_id":"643c24d80d8cc24ba0339900","study_id":"64370a36d30bfa807bc7e43c"},{"rt":1074,"stimulus":"\n\t\t\t\t\t<div>\n\t\t\t\t\t<h2>Trial 20 is over</h2>\n\t\t\t\t\t<p>Press <span style=\"color: red\"><strong>any key</strong></span> to continue to the next trial</p>\n\t\t\t\t\t</div>\n\t\t\t\t","response":" ","trial_type":"html-keyboard-response","trial_index":85,"time_elapsed":599197,"internal_node_id":"0.0-3.0-3.19","prolific_id":"62b9f3589e8d599c11a2f9fc","session_id":"643c24d80d8cc24ba0339900","study_id":"64370a36d30bfa807bc7e43c"},{"rt":10520,"response":{"prediction":"1945"},"trial_type":"survey-text","trial_index":86,"time_elapsed":609729,"internal_node_id":"0.0-3.0-0.20","prolific_id":"62b9f3589e8d599c11a2f9fc","session_id":"643c24d80d8cc24ba0339900","study_id":"64370a36d30bfa807bc7e43c"},{"rt":7696,"response":{"prior knowledge":1,"curiosity":3},"accuracy":[],"trial_type":"survey","trial_index":87,"time_elapsed":617482,"internal_node_id":"0.0-3.0-1.20","prolific_id":"62b9f3589e8d599c11a2f9fc","session_id":"643c24d80d8cc24ba0339900","study_id":"64370a36d30bfa807bc7e43c"},{"rt":null,"stimulus":"\n\t\t\t<div class=\"flip_card\">\n\t\t\t\t<div class=\"flip_card_inner\">\n\t\t\t\t\t<div class=\"flip_card_front\">\n\t\t\t\t\t\t<img src=img/8.png>\n\t\t\t\t\t</div>\n\t\t\t\t\t<div class=\"flip_card_back\">\n\t\t\t\t\t\t<h2>In what year was the Mexican artist Frida Kahlo born?</h2>\n\t\t\t\t\t\t<br>\n\t\t\t\t\t\t<p>Answer: <strong>1907</strong></p>\n\t\t\t\t\t</div>\n\t\t\t\t</div>\n\t\t\t</div>\n\t\t\t","response":null,"trial_type":"html-keyboard-response","trial_index":88,"time_elapsed":622486,"internal_node_id":"0.0-3.0-2.20","prolific_id":"62b9f3589e8d599c11a2f9fc","session_id":"643c24d80d8cc24ba0339900","study_id":"64370a36d30bfa807bc7e43c"},{"rt":1030,"stimulus":"\n\t\t\t\t\t<div>\n\t\t\t\t\t<h2>Trial 21 is over</h2>\n\t\t\t\t\t<p>Press <span style=\"color: red\"><strong>any key</strong></span> to continue to the next trial</p>\n\t\t\t\t\t</div>\n\t\t\t\t","response":" ","trial_type":"html-keyboard-response","trial_index":89,"time_elapsed":623520,"internal_node_id":"0.0-3.0-3.20","prolific_id":"62b9f3589e8d599c11a2f9fc","session_id":"643c24d80d8cc24ba0339900","study_id":"64370a36d30bfa807bc7e43c"},{"rt":27945,"response":{"prediction":"70"},"trial_type":"survey-text","trial_index":90,"time_elapsed":651474,"internal_node_id":"0.0-3.0-0.21","prolific_id":"62b9f3589e8d599c11a2f9fc","session_id":"643c24d80d8cc24ba0339900","study_id":"64370a36d30bfa807bc7e43c"},{"rt":5895,"response":{"prior knowledge":5,"curiosity":5},"accuracy":[],"trial_type":"survey","trial_index":91,"time_elapsed":657447,"internal_node_id":"0.0-3.0-1.21","prolific_id":"62b9f3589e8d599c11a2f9fc","session_id":"643c24d80d8cc24ba0339900","study_id":"64370a36d30bfa807bc7e43c"},{"rt":null,"stimulus":"\n\t\t\t<div class=\"flip_card\">\n\t\t\t\t<div class=\"flip_card_inner\">\n\t\t\t\t\t<div class=\"flip_card_front\">\n\t\t\t\t\t\t<img src=img/3.png>\n\t\t\t\t\t</div>\n\t\t\t\t\t<div class=\"flip_card_back\">\n\t\t\t\t\t\t<h2>How many books has Stephen King published?</h2>\n\t\t\t\t\t\t<br>\n\t\t\t\t\t\t<p>Answer: <strong>65</strong></p>\n\t\t\t\t\t</div>\n\t\t\t\t</div>\n\t\t\t</div>\n\t\t\t","response":null,"trial_type":"html-keyboard-response","trial_index":92,"time_elapsed":662450,"internal_node_id":"0.0-3.0-2.21","prolific_id":"62b9f3589e8d599c11a2f9fc","session_id":"643c24d80d8cc24ba0339900","study_id":"64370a36d30bfa807bc7e43c"},{"rt":1379,"stimulus":"\n\t\t\t\t\t<div>\n\t\t\t\t\t<h2>Trial 22 is over</h2>\n\t\t\t\t\t<p>Press <span style=\"color: red\"><strong>any key</strong></span> to continue to the next trial</p>\n\t\t\t\t\t</div>\n\t\t\t\t","response":" ","trial_type":"html-keyboard-response","trial_index":93,"time_elapsed":663832,"internal_node_id":"0.0-3.0-3.21","prolific_id":"62b9f3589e8d599c11a2f9fc","session_id":"643c24d80d8cc24ba0339900","study_id":"64370a36d30bfa807bc7e43c"},{"rt":23499,"response":{"prediction":"4"},"trial_type":"survey-text","trial_index":94,"time_elapsed":687342,"internal_node_id":"0.0-3.0-0.22","prolific_id":"62b9f3589e8d599c11a2f9fc","session_id":"643c24d80d8cc24ba0339900","study_id":"64370a36d30bfa807bc7e43c"},{"rt":5321,"response":{"prior knowledge":5,"curiosity":5},"accuracy":[],"trial_type":"survey","trial_index":95,"time_elapsed":692726,"internal_node_id":"0.0-3.0-1.22","prolific_id":"62b9f3589e8d599c11a2f9fc","session_id":"643c24d80d8cc24ba0339900","study_id":"64370a36d30bfa807bc7e43c"},{"rt":null,"stimulus":"\n\t\t\t<div class=\"flip_card\">\n\t\t\t\t<div class=\"flip_card_inner\">\n\t\t\t\t\t<div class=\"flip_card_front\">\n\t\t\t\t\t\t<img src=img/5.png>\n\t\t\t\t\t</div>\n\t\t\t\t\t<div class=\"flip_card_back\">\n\t\t\t\t\t\t<h2>How many main islands make up Japan?</h2>\n\t\t\t\t\t\t<br>\n\t\t\t\t\t\t<p>Answer: <strong>4</strong></p>\n\t\t\t\t\t</div>\n\t\t\t\t</div>\n\t\t\t</div>\n\t\t\t","response":null,"trial_type":"html-keyboard-response","trial_index":96,"time_elapsed":697729,"internal_node_id":"0.0-3.0-2.22","prolific_id":"62b9f3589e8d599c11a2f9fc","session_id":"643c24d80d8cc24ba0339900","study_id":"64370a36d30bfa807bc7e43c"},{"rt":930,"stimulus":"\n\t\t\t\t\t<div>\n\t\t\t\t\t<h2>Trial 23 is over</h2>\n\t\t\t\t\t<p>Press <span style=\"color: red\"><strong>any key</strong></span> to continue to the next trial</p>\n\t\t\t\t\t</div>\n\t\t\t\t","response":" ","trial_type":"html-keyboard-response","trial_index":97,"time_elapsed":698660,"internal_node_id":"0.0-3.0-3.22","prolific_id":"62b9f3589e8d599c11a2f9fc","session_id":"643c24d80d8cc24ba0339900","study_id":"64370a36d30bfa807bc7e43c"},{"rt":9471,"response":{"prediction":"7"},"trial_type":"survey-text","trial_index":98,"time_elapsed":708139,"internal_node_id":"0.0-3.0-0.23","prolific_id":"62b9f3589e8d599c11a2f9fc","session_id":"643c24d80d8cc24ba0339900","study_id":"64370a36d30bfa807bc7e43c"},{"rt":5760,"response":{"prior knowledge":5,"curiosity":5},"accuracy":[],"trial_type":"survey","trial_index":99,"time_elapsed":713958,"internal_node_id":"0.0-3.0-1.23","prolific_id":"62b9f3589e8d599c11a2f9fc","session_id":"643c24d80d8cc24ba0339900","study_id":"64370a36d30bfa807bc7e43c"},{"rt":null,"stimulus":"\n\t\t\t<div class=\"flip_card\">\n\t\t\t\t<div class=\"flip_card_inner\">\n\t\t\t\t\t<div class=\"flip_card_front\">\n\t\t\t\t\t\t<img src=img/23.png>\n\t\t\t\t\t</div>\n\t\t\t\t\t<div class=\"flip_card_back\">\n\t\t\t\t\t\t<h2>A bar mitzvah is traditionally celebrated when Jewish males turn what age?</h2>\n\t\t\t\t\t\t<br>\n\t\t\t\t\t\t<p>Answer: <strong>13</strong></p>\n\t\t\t\t\t</div>\n\t\t\t\t</div>\n\t\t\t</div>\n\t\t\t","response":null,"trial_type":"html-keyboard-response","trial_index":100,"time_elapsed":718962,"internal_node_id":"0.0-3.0-2.23","prolific_id":"62b9f3589e8d599c11a2f9fc","session_id":"643c24d80d8cc24ba0339900","study_id":"64370a36d30bfa807bc7e43c"},{"rt":473,"stimulus":"\n\t\t\t\t\t<div>\n\t\t\t\t\t<h2>Trial 24 is over</h2>\n\t\t\t\t\t<p>Press <span style=\"color: red\"><strong>any key</strong></span> to continue to the next trial</p>\n\t\t\t\t\t</div>\n\t\t\t\t","response":" ","trial_type":"html-keyboard-response","trial_index":101,"time_elapsed":719440,"internal_node_id":"0.0-3.0-3.23","prolific_id":"62b9f3589e8d599c11a2f9fc","session_id":"643c24d80d8cc24ba0339900","study_id":"64370a36d30bfa807bc7e43c"},{"rt":24368,"response":{"prediction":"87"},"trial_type":"survey-text","trial_index":102,"time_elapsed":743816,"internal_node_id":"0.0-3.0-0.24","prolific_id":"62b9f3589e8d599c11a2f9fc","session_id":"643c24d80d8cc24ba0339900","study_id":"64370a36d30bfa807bc7e43c"},{"rt":7246,"response":{"prior knowledge":5,"curiosity":5},"accuracy":[],"trial_type":"survey","trial_index":103,"time_elapsed":751127,"internal_node_id":"0.0-3.0-1.24","prolific_id":"62b9f3589e8d599c11a2f9fc","session_id":"643c24d80d8cc24ba0339900","study_id":"64370a36d30bfa807bc7e43c"},{"rt":null,"stimulus":"\n\t\t\t<div class=\"flip_card\">\n\t\t\t\t<div class=\"flip_card_inner\">\n\t\t\t\t\t<div class=\"flip_card_front\">\n\t\t\t\t\t\t<img src=img/25.png>\n\t\t\t\t\t</div>\n\t\t\t\t\t<div class=\"flip_card_back\">\n\t\t\t\t\t\t<h2>How many constellations are there?</h2>\n\t\t\t\t\t\t<br>\n\t\t\t\t\t\t<p>Answer: <strong>88</strong></p>\n\t\t\t\t\t</div>\n\t\t\t\t</div>\n\t\t\t</div>\n\t\t\t","response":null,"trial_type":"html-keyboard-response","trial_index":104,"time_elapsed":756131,"internal_node_id":"0.0-3.0-2.24","prolific_id":"62b9f3589e8d599c11a2f9fc","session_id":"643c24d80d8cc24ba0339900","study_id":"64370a36d30bfa807bc7e43c"},{"rt":851,"stimulus":"\n\t\t\t\t\t<div>\n\t\t\t\t\t<h2>Trial 25 is over</h2>\n\t\t\t\t\t<p>Press <span style=\"color: red\"><strong>any key</strong></span> to continue to the next trial</p>\n\t\t\t\t\t</div>\n\t\t\t\t","response":" ","trial_type":"html-keyboard-response","trial_index":105,"time_elapsed":756986,"internal_node_id":"0.0-3.0-3.24","prolific_id":"62b9f3589e8d599c11a2f9fc","session_id":"643c24d80d8cc24ba0339900","study_id":"64370a36d30bfa807bc7e43c"},{"rt":7420,"response":{"prediction":"100"},"trial_type":"survey-text","trial_index":106,"time_elapsed":764416,"internal_node_id":"0.0-3.0-0.25","prolific_id":"62b9f3589e8d599c11a2f9fc","session_id":"643c24d80d8cc24ba0339900","study_id":"64370a36d30bfa807bc7e43c"},{"rt":5199,"response":{"prior knowledge":5,"curiosity":5},"accuracy":[],"trial_type":"survey","trial_index":107,"time_elapsed":769670,"internal_node_id":"0.0-3.0-1.25","prolific_id":"62b9f3589e8d599c11a2f9fc","session_id":"643c24d80d8cc24ba0339900","study_id":"64370a36d30bfa807bc7e43c"},{"rt":null,"stimulus":"\n\t\t\t<div class=\"flip_card\">\n\t\t\t\t<div class=\"flip_card_inner\">\n\t\t\t\t\t<div class=\"flip_card_front\">\n\t\t\t\t\t\t<img src=img/24.png>\n\t\t\t\t\t</div>\n\t\t\t\t\t<div class=\"flip_card_back\">\n\t\t\t\t\t\t<h2>How old was King Tut when he died?</h2>\n\t\t\t\t\t\t<br>\n\t\t\t\t\t\t<p>Answer: <strong>19</strong></p>\n\t\t\t\t\t</div>\n\t\t\t\t</div>\n\t\t\t</div>\n\t\t\t","response":null,"trial_type":"html-keyboard-response","trial_index":108,"time_elapsed":774673,"internal_node_id":"0.0-3.0-2.25","prolific_id":"62b9f3589e8d599c11a2f9fc","session_id":"643c24d80d8cc24ba0339900","study_id":"64370a36d30bfa807bc7e43c"},{"rt":1340,"stimulus":"\n\t\t\t\t\t<div>\n\t\t\t\t\t<h2>Trial 26 is over</h2>\n\t\t\t\t\t<p>Press <span style=\"color: red\"><strong>any key</strong></span> to continue to the next trial</p>\n\t\t\t\t\t</div>\n\t\t\t\t","response":"g","trial_type":"html-keyboard-response","trial_index":109,"time_elapsed":776017,"internal_node_id":"0.0-3.0-3.25","prolific_id":"62b9f3589e8d599c11a2f9fc","session_id":"643c24d80d8cc24ba0339900","study_id":"64370a36d30bfa807bc7e43c"},{"rt":17939,"response":{"prediction":"10"},"trial_type":"survey-text","trial_index":110,"time_elapsed":793968,"internal_node_id":"0.0-3.0-0.26","prolific_id":"62b9f3589e8d599c11a2f9fc","session_id":"643c24d80d8cc24ba0339900","study_id":"64370a36d30bfa807bc7e43c"},{"rt":4963,"response":{"prior knowledge":5,"curiosity":5},"accuracy":[],"trial_type":"survey","trial_index":111,"time_elapsed":798987,"internal_node_id":"0.0-3.0-1.26","prolific_id":"62b9f3589e8d599c11a2f9fc","session_id":"643c24d80d8cc24ba0339900","study_id":"64370a36d30bfa807bc7e43c"},{"rt":null,"stimulus":"\n\t\t\t<div class=\"flip_card\">\n\t\t\t\t<div class=\"flip_card_inner\">\n\t\t\t\t\t<div class=\"flip_card_front\">\n\t\t\t\t\t\t<img src=img/18.png>\n\t\t\t\t\t</div>\n\t\t\t\t\t<div class=\"flip_card_back\">\n\t\t\t\t\t\t<h2>How much is in a Baker's Dozen?</h2>\n\t\t\t\t\t\t<br>\n\t\t\t\t\t\t<p>Answer: <strong>13</strong></p>\n\t\t\t\t\t</div>\n\t\t\t\t</div>\n\t\t\t</div>\n\t\t\t","response":null,"trial_type":"html-keyboard-response","trial_index":112,"time_elapsed":803991,"internal_node_id":"0.0-3.0-2.26","prolific_id":"62b9f3589e8d599c11a2f9fc","session_id":"643c24d80d8cc24ba0339900","study_id":"64370a36d30bfa807bc7e43c"},{"rt":1002,"stimulus":"\n\t\t\t\t\t<div>\n\t\t\t\t\t<h2>Trial 27 is over</h2>\n\t\t\t\t\t<p>Press <span style=\"color: red\"><strong>any key</strong></span> to continue to the next trial</p>\n\t\t\t\t\t</div>\n\t\t\t\t","response":" ","trial_type":"html-keyboard-response","trial_index":113,"time_elapsed":804998,"internal_node_id":"0.0-3.0-3.26","prolific_id":"62b9f3589e8d599c11a2f9fc","session_id":"643c24d80d8cc24ba0339900","study_id":"64370a36d30bfa807bc7e43c"},{"rt":4467,"response":{"prediction":"4"},"trial_type":"survey-text","trial_index":114,"time_elapsed":809477,"internal_node_id":"0.0-3.0-0.27","prolific_id":"62b9f3589e8d599c11a2f9fc","session_id":"643c24d80d8cc24ba0339900","study_id":"64370a36d30bfa807bc7e43c"},{"rt":6129,"response":{"prior knowledge":5,"curiosity":5},"accuracy":[],"trial_type":"survey","trial_index":115,"time_elapsed":815665,"internal_node_id":"0.0-3.0-1.27","prolific_id":"62b9f3589e8d599c11a2f9fc","session_id":"643c24d80d8cc24ba0339900","study_id":"64370a36d30bfa807bc7e43c"},{"rt":null,"stimulus":"\n\t\t\t<div class=\"flip_card\">\n\t\t\t\t<div class=\"flip_card_inner\">\n\t\t\t\t\t<div class=\"flip_card_front\">\n\t\t\t\t\t\t<img src=img/9.png>\n\t\t\t\t\t</div>\n\t\t\t\t\t<div class=\"flip_card_back\">\n\t\t\t\t\t\t<h2>How many books are in the Catholic Bible?</h2>\n\t\t\t\t\t\t<br>\n\t\t\t\t\t\t<p>Answer: <strong>73</strong></p>\n\t\t\t\t\t</div>\n\t\t\t\t</div>\n\t\t\t</div>\n\t\t\t","response":null,"trial_type":"html-keyboard-response","trial_index":116,"time_elapsed":820669,"internal_node_id":"0.0-3.0-2.27","prolific_id":"62b9f3589e8d599c11a2f9fc","session_id":"643c24d80d8cc24ba0339900","study_id":"64370a36d30bfa807bc7e43c"},{"rt":29,"stimulus":"\n\t\t\t\t\t<div>\n\t\t\t\t\t<h2>Trial 28 is over</h2>\n\t\t\t\t\t<p>Press <span style=\"color: red\"><strong>any key</strong></span> to continue to the next trial</p>\n\t\t\t\t\t</div>\n\t\t\t\t","response":" ","trial_type":"html-keyboard-response","trial_index":117,"time_elapsed":820702,"internal_node_id":"0.0-3.0-3.27","prolific_id":"62b9f3589e8d599c11a2f9fc","session_id":"643c24d80d8cc24ba0339900","study_id":"64370a36d30bfa807bc7e43c"},{"rt":6271,"response":{"prediction":"265"},"trial_type":"survey-text","trial_index":118,"time_elapsed":826985,"internal_node_id":"0.0-3.0-0.28","prolific_id":"62b9f3589e8d599c11a2f9fc","session_id":"643c24d80d8cc24ba0339900","study_id":"64370a36d30bfa807bc7e43c"},{"rt":5104,"response":{"prior knowledge":5,"curiosity":5},"accuracy":[],"trial_type":"survey","trial_index":119,"time_elapsed":832150,"internal_node_id":"0.0-3.0-1.28","prolific_id":"62b9f3589e8d599c11a2f9fc","session_id":"643c24d80d8cc24ba0339900","study_id":"64370a36d30bfa807bc7e43c"},{"rt":null,"stimulus":"\n\t\t\t<div class=\"flip_card\">\n\t\t\t\t<div class=\"flip_card_inner\">\n\t\t\t\t\t<div class=\"flip_card_front\">\n\t\t\t\t\t\t<img src=img/29.png>\n\t\t\t\t\t</div>\n\t\t\t\t\t<div class=\"flip_card_back\">\n\t\t\t\t\t\t<h2>How many bones is a human baby born with?</h2>\n\t\t\t\t\t\t<br>\n\t\t\t\t\t\t<p>Answer: <strong>300</strong></p>\n\t\t\t\t\t</div>\n\t\t\t\t</div>\n\t\t\t</div>\n\t\t\t","response":null,"trial_type":"html-keyboard-response","trial_index":120,"time_elapsed":837154,"internal_node_id":"0.0-3.0-2.28","prolific_id":"62b9f3589e8d599c11a2f9fc","session_id":"643c24d80d8cc24ba0339900","study_id":"64370a36d30bfa807bc7e43c"},{"rt":1905,"stimulus":"\n\t\t\t\t\t<div>\n\t\t\t\t\t<h2>Trial 29 is over</h2>\n\t\t\t\t\t<p>Press <span style=\"color: red\"><strong>any key</strong></span> to continue to the next trial</p>\n\t\t\t\t\t</div>\n\t\t\t\t","response":" ","trial_type":"html-keyboard-response","trial_index":121,"time_elapsed":839061,"internal_node_id":"0.0-3.0-3.28","prolific_id":"62b9f3589e8d599c11a2f9fc","session_id":"643c24d80d8cc24ba0339900","study_id":"64370a36d30bfa807bc7e43c"},{"rt":31507,"response":{"prediction":"90"},"trial_type":"survey-text","trial_index":122,"time_elapsed":870579,"internal_node_id":"0.0-3.0-0.29","prolific_id":"62b9f3589e8d599c11a2f9fc","session_id":"643c24d80d8cc24ba0339900","study_id":"64370a36d30bfa807bc7e43c"},{"rt":6069,"response":{"prior knowledge":5,"curiosity":5},"accuracy":[],"trial_type":"survey","trial_index":123,"time_elapsed":876703,"internal_node_id":"0.0-3.0-1.29","prolific_id":"62b9f3589e8d599c11a2f9fc","session_id":"643c24d80d8cc24ba0339900","study_id":"64370a36d30bfa807bc7e43c"},{"rt":null,"stimulus":"\n\t\t\t<div class=\"flip_card\">\n\t\t\t\t<div class=\"flip_card_inner\">\n\t\t\t\t\t<div class=\"flip_card_front\">\n\t\t\t\t\t\t<img src=img/4.png>\n\t\t\t\t\t</div>\n\t\t\t\t\t<div class=\"flip_card_back\">\n\t\t\t\t\t\t<h2>How many people are vegan globally (in millions)?</h2>\n\t\t\t\t\t\t<br>\n\t\t\t\t\t\t<p>Answer: <strong>79</strong></p>\n\t\t\t\t\t</div>\n\t\t\t\t</div>\n\t\t\t</div>\n\t\t\t","response":null,"trial_type":"html-keyboard-response","trial_index":124,"time_elapsed":881708,"internal_node_id":"0.0-3.0-2.29","prolific_id":"62b9f3589e8d599c11a2f9fc","session_id":"643c24d80d8cc24ba0339900","study_id":"64370a36d30bfa807bc7e43c"},{"rt":1395,"stimulus":"\n\t\t\t\t\t<div>\n\t\t\t\t\t<h2>Trial 30 is over</h2>\n\t\t\t\t\t<p>Press <span style=\"color: red\"><strong>any key</strong></span> to continue to the next trial</p>\n\t\t\t\t\t</div>\n\t\t\t\t","response":" ","trial_type":"html-keyboard-response","trial_index":125,"time_elapsed":883107,"internal_node_id":"0.0-3.0-3.29","prolific_id":"62b9f3589e8d599c11a2f9fc","session_id":"643c24d80d8cc24ba0339900","study_id":"64370a36d30bfa807bc7e43c"},{"rt":null,"stimulus":"\n\t\t\t<h2>Good job! You've finished the 30 trials:p</h2>\n\t\t\t<p>In the next session, you will see two cards on the screen in each trial.</p>\n\t\t\t<p>On one card is a pattern that you have seen before in the experiment,\n\t\t\t\tand on the other card is one you have not seen.</p><br>\n\t\t\t<p>Your task is to choose the one you think you <em>have</em> seen before for every trial.</p>\n\t\t\t<p>Press '<span style=\"color: red;\"><strong>F</strong></span>' to choose the card on the left,\n\t\t\t\tand '<span style=\"color: red;\"><strong>J</strong></span>' to choose the card on the right.</p>\n\t\t\t<p>Have fun!</p>\n\t\t\t<br>\n\t\t\t<p>The trials will begin in 30 seconds</p>\n\t\t\t","response":null,"trial_type":"html-keyboard-response","trial_index":126,"time_elapsed":913115,"internal_node_id":"0.0-4.0","prolific_id":"62b9f3589e8d599c11a2f9fc","session_id":"643c24d80d8cc24ba0339900","study_id":"64370a36d30bfa807bc7e43c"},{"rt":7008,"stimulus":"\n\t\t\t\t\t\t<div class=\"two_card_container\">\n\t\t\t\t\t\t<div class=\"card_container\">\n\t\t\t\t\t\t<img src=img/2.png>\n\t\t\t\t\t\t</div>\n\n\t\t\t\t\t\t<div class=\"card_container\">\n\t\t\t\t\t\t<img src=img/32.png>\n\t\t\t\t\t\t</div>","response":"j","task":"response","correct_response":"f","trial_type":"html-keyboard-response","trial_index":127,"time_elapsed":920134,"internal_node_id":"0.0-5.0-0.0","prolific_id":"62b9f3589e8d599c11a2f9fc","session_id":"643c24d80d8cc24ba0339900","study_id":"64370a36d30bfa807bc7e43c","correct":false},{"rt":null,"stimulus":"\n\t\t\t\t\t<p>Wrong answer</p>\n\t\t\t\t\t","response":null,"trial_type":"html-keyboard-response","trial_index":128,"time_elapsed":921143,"internal_node_id":"0.0-5.0-1.0","prolific_id":"62b9f3589e8d599c11a2f9fc","session_id":"643c24d80d8cc24ba0339900","study_id":"64370a36d30bfa807bc7e43c"},{"rt":2766,"stimulus":"\n\t\t\t\t\t\t<div class=\"two_card_container\">\n\t\t\t\t\t\t<div class=\"card_container\">\n\t\t\t\t\t\t<img src=img/35.png>\n\t\t\t\t\t\t</div>\n\n\t\t\t\t\t\t<div class=\"card_container\">\n\t\t\t\t\t\t<img src=img/12.png>\n\t\t\t\t\t\t</div>","response":"f","task":"response","correct_response":"j","trial_type":"html-keyboard-response","trial_index":129,"time_elapsed":923917,"internal_node_id":"0.0-5.0-0.1","prolific_id":"62b9f3589e8d599c11a2f9fc","session_id":"643c24d80d8cc24ba0339900","study_id":"64370a36d30bfa807bc7e43c","correct":false},{"rt":null,"stimulus":"\n\t\t\t\t\t<p>Wrong answer</p>\n\t\t\t\t\t","response":null,"trial_type":"html-keyboard-response","trial_index":130,"time_elapsed":924921,"internal_node_id":"0.0-5.0-1.1","prolific_id":"62b9f3589e8d599c11a2f9fc","session_id":"643c24d80d8cc24ba0339900","study_id":"64370a36d30bfa807bc7e43c"},{"rt":3224,"stimulus":"\n\t\t\t\t\t\t<div class=\"two_card_container\">\n\t\t\t\t\t\t<div class=\"card_container\">\n\t\t\t\t\t\t<img src=img/7.png>\n\t\t\t\t\t\t</div>\n\n\t\t\t\t\t\t<div class=\"card_container\">\n\t\t\t\t\t\t<img src=img/34.png>\n\t\t\t\t\t\t</div>","response":"j","task":"response","correct_response":"f","trial_type":"html-keyboard-response","trial_index":131,"time_elapsed":928154,"internal_node_id":"0.0-5.0-0.2","prolific_id":"62b9f3589e8d599c11a2f9fc","session_id":"643c24d80d8cc24ba0339900","study_id":"64370a36d30bfa807bc7e43c","correct":false},{"rt":null,"stimulus":"\n\t\t\t\t\t<p>Wrong answer</p>\n\t\t\t\t\t","response":null,"trial_type":"html-keyboard-response","trial_index":132,"time_elapsed":929157,"internal_node_id":"0.0-5.0-1.2","prolific_id":"62b9f3589e8d599c11a2f9fc","session_id":"643c24d80d8cc24ba0339900","study_id":"64370a36d30bfa807bc7e43c"},{"rt":1625,"stimulus":"\n\t\t\t\t\t\t<div class=\"two_card_container\">\n\t\t\t\t\t\t<div class=\"card_container\">\n\t\t\t\t\t\t<img src=img/33.png>\n\t\t\t\t\t\t</div>\n\n\t\t\t\t\t\t<div class=\"card_container\">\n\t\t\t\t\t\t<img src=img/18.png>\n\t\t\t\t\t\t</div>","response":"j","task":"response","correct_response":"j","trial_type":"html-keyboard-response","trial_index":133,"time_elapsed":930789,"internal_node_id":"0.0-5.0-0.3","prolific_id":"62b9f3589e8d599c11a2f9fc","session_id":"643c24d80d8cc24ba0339900","study_id":"64370a36d30bfa807bc7e43c","correct":true},{"rt":null,"stimulus":"\n\t\t\t\t\t<p>Correct!</p>\n\t\t\t\t\t","response":null,"trial_type":"html-keyboard-response","trial_index":134,"time_elapsed":931792,"internal_node_id":"0.0-5.0-1.3","prolific_id":"62b9f3589e8d599c11a2f9fc","session_id":"643c24d80d8cc24ba0339900","study_id":"64370a36d30bfa807bc7e43c"},{"rt":1653,"stimulus":"\n\t\t\t\t\t\t<div class=\"two_card_container\">\n\t\t\t\t\t\t<div class=\"card_container\">\n\t\t\t\t\t\t<img src=img/37.png>\n\t\t\t\t\t\t</div>\n\n\t\t\t\t\t\t<div class=\"card_container\">\n\t\t\t\t\t\t<img src=img/15.png>\n\t\t\t\t\t\t</div>","response":"j","task":"response","correct_response":"j","trial_type":"html-keyboard-response","trial_index":135,"time_elapsed":933451,"internal_node_id":"0.0-5.0-0.4","prolific_id":"62b9f3589e8d599c11a2f9fc","session_id":"643c24d80d8cc24ba0339900","study_id":"64370a36d30bfa807bc7e43c","correct":true},{"rt":null,"stimulus":"\n\t\t\t\t\t<p>Correct!</p>\n\t\t\t\t\t","response":null,"trial_type":"html-keyboard-response","trial_index":136,"time_elapsed":934453,"internal_node_id":"0.0-5.0-1.4","prolific_id":"62b9f3589e8d599c11a2f9fc","session_id":"643c24d80d8cc24ba0339900","study_id":"64370a36d30bfa807bc7e43c"},{"rt":3111,"stimulus":"\n\t\t\t\t\t\t<div class=\"two_card_container\">\n\t\t\t\t\t\t<div class=\"card_container\">\n\t\t\t\t\t\t<img src=img/22.png>\n\t\t\t\t\t\t</div>\n\n\t\t\t\t\t\t<div class=\"card_container\">\n\t\t\t\t\t\t<img src=img/31.png>\n\t\t\t\t\t\t</div>","response":"f","task":"response","correct_response":"f","trial_type":"html-keyboard-response","trial_index":137,"time_elapsed":937568,"internal_node_id":"0.0-5.0-0.5","prolific_id":"62b9f3589e8d599c11a2f9fc","session_id":"643c24d80d8cc24ba0339900","study_id":"64370a36d30bfa807bc7e43c","correct":true},{"rt":null,"stimulus":"\n\t\t\t\t\t<p>Correct!</p>\n\t\t\t\t\t","response":null,"trial_type":"html-keyboard-response","trial_index":138,"time_elapsed":938572,"internal_node_id":"0.0-5.0-1.5","prolific_id":"62b9f3589e8d599c11a2f9fc","session_id":"643c24d80d8cc24ba0339900","study_id":"64370a36d30bfa807bc7e43c"},{"rt":1852,"stimulus":"\n\t\t\t\t\t\t<div class=\"two_card_container\">\n\t\t\t\t\t\t<div class=\"card_container\">\n\t\t\t\t\t\t<img src=img/5.png>\n\t\t\t\t\t\t</div>\n\n\t\t\t\t\t\t<div class=\"card_container\">\n\t\t\t\t\t\t<img src=img/39.png>\n\t\t\t\t\t\t</div>","response":"f","task":"response","correct_response":"f","trial_type":"html-keyboard-response","trial_index":139,"time_elapsed":940429,"internal_node_id":"0.0-5.0-0.6","prolific_id":"62b9f3589e8d599c11a2f9fc","session_id":"643c24d80d8cc24ba0339900","study_id":"64370a36d30bfa807bc7e43c","correct":true},{"rt":null,"stimulus":"\n\t\t\t\t\t<p>Correct!</p>\n\t\t\t\t\t","response":null,"trial_type":"html-keyboard-response","trial_index":140,"time_elapsed":941432,"internal_node_id":"0.0-5.0-1.6","prolific_id":"62b9f3589e8d599c11a2f9fc","session_id":"643c24d80d8cc24ba0339900","study_id":"64370a36d30bfa807bc7e43c"},{"rt":1285,"stimulus":"\n\t\t\t\t\t\t<div class=\"two_card_container\">\n\t\t\t\t\t\t<div class=\"card_container\">\n\t\t\t\t\t\t<img src=img/38.png>\n\t\t\t\t\t\t</div>\n\n\t\t\t\t\t\t<div class=\"card_container\">\n\t\t\t\t\t\t<img src=img/4.png>\n\t\t\t\t\t\t</div>","response":"j","task":"response","correct_response":"j","trial_type":"html-keyboard-response","trial_index":141,"time_elapsed":942721,"internal_node_id":"0.0-5.0-0.7","prolific_id":"62b9f3589e8d599c11a2f9fc","session_id":"643c24d80d8cc24ba0339900","study_id":"64370a36d30bfa807bc7e43c","correct":true},{"rt":null,"stimulus":"\n\t\t\t\t\t<p>Correct!</p>\n\t\t\t\t\t","response":null,"trial_type":"html-keyboard-response","trial_index":142,"time_elapsed":943725,"internal_node_id":"0.0-5.0-1.7","prolific_id":"62b9f3589e8d599c11a2f9fc","session_id":"643c24d80d8cc24ba0339900","study_id":"64370a36d30bfa807bc7e43c"},{"rt":1527,"stimulus":"\n\t\t\t\t\t\t<div class=\"two_card_container\">\n\t\t\t\t\t\t<div class=\"card_container\">\n\t\t\t\t\t\t<img src=img/40.png>\n\t\t\t\t\t\t</div>\n\n\t\t\t\t\t\t<div class=\"card_container\">\n\t\t\t\t\t\t<img src=img/25.png>\n\t\t\t\t\t\t</div>","response":"j","task":"response","correct_response":"j","trial_type":"html-keyboard-response","trial_index":143,"time_elapsed":945257,"internal_node_id":"0.0-5.0-0.8","prolific_id":"62b9f3589e8d599c11a2f9fc","session_id":"643c24d80d8cc24ba0339900","study_id":"64370a36d30bfa807bc7e43c","correct":true},{"rt":null,"stimulus":"\n\t\t\t\t\t<p>Correct!</p>\n\t\t\t\t\t","response":null,"trial_type":"html-keyboard-response","trial_index":144,"time_elapsed":946259,"internal_node_id":"0.0-5.0-1.8","prolific_id":"62b9f3589e8d599c11a2f9fc","session_id":"643c24d80d8cc24ba0339900","study_id":"64370a36d30bfa807bc7e43c"},{"rt":1486,"stimulus":"\n\t\t\t\t\t\t<div class=\"two_card_container\">\n\t\t\t\t\t\t<div class=\"card_container\">\n\t\t\t\t\t\t<img src=img/20.png>\n\t\t\t\t\t\t</div>\n\n\t\t\t\t\t\t<div class=\"card_container\">\n\t\t\t\t\t\t<img src=img/36.png>\n\t\t\t\t\t\t</div>","response":"f","task":"response","correct_response":"f","trial_type":"html-keyboard-response","trial_index":145,"time_elapsed":947749,"internal_node_id":"0.0-5.0-0.9","prolific_id":"62b9f3589e8d599c11a2f9fc","session_id":"643c24d80d8cc24ba0339900","study_id":"64370a36d30bfa807bc7e43c","correct":true},{"rt":null,"stimulus":"\n\t\t\t\t\t<p>Correct!</p>\n\t\t\t\t\t","response":null,"trial_type":"html-keyboard-response","trial_index":146,"time_elapsed":948754,"internal_node_id":"0.0-5.0-1.9","prolific_id":"62b9f3589e8d599c11a2f9fc","session_id":"643c24d80d8cc24ba0339900","study_id":"64370a36d30bfa807bc7e43c"},{"rt":3055,"stimulus":"\n\t\t\t<h2>Good job :p</h2>\n\t\t\t<p>In the next session, you will see a trivia question on the screen in each trial.</p>\n\t\t\t<p>Each of these trivia questions is chosen from the questions you have already seen in the first session of the experiment.</p><br>\n\t\t\t<p>Your task is to answer the trivia question based on what you remember as accurately as you can.</p>\n\t\t\t<p>Have fun!</p>\n\t\t\t<br>\n\t\t\t<p>The trials will begin in 30 seconds</p>\n\t\t\t","response":" ","trial_type":"html-keyboard-response","trial_index":147,"time_elapsed":951814,"internal_node_id":"0.0-6.0","prolific_id":"62b9f3589e8d599c11a2f9fc","session_id":"643c24d80d8cc24ba0339900","study_id":"64370a36d30bfa807bc7e43c"},{"rt":7671,"response":{"answer":"28"},"task":"response","correct_response":"28","trial_type":"survey-text","trial_index":148,"time_elapsed":959495,"internal_node_id":"0.0-7.0-0.0","prolific_id":"62b9f3589e8d599c11a2f9fc","session_id":"643c24d80d8cc24ba0339900","study_id":"64370a36d30bfa807bc7e43c","difference":0},{"rt":null,"stimulus":"<h2>The correct answer is 28.</h2><p>Your answer was different from the answer by 0.</p><p>You got the right answer. Amazing work!</p>","response":null,"trial_type":"html-keyboard-response","trial_index":149,"time_elapsed":962000,"internal_node_id":"0.0-7.0-1.0","prolific_id":"62b9f3589e8d599c11a2f9fc","session_id":"643c24d80d8cc24ba0339900","study_id":"64370a36d30bfa807bc7e43c"},{"rt":5441,"response":{"answer":"8"},"task":"response","correct_response":"4","trial_type":"survey-text","trial_index":150,"time_elapsed":967453,"internal_node_id":"0.0-7.0-0.1","prolific_id":"62b9f3589e8d599c11a2f9fc","session_id":"643c24d80d8cc24ba0339900","study_id":"64370a36d30bfa807bc7e43c","difference":100},{"rt":null,"stimulus":"<h2>The correct answer is 4.</h2><p>Your answer was different from the answer by 4.</p><p>Not even close... do better next time!</p>","response":null,"trial_type":"html-keyboard-response","trial_index":151,"time_elapsed":969959,"internal_node_id":"0.0-7.0-1.1","prolific_id":"62b9f3589e8d599c11a2f9fc","session_id":"643c24d80d8cc24ba0339900","study_id":"64370a36d30bfa807bc7e43c"},{"rt":9624,"response":{"answer":"1902"},"task":"response","correct_response":"1901","trial_type":"survey-text","trial_index":152,"time_elapsed":979595,"internal_node_id":"0.0-7.0-0.2","prolific_id":"62b9f3589e8d599c11a2f9fc","session_id":"643c24d80d8cc24ba0339900","study_id":"64370a36d30bfa807bc7e43c","difference":0},{"rt":null,"stimulus":"<h2>The correct answer is 1901.</h2><p>Your answer was different from the answer by 1.</p><p>Excellent. Kudos to you!</p>","response":null,"trial_type":"html-keyboard-response","trial_index":153,"time_elapsed":982100,"internal_node_id":"0.0-7.0-1.2","prolific_id":"62b9f3589e8d599c11a2f9fc","session_id":"643c24d80d8cc24ba0339900","study_id":"64370a36d30bfa807bc7e43c"},{"rt":6141,"response":{"answer":"163"},"task":"response","correct_response":"163","trial_type":"survey-text","trial_index":154,"time_elapsed":988251,"internal_node_id":"0.0-7.0-0.3","prolific_id":"62b9f3589e8d599c11a2f9fc","session_id":"643c24d80d8cc24ba0339900","study_id":"64370a36d30bfa807bc7e43c","difference":0},{"rt":null,"stimulus":"<h2>The correct answer is 163.</h2><p>Your answer was different from the answer by 0.</p><p>You got the right answer. Amazing work!</p>","response":null,"trial_type":"html-keyboard-response","trial_index":155,"time_elapsed":990757,"internal_node_id":"0.0-7.0-1.3","prolific_id":"62b9f3589e8d599c11a2f9fc","session_id":"643c24d80d8cc24ba0339900","study_id":"64370a36d30bfa807bc7e43c"},{"rt":5606,"response":{"answer":"26"},"task":"response","correct_response":"6","trial_type":"survey-text","trial_index":156,"time_elapsed":996375,"internal_node_id":"0.0-7.0-0.4","prolific_id":"62b9f3589e8d599c11a2f9fc","session_id":"643c24d80d8cc24ba0339900","study_id":"64370a36d30bfa807bc7e43c","difference":100},{"rt":null,"stimulus":"<h2>The correct answer is 6.</h2><p>Your answer was different from the answer by 20.</p><p>Not even close... do better next time!</p>","response":null,"trial_type":"html-keyboard-response","trial_index":157,"time_elapsed":998881,"internal_node_id":"0.0-7.0-1.4","prolific_id":"62b9f3589e8d599c11a2f9fc","session_id":"643c24d80d8cc24ba0339900","study_id":"64370a36d30bfa807bc7e43c"},{"rt":5339,"response":{"answer":"26"},"task":"response","correct_response":"21","trial_type":"survey-text","trial_index":158,"time_elapsed":1004232,"internal_node_id":"0.0-7.0-0.5","prolific_id":"62b9f3589e8d599c11a2f9fc","session_id":"643c24d80d8cc24ba0339900","study_id":"64370a36d30bfa807bc7e43c","difference":24},{"rt":null,"stimulus":"<h2>The correct answer is 21.</h2><p>Your answer was different from the answer by 5.</p><p>A pretty good job indeed.</p>","response":null,"trial_type":"html-keyboard-response","trial_index":159,"time_elapsed":1006736,"internal_node_id":"0.0-7.0-1.5","prolific_id":"62b9f3589e8d599c11a2f9fc","session_id":"643c24d80d8cc24ba0339900","study_id":"64370a36d30bfa807bc7e43c"},{"rt":8424,"response":{"answer":"8000"},"task":"response","correct_response":"7917.5","trial_type":"survey-text","trial_index":160,"time_elapsed":1015173,"internal_node_id":"0.0-7.0-0.6","prolific_id":"62b9f3589e8d599c11a2f9fc","session_id":"643c24d80d8cc24ba0339900","study_id":"64370a36d30bfa807bc7e43c","difference":1},{"rt":null,"stimulus":"<h2>The correct answer is 7917.5.</h2><p>Your answer was different from the answer by 82.5.</p><p>Excellent. Kudos to you!</p>","response":null,"trial_type":"html-keyboard-response","trial_index":161,"time_elapsed":1017679,"internal_node_id":"0.0-7.0-1.6","prolific_id":"62b9f3589e8d599c11a2f9fc","session_id":"643c24d80d8cc24ba0339900","study_id":"64370a36d30bfa807bc7e43c"},{"rt":6353,"response":{"answer":"11"},"task":"response","correct_response":"11","trial_type":"survey-text","trial_index":162,"time_elapsed":1024047,"internal_node_id":"0.0-7.0-0.7","prolific_id":"62b9f3589e8d599c11a2f9fc","session_id":"643c24d80d8cc24ba0339900","study_id":"64370a36d30bfa807bc7e43c","difference":0},{"rt":null,"stimulus":"<h2>The correct answer is 11.</h2><p>Your answer was different from the answer by 0.</p><p>You got the right answer. Amazing work!</p>","response":null,"trial_type":"html-keyboard-response","trial_index":163,"time_elapsed":1026553,"internal_node_id":"0.0-7.0-1.7","prolific_id":"62b9f3589e8d599c11a2f9fc","session_id":"643c24d80d8cc24ba0339900","study_id":"64370a36d30bfa807bc7e43c"},{"rt":5416,"response":{"answer":"77"},"task":"response","correct_response":"79","trial_type":"survey-text","trial_index":164,"time_elapsed":1031981,"internal_node_id":"0.0-7.0-0.8","prolific_id":"62b9f3589e8d599c11a2f9fc","session_id":"643c24d80d8cc24ba0339900","study_id":"64370a36d30bfa807bc7e43c","difference":3},{"rt":null,"stimulus":"<h2>The correct answer is 79.</h2><p>Your answer was different from the answer by 2.</p><p>Excellent. Kudos to you!</p>","response":null,"trial_type":"html-keyboard-response","trial_index":165,"time_elapsed":1034487,"internal_node_id":"0.0-7.0-1.8","prolific_id":"62b9f3589e8d599c11a2f9fc","session_id":"643c24d80d8cc24ba0339900","study_id":"64370a36d30bfa807bc7e43c"},{"rt":5980,"response":{"answer":"25"},"task":"response","correct_response":"4","trial_type":"survey-text","trial_index":166,"time_elapsed":1040477,"internal_node_id":"0.0-7.0-0.9","prolific_id":"62b9f3589e8d599c11a2f9fc","session_id":"643c24d80d8cc24ba0339900","study_id":"64370a36d30bfa807bc7e43c","difference":100},{"rt":null,"stimulus":"<h2>The correct answer is 4.</h2><p>Your answer was different from the answer by 21.</p><p>Not even close... do better next time!</p>","response":null,"trial_type":"html-keyboard-response","trial_index":167,"time_elapsed":1042981,"internal_node_id":"0.0-7.0-1.9","prolific_id":"62b9f3589e8d599c11a2f9fc","session_id":"643c24d80d8cc24ba0339900","study_id":"64370a36d30bfa807bc7e43c"}]