[{"success":true,"timeout":false,"failed_images":[],"failed_audio":[],"failed_video":[],"trial_type":"preload","trial_index":0,"time_elapsed":3929,"internal_node_id":"0.0-0.0","prolific_id":"62d7858e9d0bb849183e1500","session_id":"64399b2a0cdee30321d9f0a9","study_id":"64370a36d30bfa807bc7e43c"},{"rt":3642,"stimulus":"\n\t\t\t\t\t<p>Welcome and thank you for participating in this study!</p>\n\t\t\t\t\t<p>In each trial, you will be given a trivia question and then be asked to:</p><br>\n\t\t\t\t\t<div class=\"list\">\n\t\t\t\t\t<p>1) Predict the answer</p>\n\t\t\t\t\t<p>2) Rate how much you already know about the topic</p>\n\t\t\t\t\t<p>3) Rate how much you want to know the answer</p>\n\t\t\t\t\t</div>\n\t\t\t\t\t<br>\n\t\t\t\t\t<p>Then, you will see a card that flips over to reveal the answer.</p>\n\t\t\t\t\t<br>\n\t\t\t\t\t<p>Let's try a practice round. Press <span style=\"color: red\"><strong>any key</strong></span> to move to the next slide</p>\n\t\t\t\t\t","response":" ","trial_type":"html-keyboard-response","trial_index":1,"time_elapsed":7573,"internal_node_id":"0.0-1.0","prolific_id":"62d7858e9d0bb849183e1500","session_id":"64399b2a0cdee30321d9f0a9","study_id":"64370a36d30bfa807bc7e43c"},{"rt":6141,"response":{"practice prediction":"6"},"task":"practice","trial_type":"survey-text","trial_index":2,"time_elapsed":13750,"internal_node_id":"0.0-2.0-0.0","prolific_id":"62d7858e9d0bb849183e1500","session_id":"64399b2a0cdee30321d9f0a9","study_id":"64370a36d30bfa807bc7e43c"},{"rt":7763,"response":{"practice":5},"accuracy":[],"trial_type":"survey","trial_index":3,"time_elapsed":21582,"internal_node_id":"0.0-2.0-1.0","prolific_id":"62d7858e9d0bb849183e1500","session_id":"64399b2a0cdee30321d9f0a9","study_id":"64370a36d30bfa807bc7e43c"},{"rt":null,"stimulus":"\n\t\t\t\t<div class=\"flip_card\">\n\t\t\t\t\t<div class=\"flip_card_inner\">\n\t\t\t\t\t\t<div class=\"flip_card_front\">\n\t\t\t\t\t\t\t<img src=img/practice.png>\n\t\t\t\t\t\t</div>\n\t\t\t\t\t\t<div class=\"flip_card_back\">\n\t\t\t\t\t\t\t<h2>\"How many legs does a lobster have?\"</h2>\n\t\t\t\t\t\t    <br>\n\t\t\t\t\t\t    <p>Answer: <strong>\"10\"</strong></p>\n\t\t\t\t\t    </div>\n\t\t\t\t    </div>\n\t\t\t    </div>\n\t\t\t\t","response":null,"trial_type":"html-keyboard-response","trial_index":4,"time_elapsed":26583,"internal_node_id":"0.0-2.0-2.0","prolific_id":"62d7858e9d0bb849183e1500","session_id":"64399b2a0cdee30321d9f0a9","study_id":"64370a36d30bfa807bc7e43c"},{"rt":1300,"stimulus":"\n\t\t\t\t\t<div>\n\t\t\t\t\t<h2>The practice round is over</h2>\n\t\t\t\t\t<p>Press <span style=\"color: red\"><strong>any key</strong></span> to continue to the actual trials</p>\n\t\t\t\t\t<p>Good Luck!</p>\n\t\t\t\t\t</div>\n\t\t\t\t\t","response":" ","trial_type":"html-keyboard-response","trial_index":5,"time_elapsed":27884,"internal_node_id":"0.0-2.0-3.0","prolific_id":"62d7858e9d0bb849183e1500","session_id":"64399b2a0cdee30321d9f0a9","study_id":"64370a36d30bfa807bc7e43c"},{"rt":8868,"response":{"prediction":"8"},"trial_type":"survey-text","trial_index":6,"time_elapsed":36755,"internal_node_id":"0.0-3.0-0.0","prolific_id":"62d7858e9d0bb849183e1500","session_id":"64399b2a0cdee30321d9f0a9","study_id":"64370a36d30bfa807bc7e43c"},{"rt":4760,"response":{"prior knowledge":0,"curiosity":5},"accuracy":[],"trial_type":"survey","trial_index":7,"time_elapsed":41532,"internal_node_id":"0.0-3.0-1.0","prolific_id":"62d7858e9d0bb849183e1500","session_id":"64399b2a0cdee30321d9f0a9","study_id":"64370a36d30bfa807bc7e43c"},{"rt":null,"stimulus":"\n\t\t\t<div class=\"flip_card\">\n\t\t\t\t<div class=\"flip_card_inner\">\n\t\t\t\t\t<div class=\"flip_card_front\">\n\t\t\t\t\t\t<img src=img/9.png>\n\t\t\t\t\t</div>\n\t\t\t\t\t<div class=\"flip_card_back\">\n\t\t\t\t\t\t<h2>How many native species of kangaroos are found in Australia?</h2>\n\t\t\t\t\t\t<br>\n\t\t\t\t\t\t<p>Answer: <strong>4</strong></p>\n\t\t\t\t\t</div>\n\t\t\t\t</div>\n\t\t\t</div>\n\t\t\t","response":null,"trial_type":"html-keyboard-response","trial_index":8,"time_elapsed":46534,"internal_node_id":"0.0-3.0-2.0","prolific_id":"62d7858e9d0bb849183e1500","session_id":"64399b2a0cdee30321d9f0a9","study_id":"64370a36d30bfa807bc7e43c"},{"rt":1118,"stimulus":"\n\t\t\t\t\t<div>\n\t\t\t\t\t<h2>Trial 1 is over</h2>\n\t\t\t\t\t<p>Press <span style=\"color: red\"><strong>any key</strong></span> to continue to the next trial</p>\n\t\t\t\t\t</div>\n\t\t\t\t","response":" ","trial_type":"html-keyboard-response","trial_index":9,"time_elapsed":47653,"internal_node_id":"0.0-3.0-3.0","prolific_id":"62d7858e9d0bb849183e1500","session_id":"64399b2a0cdee30321d9f0a9","study_id":"64370a36d30bfa807bc7e43c"},{"rt":11581,"response":{"prediction":"3"},"trial_type":"survey-text","trial_index":10,"time_elapsed":59239,"internal_node_id":"0.0-3.0-0.1","prolific_id":"62d7858e9d0bb849183e1500","session_id":"64399b2a0cdee30321d9f0a9","study_id":"64370a36d30bfa807bc7e43c"},{"rt":4573,"response":{"prior knowledge":0,"curiosity":5},"accuracy":[],"trial_type":"survey","trial_index":11,"time_elapsed":63826,"internal_node_id":"0.0-3.0-1.1","prolific_id":"62d7858e9d0bb849183e1500","session_id":"64399b2a0cdee30321d9f0a9","study_id":"64370a36d30bfa807bc7e43c"},{"rt":null,"stimulus":"\n\t\t\t<div class=\"flip_card\">\n\t\t\t\t<div class=\"flip_card_inner\">\n\t\t\t\t\t<div class=\"flip_card_front\">\n\t\t\t\t\t\t<img src=img/13.png>\n\t\t\t\t\t</div>\n\t\t\t\t\t<div class=\"flip_card_back\">\n\t\t\t\t\t\t<h2>How many times a day do Muslims pray?</h2>\n\t\t\t\t\t\t<br>\n\t\t\t\t\t\t<p>Answer: <strong>5</strong></p>\n\t\t\t\t\t</div>\n\t\t\t\t</div>\n\t\t\t</div>\n\t\t\t","response":null,"trial_type":"html-keyboard-response","trial_index":12,"time_elapsed":68834,"internal_node_id":"0.0-3.0-2.1","prolific_id":"62d7858e9d0bb849183e1500","session_id":"64399b2a0cdee30321d9f0a9","study_id":"64370a36d30bfa807bc7e43c"},{"rt":817,"stimulus":"\n\t\t\t\t\t<div>\n\t\t\t\t\t<h2>Trial 2 is over</h2>\n\t\t\t\t\t<p>Press <span style=\"color: red\"><strong>any key</strong></span> to continue to the next trial</p>\n\t\t\t\t\t</div>\n\t\t\t\t","response":" ","trial_type":"html-keyboard-response","trial_index":13,"time_elapsed":69652,"internal_node_id":"0.0-3.0-3.1","prolific_id":"62d7858e9d0bb849183e1500","session_id":"64399b2a0cdee30321d9f0a9","study_id":"64370a36d30bfa807bc7e43c"},{"rt":18756,"response":{"prediction":"1898"},"trial_type":"survey-text","trial_index":14,"time_elapsed":88411,"internal_node_id":"0.0-3.0-0.2","prolific_id":"62d7858e9d0bb849183e1500","session_id":"64399b2a0cdee30321d9f0a9","study_id":"64370a36d30bfa807bc7e43c"},{"rt":3868,"response":{"prior knowledge":0,"curiosity":5},"accuracy":[],"trial_type":"survey","trial_index":15,"time_elapsed":92299,"internal_node_id":"0.0-3.0-1.2","prolific_id":"62d7858e9d0bb849183e1500","session_id":"64399b2a0cdee30321d9f0a9","study_id":"64370a36d30bfa807bc7e43c"},{"rt":null,"stimulus":"\n\t\t\t<div class=\"flip_card\">\n\t\t\t\t<div class=\"flip_card_inner\">\n\t\t\t\t\t<div class=\"flip_card_front\">\n\t\t\t\t\t\t<img src=img/4.png>\n\t\t\t\t\t</div>\n\t\t\t\t\t<div class=\"flip_card_back\">\n\t\t\t\t\t\t<h2>What year did the titanic sink?</h2>\n\t\t\t\t\t\t<br>\n\t\t\t\t\t\t<p>Answer: <strong>1912</strong></p>\n\t\t\t\t\t</div>\n\t\t\t\t</div>\n\t\t\t</div>\n\t\t\t","response":null,"trial_type":"html-keyboard-response","trial_index":16,"time_elapsed":97306,"internal_node_id":"0.0-3.0-2.2","prolific_id":"62d7858e9d0bb849183e1500","session_id":"64399b2a0cdee30321d9f0a9","study_id":"64370a36d30bfa807bc7e43c"},{"rt":842,"stimulus":"\n\t\t\t\t\t<div>\n\t\t\t\t\t<h2>Trial 3 is over</h2>\n\t\t\t\t\t<p>Press <span style=\"color: red\"><strong>any key</strong></span> to continue to the next trial</p>\n\t\t\t\t\t</div>\n\t\t\t\t","response":" ","trial_type":"html-keyboard-response","trial_index":17,"time_elapsed":98149,"internal_node_id":"0.0-3.0-3.2","prolific_id":"62d7858e9d0bb849183e1500","session_id":"64399b2a0cdee30321d9f0a9","study_id":"64370a36d30bfa807bc7e43c"},{"rt":6363,"response":{"prediction":"12"},"trial_type":"survey-text","trial_index":18,"time_elapsed":104514,"internal_node_id":"0.0-3.0-0.3","prolific_id":"62d7858e9d0bb849183e1500","session_id":"64399b2a0cdee30321d9f0a9","study_id":"64370a36d30bfa807bc7e43c"},{"rt":3930,"response":{"prior knowledge":0,"curiosity":3},"accuracy":[],"trial_type":"survey","trial_index":19,"time_elapsed":108464,"internal_node_id":"0.0-3.0-1.3","prolific_id":"62d7858e9d0bb849183e1500","session_id":"64399b2a0cdee30321d9f0a9","study_id":"64370a36d30bfa807bc7e43c"},{"rt":null,"stimulus":"\n\t\t\t<div class=\"flip_card\">\n\t\t\t\t<div class=\"flip_card_inner\">\n\t\t\t\t\t<div class=\"flip_card_front\">\n\t\t\t\t\t\t<img src=img/5.png>\n\t\t\t\t\t</div>\n\t\t\t\t\t<div class=\"flip_card_back\">\n\t\t\t\t\t\t<h2>How many books are in the Catholic Bible?</h2>\n\t\t\t\t\t\t<br>\n\t\t\t\t\t\t<p>Answer: <strong>73</strong></p>\n\t\t\t\t\t</div>\n\t\t\t\t</div>\n\t\t\t</div>\n\t\t\t","response":null,"trial_type":"html-keyboard-response","trial_index":20,"time_elapsed":113473,"internal_node_id":"0.0-3.0-2.3","prolific_id":"62d7858e9d0bb849183e1500","session_id":"64399b2a0cdee30321d9f0a9","study_id":"64370a36d30bfa807bc7e43c"},{"rt":568,"stimulus":"\n\t\t\t\t\t<div>\n\t\t\t\t\t<h2>Trial 4 is over</h2>\n\t\t\t\t\t<p>Press <span style=\"color: red\"><strong>any key</strong></span> to continue to the next trial</p>\n\t\t\t\t\t</div>\n\t\t\t\t","response":" ","trial_type":"html-keyboard-response","trial_index":21,"time_elapsed":114042,"internal_node_id":"0.0-3.0-3.3","prolific_id":"62d7858e9d0bb849183e1500","session_id":"64399b2a0cdee30321d9f0a9","study_id":"64370a36d30bfa807bc7e43c"},{"rt":5000,"response":{"prediction":"103"},"trial_type":"survey-text","trial_index":22,"time_elapsed":119046,"internal_node_id":"0.0-3.0-0.4","prolific_id":"62d7858e9d0bb849183e1500","session_id":"64399b2a0cdee30321d9f0a9","study_id":"64370a36d30bfa807bc7e43c"},{"rt":3243,"response":{"prior knowledge":2,"curiosity":5},"accuracy":[],"trial_type":"survey","trial_index":23,"time_elapsed":122307,"internal_node_id":"0.0-3.0-1.4","prolific_id":"62d7858e9d0bb849183e1500","session_id":"64399b2a0cdee30321d9f0a9","study_id":"64370a36d30bfa807bc7e43c"},{"rt":null,"stimulus":"\n\t\t\t<div class=\"flip_card\">\n\t\t\t\t<div class=\"flip_card_inner\">\n\t\t\t\t\t<div class=\"flip_card_front\">\n\t\t\t\t\t\t<img src=img/8.png>\n\t\t\t\t\t</div>\n\t\t\t\t\t<div class=\"flip_card_back\">\n\t\t\t\t\t\t<h2>How many double stitches does a baseball have?</h2>\n\t\t\t\t\t\t<br>\n\t\t\t\t\t\t<p>Answer: <strong>108</strong></p>\n\t\t\t\t\t</div>\n\t\t\t\t</div>\n\t\t\t</div>\n\t\t\t","response":null,"trial_type":"html-keyboard-response","trial_index":24,"time_elapsed":127314,"internal_node_id":"0.0-3.0-2.4","prolific_id":"62d7858e9d0bb849183e1500","session_id":"64399b2a0cdee30321d9f0a9","study_id":"64370a36d30bfa807bc7e43c"},{"rt":645,"stimulus":"\n\t\t\t\t\t<div>\n\t\t\t\t\t<h2>Trial 5 is over</h2>\n\t\t\t\t\t<p>Press <span style=\"color: red\"><strong>any key</strong></span> to continue to the next trial</p>\n\t\t\t\t\t</div>\n\t\t\t\t","response":" ","trial_type":"html-keyboard-response","trial_index":25,"time_elapsed":127959,"internal_node_id":"0.0-3.0-3.4","prolific_id":"62d7858e9d0bb849183e1500","session_id":"64399b2a0cdee30321d9f0a9","study_id":"64370a36d30bfa807bc7e43c"},{"rt":15051,"response":{"prediction":"2"},"trial_type":"survey-text","trial_index":26,"time_elapsed":143013,"internal_node_id":"0.0-3.0-0.5","prolific_id":"62d7858e9d0bb849183e1500","session_id":"64399b2a0cdee30321d9f0a9","study_id":"64370a36d30bfa807bc7e43c"},{"rt":4122,"response":{"prior knowledge":1,"curiosity":5},"accuracy":[],"trial_type":"survey","trial_index":27,"time_elapsed":147151,"internal_node_id":"0.0-3.0-1.5","prolific_id":"62d7858e9d0bb849183e1500","session_id":"64399b2a0cdee30321d9f0a9","study_id":"64370a36d30bfa807bc7e43c"},{"rt":null,"stimulus":"\n\t\t\t<div class=\"flip_card\">\n\t\t\t\t<div class=\"flip_card_inner\">\n\t\t\t\t\t<div class=\"flip_card_front\">\n\t\t\t\t\t\t<img src=img/1.png>\n\t\t\t\t\t</div>\n\t\t\t\t\t<div class=\"flip_card_back\">\n\t\t\t\t\t\t<h2>How many countries have territory in the Arctic Circle?</h2>\n\t\t\t\t\t\t<br>\n\t\t\t\t\t\t<p>Answer: <strong>8</strong></p>\n\t\t\t\t\t</div>\n\t\t\t\t</div>\n\t\t\t</div>\n\t\t\t","response":null,"trial_type":"html-keyboard-response","trial_index":28,"time_elapsed":152156,"internal_node_id":"0.0-3.0-2.5","prolific_id":"62d7858e9d0bb849183e1500","session_id":"64399b2a0cdee30321d9f0a9","study_id":"64370a36d30bfa807bc7e43c"},{"rt":727,"stimulus":"\n\t\t\t\t\t<div>\n\t\t\t\t\t<h2>Trial 6 is over</h2>\n\t\t\t\t\t<p>Press <span style=\"color: red\"><strong>any key</strong></span> to continue to the next trial</p>\n\t\t\t\t\t</div>\n\t\t\t\t","response":" ","trial_type":"html-keyboard-response","trial_index":29,"time_elapsed":152885,"internal_node_id":"0.0-3.0-3.5","prolific_id":"62d7858e9d0bb849183e1500","session_id":"64399b2a0cdee30321d9f0a9","study_id":"64370a36d30bfa807bc7e43c"},{"rt":4261,"response":{"prediction":"28"},"trial_type":"survey-text","trial_index":30,"time_elapsed":157149,"internal_node_id":"0.0-3.0-0.6","prolific_id":"62d7858e9d0bb849183e1500","session_id":"64399b2a0cdee30321d9f0a9","study_id":"64370a36d30bfa807bc7e43c"},{"rt":2969,"response":{"prior knowledge":0,"curiosity":5},"accuracy":[],"trial_type":"survey","trial_index":31,"time_elapsed":160138,"internal_node_id":"0.0-3.0-1.6","prolific_id":"62d7858e9d0bb849183e1500","session_id":"64399b2a0cdee30321d9f0a9","study_id":"64370a36d30bfa807bc7e43c"},{"rt":null,"stimulus":"\n\t\t\t<div class=\"flip_card\">\n\t\t\t\t<div class=\"flip_card_inner\">\n\t\t\t\t\t<div class=\"flip_card_front\">\n\t\t\t\t\t\t<img src=img/12.png>\n\t\t\t\t\t</div>\n\t\t\t\t\t<div class=\"flip_card_back\">\n\t\t\t\t\t\t<h2>How old was King Tut when he died?</h2>\n\t\t\t\t\t\t<br>\n\t\t\t\t\t\t<p>Answer: <strong>19</strong></p>\n\t\t\t\t\t</div>\n\t\t\t\t</div>\n\t\t\t</div>\n\t\t\t","response":null,"trial_type":"html-keyboard-response","trial_index":32,"time_elapsed":165149,"internal_node_id":"0.0-3.0-2.6","prolific_id":"62d7858e9d0bb849183e1500","session_id":"64399b2a0cdee30321d9f0a9","study_id":"64370a36d30bfa807bc7e43c"},{"rt":587,"stimulus":"\n\t\t\t\t\t<div>\n\t\t\t\t\t<h2>Trial 7 is over</h2>\n\t\t\t\t\t<p>Press <span style=\"color: red\"><strong>any key</strong></span> to continue to the next trial</p>\n\t\t\t\t\t</div>\n\t\t\t\t","response":" ","trial_type":"html-keyboard-response","trial_index":33,"time_elapsed":165736,"internal_node_id":"0.0-3.0-3.6","prolific_id":"62d7858e9d0bb849183e1500","session_id":"64399b2a0cdee30321d9f0a9","study_id":"64370a36d30bfa807bc7e43c"},{"rt":8510,"response":{"prediction":"4"},"trial_type":"survey-text","trial_index":34,"time_elapsed":174250,"internal_node_id":"0.0-3.0-0.7","prolific_id":"62d7858e9d0bb849183e1500","session_id":"64399b2a0cdee30321d9f0a9","study_id":"64370a36d30bfa807bc7e43c"},{"rt":3752,"response":{"prior knowledge":0,"curiosity":5},"accuracy":[],"trial_type":"survey","trial_index":35,"time_elapsed":178018,"internal_node_id":"0.0-3.0-1.7","prolific_id":"62d7858e9d0bb849183e1500","session_id":"64399b2a0cdee30321d9f0a9","study_id":"64370a36d30bfa807bc7e43c"},{"rt":null,"stimulus":"\n\t\t\t<div class=\"flip_card\">\n\t\t\t\t<div class=\"flip_card_inner\">\n\t\t\t\t\t<div class=\"flip_card_front\">\n\t\t\t\t\t\t<img src=img/26.png>\n\t\t\t\t\t</div>\n\t\t\t\t\t<div class=\"flip_card_back\">\n\t\t\t\t\t\t<h2>How many main islands make up Japan?</h2>\n\t\t\t\t\t\t<br>\n\t\t\t\t\t\t<p>Answer: <strong>4</strong></p>\n\t\t\t\t\t</div>\n\t\t\t\t</div>\n\t\t\t</div>\n\t\t\t","response":null,"trial_type":"html-keyboard-response","trial_index":36,"time_elapsed":183021,"internal_node_id":"0.0-3.0-2.7","prolific_id":"62d7858e9d0bb849183e1500","session_id":"64399b2a0cdee30321d9f0a9","study_id":"64370a36d30bfa807bc7e43c"},{"rt":617,"stimulus":"\n\t\t\t\t\t<div>\n\t\t\t\t\t<h2>Trial 8 is over</h2>\n\t\t\t\t\t<p>Press <span style=\"color: red\"><strong>any key</strong></span> to continue to the next trial</p>\n\t\t\t\t\t</div>\n\t\t\t\t","response":" ","trial_type":"html-keyboard-response","trial_index":37,"time_elapsed":183639,"internal_node_id":"0.0-3.0-3.7","prolific_id":"62d7858e9d0bb849183e1500","session_id":"64399b2a0cdee30321d9f0a9","study_id":"64370a36d30bfa807bc7e43c"},{"rt":5917,"response":{"prediction":"4"},"trial_type":"survey-text","trial_index":38,"time_elapsed":189559,"internal_node_id":"0.0-3.0-0.8","prolific_id":"62d7858e9d0bb849183e1500","session_id":"64399b2a0cdee30321d9f0a9","study_id":"64370a36d30bfa807bc7e43c"},{"rt":3835,"response":{"prior knowledge":0,"curiosity":5},"accuracy":[],"trial_type":"survey","trial_index":39,"time_elapsed":193412,"internal_node_id":"0.0-3.0-1.8","prolific_id":"62d7858e9d0bb849183e1500","session_id":"64399b2a0cdee30321d9f0a9","study_id":"64370a36d30bfa807bc7e43c"},{"rt":null,"stimulus":"\n\t\t\t<div class=\"flip_card\">\n\t\t\t\t<div class=\"flip_card_inner\">\n\t\t\t\t\t<div class=\"flip_card_front\">\n\t\t\t\t\t\t<img src=img/15.png>\n\t\t\t\t\t</div>\n\t\t\t\t\t<div class=\"flip_card_back\">\n\t\t\t\t\t\t<h2>How many tones are in the Vietnamese language?</h2>\n\t\t\t\t\t\t<br>\n\t\t\t\t\t\t<p>Answer: <strong>6</strong></p>\n\t\t\t\t\t</div>\n\t\t\t\t</div>\n\t\t\t</div>\n\t\t\t","response":null,"trial_type":"html-keyboard-response","trial_index":40,"time_elapsed":198425,"internal_node_id":"0.0-3.0-2.8","prolific_id":"62d7858e9d0bb849183e1500","session_id":"64399b2a0cdee30321d9f0a9","study_id":"64370a36d30bfa807bc7e43c"},{"rt":1342,"stimulus":"\n\t\t\t\t\t<div>\n\t\t\t\t\t<h2>Trial 9 is over</h2>\n\t\t\t\t\t<p>Press <span style=\"color: red\"><strong>any key</strong></span> to continue to the next trial</p>\n\t\t\t\t\t</div>\n\t\t\t\t","response":" ","trial_type":"html-keyboard-response","trial_index":41,"time_elapsed":199768,"internal_node_id":"0.0-3.0-3.8","prolific_id":"62d7858e9d0bb849183e1500","session_id":"64399b2a0cdee30321d9f0a9","study_id":"64370a36d30bfa807bc7e43c"},{"rt":2622,"response":{"prediction":"13"},"trial_type":"survey-text","trial_index":42,"time_elapsed":202393,"internal_node_id":"0.0-3.0-0.9","prolific_id":"62d7858e9d0bb849183e1500","session_id":"64399b2a0cdee30321d9f0a9","study_id":"64370a36d30bfa807bc7e43c"},{"rt":4764,"response":{"prior knowledge":5,"curiosity":4},"accuracy":[],"trial_type":"survey","trial_index":43,"time_elapsed":207173,"internal_node_id":"0.0-3.0-1.9","prolific_id":"62d7858e9d0bb849183e1500","session_id":"64399b2a0cdee30321d9f0a9","study_id":"64370a36d30bfa807bc7e43c"},{"rt":null,"stimulus":"\n\t\t\t<div class=\"flip_card\">\n\t\t\t\t<div class=\"flip_card_inner\">\n\t\t\t\t\t<div class=\"flip_card_front\">\n\t\t\t\t\t\t<img src=img/10.png>\n\t\t\t\t\t</div>\n\t\t\t\t\t<div class=\"flip_card_back\">\n\t\t\t\t\t\t<h2>How much is in a Baker's Dozen?</h2>\n\t\t\t\t\t\t<br>\n\t\t\t\t\t\t<p>Answer: <strong>13</strong></p>\n\t\t\t\t\t</div>\n\t\t\t\t</div>\n\t\t\t</div>\n\t\t\t","response":null,"trial_type":"html-keyboard-response","trial_index":44,"time_elapsed":212182,"internal_node_id":"0.0-3.0-2.9","prolific_id":"62d7858e9d0bb849183e1500","session_id":"64399b2a0cdee30321d9f0a9","study_id":"64370a36d30bfa807bc7e43c"},{"rt":558,"stimulus":"\n\t\t\t\t\t<div>\n\t\t\t\t\t<h2>Trial 10 is over</h2>\n\t\t\t\t\t<p>Press <span style=\"color: red\"><strong>any key</strong></span> to continue to the next trial</p>\n\t\t\t\t\t</div>\n\t\t\t\t","response":" ","trial_type":"html-keyboard-response","trial_index":45,"time_elapsed":212741,"internal_node_id":"0.0-3.0-3.9","prolific_id":"62d7858e9d0bb849183e1500","session_id":"64399b2a0cdee30321d9f0a9","study_id":"64370a36d30bfa807bc7e43c"},{"rt":2276,"response":{"prediction":"13"},"trial_type":"survey-text","trial_index":46,"time_elapsed":215020,"internal_node_id":"0.0-3.0-0.10","prolific_id":"62d7858e9d0bb849183e1500","session_id":"64399b2a0cdee30321d9f0a9","study_id":"64370a36d30bfa807bc7e43c"},{"rt":5117,"response":{"prior knowledge":2,"curiosity":3},"accuracy":[],"trial_type":"survey","trial_index":47,"time_elapsed":220153,"internal_node_id":"0.0-3.0-1.10","prolific_id":"62d7858e9d0bb849183e1500","session_id":"64399b2a0cdee30321d9f0a9","study_id":"64370a36d30bfa807bc7e43c"},{"rt":null,"stimulus":"\n\t\t\t<div class=\"flip_card\">\n\t\t\t\t<div class=\"flip_card_inner\">\n\t\t\t\t\t<div class=\"flip_card_front\">\n\t\t\t\t\t\t<img src=img/27.png>\n\t\t\t\t\t</div>\n\t\t\t\t\t<div class=\"flip_card_back\">\n\t\t\t\t\t\t<h2>A bar mitzvah is traditionally celebrated when Jewish males turn what age?</h2>\n\t\t\t\t\t\t<br>\n\t\t\t\t\t\t<p>Answer: <strong>13</strong></p>\n\t\t\t\t\t</div>\n\t\t\t\t</div>\n\t\t\t</div>\n\t\t\t","response":null,"trial_type":"html-keyboard-response","trial_index":48,"time_elapsed":225158,"internal_node_id":"0.0-3.0-2.10","prolific_id":"62d7858e9d0bb849183e1500","session_id":"64399b2a0cdee30321d9f0a9","study_id":"64370a36d30bfa807bc7e43c"},{"rt":787,"stimulus":"\n\t\t\t\t\t<div>\n\t\t\t\t\t<h2>Trial 11 is over</h2>\n\t\t\t\t\t<p>Press <span style=\"color: red\"><strong>any key</strong></span> to continue to the next trial</p>\n\t\t\t\t\t</div>\n\t\t\t\t","response":" ","trial_type":"html-keyboard-response","trial_index":49,"time_elapsed":225946,"internal_node_id":"0.0-3.0-3.10","prolific_id":"62d7858e9d0bb849183e1500","session_id":"64399b2a0cdee30321d9f0a9","study_id":"64370a36d30bfa807bc7e43c"},{"rt":7780,"response":{"prediction":"4"},"trial_type":"survey-text","trial_index":50,"time_elapsed":233729,"internal_node_id":"0.0-3.0-0.11","prolific_id":"62d7858e9d0bb849183e1500","session_id":"64399b2a0cdee30321d9f0a9","study_id":"64370a36d30bfa807bc7e43c"},{"rt":5454,"response":{"prior knowledge":0,"curiosity":5},"accuracy":[],"trial_type":"survey","trial_index":51,"time_elapsed":239199,"internal_node_id":"0.0-3.0-1.11","prolific_id":"62d7858e9d0bb849183e1500","session_id":"64399b2a0cdee30321d9f0a9","study_id":"64370a36d30bfa807bc7e43c"},{"rt":null,"stimulus":"\n\t\t\t<div class=\"flip_card\">\n\t\t\t\t<div class=\"flip_card_inner\">\n\t\t\t\t\t<div class=\"flip_card_front\">\n\t\t\t\t\t\t<img src=img/7.png>\n\t\t\t\t\t</div>\n\t\t\t\t\t<div class=\"flip_card_back\">\n\t\t\t\t\t\t<h2>How many countries in Africa have French as the official language?</h2>\n\t\t\t\t\t\t<br>\n\t\t\t\t\t\t<p>Answer: <strong>21</strong></p>\n\t\t\t\t\t</div>\n\t\t\t\t</div>\n\t\t\t</div>\n\t\t\t","response":null,"trial_type":"html-keyboard-response","trial_index":52,"time_elapsed":244207,"internal_node_id":"0.0-3.0-2.11","prolific_id":"62d7858e9d0bb849183e1500","session_id":"64399b2a0cdee30321d9f0a9","study_id":"64370a36d30bfa807bc7e43c"},{"rt":596,"stimulus":"\n\t\t\t\t\t<div>\n\t\t\t\t\t<h2>Trial 12 is over</h2>\n\t\t\t\t\t<p>Press <span style=\"color: red\"><strong>any key</strong></span> to continue to the next trial</p>\n\t\t\t\t\t</div>\n\t\t\t\t","response":" ","trial_type":"html-keyboard-response","trial_index":53,"time_elapsed":244803,"internal_node_id":"0.0-3.0-3.11","prolific_id":"62d7858e9d0bb849183e1500","session_id":"64399b2a0cdee30321d9f0a9","study_id":"64370a36d30bfa807bc7e43c"},{"rt":3318,"response":{"prediction":"28"},"trial_type":"survey-text","trial_index":54,"time_elapsed":248124,"internal_node_id":"0.0-3.0-0.12","prolific_id":"62d7858e9d0bb849183e1500","session_id":"64399b2a0cdee30321d9f0a9","study_id":"64370a36d30bfa807bc7e43c"},{"rt":2518,"response":{"prior knowledge":0,"curiosity":5},"accuracy":[],"trial_type":"survey","trial_index":55,"time_elapsed":250663,"internal_node_id":"0.0-3.0-1.12","prolific_id":"62d7858e9d0bb849183e1500","session_id":"64399b2a0cdee30321d9f0a9","study_id":"64370a36d30bfa807bc7e43c"},{"rt":null,"stimulus":"\n\t\t\t<div class=\"flip_card\">\n\t\t\t\t<div class=\"flip_card_inner\">\n\t\t\t\t\t<div class=\"flip_card_front\">\n\t\t\t\t\t\t<img src=img/21.png>\n\t\t\t\t\t</div>\n\t\t\t\t\t<div class=\"flip_card_back\">\n\t\t\t\t\t\t<h2>How many books has Stephen King published?</h2>\n\t\t\t\t\t\t<br>\n\t\t\t\t\t\t<p>Answer: <strong>65</strong></p>\n\t\t\t\t\t</div>\n\t\t\t\t</div>\n\t\t\t</div>\n\t\t\t","response":null,"trial_type":"html-keyboard-response","trial_index":56,"time_elapsed":255674,"internal_node_id":"0.0-3.0-2.12","prolific_id":"62d7858e9d0bb849183e1500","session_id":"64399b2a0cdee30321d9f0a9","study_id":"64370a36d30bfa807bc7e43c"},{"rt":570,"stimulus":"\n\t\t\t\t\t<div>\n\t\t\t\t\t<h2>Trial 13 is over</h2>\n\t\t\t\t\t<p>Press <span style=\"color: red\"><strong>any key</strong></span> to continue to the next trial</p>\n\t\t\t\t\t</div>\n\t\t\t\t","response":" ","trial_type":"html-keyboard-response","trial_index":57,"time_elapsed":256245,"internal_node_id":"0.0-3.0-3.12","prolific_id":"62d7858e9d0bb849183e1500","session_id":"64399b2a0cdee30321d9f0a9","study_id":"64370a36d30bfa807bc7e43c"},{"rt":10180,"response":{"prediction":"2007"},"trial_type":"survey-text","trial_index":58,"time_elapsed":266429,"internal_node_id":"0.0-3.0-0.13","prolific_id":"62d7858e9d0bb849183e1500","session_id":"64399b2a0cdee30321d9f0a9","study_id":"64370a36d30bfa807bc7e43c"},{"rt":4017,"response":{"prior knowledge":3,"curiosity":5},"accuracy":[],"trial_type":"survey","trial_index":59,"time_elapsed":270466,"internal_node_id":"0.0-3.0-1.13","prolific_id":"62d7858e9d0bb849183e1500","session_id":"64399b2a0cdee30321d9f0a9","study_id":"64370a36d30bfa807bc7e43c"},{"rt":null,"stimulus":"\n\t\t\t<div class=\"flip_card\">\n\t\t\t\t<div class=\"flip_card_inner\">\n\t\t\t\t\t<div class=\"flip_card_front\">\n\t\t\t\t\t\t<img src=img/24.png>\n\t\t\t\t\t</div>\n\t\t\t\t\t<div class=\"flip_card_back\">\n\t\t\t\t\t\t<h2>What year was the very first model of the iPhone released?</h2>\n\t\t\t\t\t\t<br>\n\t\t\t\t\t\t<p>Answer: <strong>2007</strong></p>\n\t\t\t\t\t</div>\n\t\t\t\t</div>\n\t\t\t</div>\n\t\t\t","response":null,"trial_type":"html-keyboard-response","trial_index":60,"time_elapsed":275474,"internal_node_id":"0.0-3.0-2.13","prolific_id":"62d7858e9d0bb849183e1500","session_id":"64399b2a0cdee30321d9f0a9","study_id":"64370a36d30bfa807bc7e43c"},{"rt":511,"stimulus":"\n\t\t\t\t\t<div>\n\t\t\t\t\t<h2>Trial 14 is over</h2>\n\t\t\t\t\t<p>Press <span style=\"color: red\"><strong>any key</strong></span> to continue to the next trial</p>\n\t\t\t\t\t</div>\n\t\t\t\t","response":" ","trial_type":"html-keyboard-response","trial_index":61,"time_elapsed":275986,"internal_node_id":"0.0-3.0-3.13","prolific_id":"62d7858e9d0bb849183e1500","session_id":"64399b2a0cdee30321d9f0a9","study_id":"64370a36d30bfa807bc7e43c"},{"rt":9324,"response":{"prediction":"1864"},"trial_type":"survey-text","trial_index":62,"time_elapsed":285313,"internal_node_id":"0.0-3.0-0.14","prolific_id":"62d7858e9d0bb849183e1500","session_id":"64399b2a0cdee30321d9f0a9","study_id":"64370a36d30bfa807bc7e43c"},{"rt":3587,"response":{"prior knowledge":0,"curiosity":5},"accuracy":[],"trial_type":"survey","trial_index":63,"time_elapsed":288917,"internal_node_id":"0.0-3.0-1.14","prolific_id":"62d7858e9d0bb849183e1500","session_id":"64399b2a0cdee30321d9f0a9","study_id":"64370a36d30bfa807bc7e43c"},{"rt":null,"stimulus":"\n\t\t\t<div class=\"flip_card\">\n\t\t\t\t<div class=\"flip_card_inner\">\n\t\t\t\t\t<div class=\"flip_card_front\">\n\t\t\t\t\t\t<img src=img/23.png>\n\t\t\t\t\t</div>\n\t\t\t\t\t<div class=\"flip_card_back\">\n\t\t\t\t\t\t<h2>In what year did the first Modern Olympic Games take place?</h2>\n\t\t\t\t\t\t<br>\n\t\t\t\t\t\t<p>Answer: <strong>1896</strong></p>\n\t\t\t\t\t</div>\n\t\t\t\t</div>\n\t\t\t</div>\n\t\t\t","response":null,"trial_type":"html-keyboard-response","trial_index":64,"time_elapsed":293922,"internal_node_id":"0.0-3.0-2.14","prolific_id":"62d7858e9d0bb849183e1500","session_id":"64399b2a0cdee30321d9f0a9","study_id":"64370a36d30bfa807bc7e43c"},{"rt":925,"stimulus":"\n\t\t\t\t\t<div>\n\t\t\t\t\t<h2>Trial 15 is over</h2>\n\t\t\t\t\t<p>Press <span style=\"color: red\"><strong>any key</strong></span> to continue to the next trial</p>\n\t\t\t\t\t</div>\n\t\t\t\t","response":" ","trial_type":"html-keyboard-response","trial_index":65,"time_elapsed":294848,"internal_node_id":"0.0-3.0-3.14","prolific_id":"62d7858e9d0bb849183e1500","session_id":"64399b2a0cdee30321d9f0a9","study_id":"64370a36d30bfa807bc7e43c"},{"rt":7482,"response":{"prediction":"98"},"trial_type":"survey-text","trial_index":66,"time_elapsed":302333,"internal_node_id":"0.0-3.0-0.15","prolific_id":"62d7858e9d0bb849183e1500","session_id":"64399b2a0cdee30321d9f0a9","study_id":"64370a36d30bfa807bc7e43c"},{"rt":3115,"response":{"prior knowledge":0,"curiosity":5},"accuracy":[],"trial_type":"survey","trial_index":67,"time_elapsed":305463,"internal_node_id":"0.0-3.0-1.15","prolific_id":"62d7858e9d0bb849183e1500","session_id":"64399b2a0cdee30321d9f0a9","study_id":"64370a36d30bfa807bc7e43c"},{"rt":null,"stimulus":"\n\t\t\t<div class=\"flip_card\">\n\t\t\t\t<div class=\"flip_card_inner\">\n\t\t\t\t\t<div class=\"flip_card_front\">\n\t\t\t\t\t\t<img src=img/6.png>\n\t\t\t\t\t</div>\n\t\t\t\t\t<div class=\"flip_card_back\">\n\t\t\t\t\t\t<h2>How many single hand gestures, or mudras, are used in Indian classical dance?</h2>\n\t\t\t\t\t\t<br>\n\t\t\t\t\t\t<p>Answer: <strong>28</strong></p>\n\t\t\t\t\t</div>\n\t\t\t\t</div>\n\t\t\t</div>\n\t\t\t","response":null,"trial_type":"html-keyboard-response","trial_index":68,"time_elapsed":310472,"internal_node_id":"0.0-3.0-2.15","prolific_id":"62d7858e9d0bb849183e1500","session_id":"64399b2a0cdee30321d9f0a9","study_id":"64370a36d30bfa807bc7e43c"},{"rt":603,"stimulus":"\n\t\t\t\t\t<div>\n\t\t\t\t\t<h2>Trial 16 is over</h2>\n\t\t\t\t\t<p>Press <span style=\"color: red\"><strong>any key</strong></span> to continue to the next trial</p>\n\t\t\t\t\t</div>\n\t\t\t\t","response":" ","trial_type":"html-keyboard-response","trial_index":69,"time_elapsed":311076,"internal_node_id":"0.0-3.0-3.15","prolific_id":"62d7858e9d0bb849183e1500","session_id":"64399b2a0cdee30321d9f0a9","study_id":"64370a36d30bfa807bc7e43c"},{"rt":5554,"response":{"prediction":"1888"},"trial_type":"survey-text","trial_index":70,"time_elapsed":316634,"internal_node_id":"0.0-3.0-0.16","prolific_id":"62d7858e9d0bb849183e1500","session_id":"64399b2a0cdee30321d9f0a9","study_id":"64370a36d30bfa807bc7e43c"},{"rt":5547,"response":{"prior knowledge":0,"curiosity":5},"accuracy":[],"trial_type":"survey","trial_index":71,"time_elapsed":322199,"internal_node_id":"0.0-3.0-1.16","prolific_id":"62d7858e9d0bb849183e1500","session_id":"64399b2a0cdee30321d9f0a9","study_id":"64370a36d30bfa807bc7e43c"},{"rt":null,"stimulus":"\n\t\t\t<div class=\"flip_card\">\n\t\t\t\t<div class=\"flip_card_inner\">\n\t\t\t\t\t<div class=\"flip_card_front\">\n\t\t\t\t\t\t<img src=img/16.png>\n\t\t\t\t\t</div>\n\t\t\t\t\t<div class=\"flip_card_back\">\n\t\t\t\t\t\t<h2>In what year was the first Nobel Prize awarded?</h2>\n\t\t\t\t\t\t<br>\n\t\t\t\t\t\t<p>Answer: <strong>1901</strong></p>\n\t\t\t\t\t</div>\n\t\t\t\t</div>\n\t\t\t</div>\n\t\t\t","response":null,"trial_type":"html-keyboard-response","trial_index":72,"time_elapsed":327210,"internal_node_id":"0.0-3.0-2.16","prolific_id":"62d7858e9d0bb849183e1500","session_id":"64399b2a0cdee30321d9f0a9","study_id":"64370a36d30bfa807bc7e43c"},{"rt":163,"stimulus":"\n\t\t\t\t\t<div>\n\t\t\t\t\t<h2>Trial 17 is over</h2>\n\t\t\t\t\t<p>Press <span style=\"color: red\"><strong>any key</strong></span> to continue to the next trial</p>\n\t\t\t\t\t</div>\n\t\t\t\t","response":" ","trial_type":"html-keyboard-response","trial_index":73,"time_elapsed":327374,"internal_node_id":"0.0-3.0-3.16","prolific_id":"62d7858e9d0bb849183e1500","session_id":"64399b2a0cdee30321d9f0a9","study_id":"64370a36d30bfa807bc7e43c"},{"rt":4791,"response":{"prediction":"4"},"trial_type":"survey-text","trial_index":74,"time_elapsed":332168,"internal_node_id":"0.0-3.0-0.17","prolific_id":"62d7858e9d0bb849183e1500","session_id":"64399b2a0cdee30321d9f0a9","study_id":"64370a36d30bfa807bc7e43c"},{"rt":1964,"response":{"prior knowledge":0,"curiosity":5},"accuracy":[],"trial_type":"survey","trial_index":75,"time_elapsed":334153,"internal_node_id":"0.0-3.0-1.17","prolific_id":"62d7858e9d0bb849183e1500","session_id":"64399b2a0cdee30321d9f0a9","study_id":"64370a36d30bfa807bc7e43c"},{"rt":null,"stimulus":"\n\t\t\t<div class=\"flip_card\">\n\t\t\t\t<div class=\"flip_card_inner\">\n\t\t\t\t\t<div class=\"flip_card_front\">\n\t\t\t\t\t\t<img src=img/29.png>\n\t\t\t\t\t</div>\n\t\t\t\t\t<div class=\"flip_card_back\">\n\t\t\t\t\t\t<h2>How many moons does Neptune have?</h2>\n\t\t\t\t\t\t<br>\n\t\t\t\t\t\t<p>Answer: <strong>14</strong></p>\n\t\t\t\t\t</div>\n\t\t\t\t</div>\n\t\t\t</div>\n\t\t\t","response":null,"trial_type":"html-keyboard-response","trial_index":76,"time_elapsed":339161,"internal_node_id":"0.0-3.0-2.17","prolific_id":"62d7858e9d0bb849183e1500","session_id":"64399b2a0cdee30321d9f0a9","study_id":"64370a36d30bfa807bc7e43c"},{"rt":513,"stimulus":"\n\t\t\t\t\t<div>\n\t\t\t\t\t<h2>Trial 18 is over</h2>\n\t\t\t\t\t<p>Press <span style=\"color: red\"><strong>any key</strong></span> to continue to the next trial</p>\n\t\t\t\t\t</div>\n\t\t\t\t","response":" ","trial_type":"html-keyboard-response","trial_index":77,"time_elapsed":339675,"internal_node_id":"0.0-3.0-3.17","prolific_id":"62d7858e9d0bb849183e1500","session_id":"64399b2a0cdee30321d9f0a9","study_id":"64370a36d30bfa807bc7e43c"},{"rt":10473,"response":{"prediction":"1873"},"trial_type":"survey-text","trial_index":78,"time_elapsed":350150,"internal_node_id":"0.0-3.0-0.18","prolific_id":"62d7858e9d0bb849183e1500","session_id":"64399b2a0cdee30321d9f0a9","study_id":"64370a36d30bfa807bc7e43c"},{"rt":3024,"response":{"prior knowledge":0,"curiosity":5},"accuracy":[],"trial_type":"survey","trial_index":79,"time_elapsed":353190,"internal_node_id":"0.0-3.0-1.18","prolific_id":"62d7858e9d0bb849183e1500","session_id":"64399b2a0cdee30321d9f0a9","study_id":"64370a36d30bfa807bc7e43c"},{"rt":null,"stimulus":"\n\t\t\t<div class=\"flip_card\">\n\t\t\t\t<div class=\"flip_card_inner\">\n\t\t\t\t\t<div class=\"flip_card_front\">\n\t\t\t\t\t\t<img src=img/3.png>\n\t\t\t\t\t</div>\n\t\t\t\t\t<div class=\"flip_card_back\">\n\t\t\t\t\t\t<h2>In what year was the Mexican artist Frida Kahlo born?</h2>\n\t\t\t\t\t\t<br>\n\t\t\t\t\t\t<p>Answer: <strong>1907</strong></p>\n\t\t\t\t\t</div>\n\t\t\t\t</div>\n\t\t\t</div>\n\t\t\t","response":null,"trial_type":"html-keyboard-response","trial_index":80,"time_elapsed":358193,"internal_node_id":"0.0-3.0-2.18","prolific_id":"62d7858e9d0bb849183e1500","session_id":"64399b2a0cdee30321d9f0a9","study_id":"64370a36d30bfa807bc7e43c"},{"rt":176,"stimulus":"\n\t\t\t\t\t<div>\n\t\t\t\t\t<h2>Trial 19 is over</h2>\n\t\t\t\t\t<p>Press <span style=\"color: red\"><strong>any key</strong></span> to continue to the next trial</p>\n\t\t\t\t\t</div>\n\t\t\t\t","response":" ","trial_type":"html-keyboard-response","trial_index":81,"time_elapsed":358370,"internal_node_id":"0.0-3.0-3.18","prolific_id":"62d7858e9d0bb849183e1500","session_id":"64399b2a0cdee30321d9f0a9","study_id":"64370a36d30bfa807bc7e43c"},{"rt":9482,"response":{"prediction":"121"},"trial_type":"survey-text","trial_index":82,"time_elapsed":367854,"internal_node_id":"0.0-3.0-0.19","prolific_id":"62d7858e9d0bb849183e1500","session_id":"64399b2a0cdee30321d9f0a9","study_id":"64370a36d30bfa807bc7e43c"},{"rt":1851,"response":{"prior knowledge":0,"curiosity":5},"accuracy":[],"trial_type":"survey","trial_index":83,"time_elapsed":369720,"internal_node_id":"0.0-3.0-1.19","prolific_id":"62d7858e9d0bb849183e1500","session_id":"64399b2a0cdee30321d9f0a9","study_id":"64370a36d30bfa807bc7e43c"},{"rt":null,"stimulus":"\n\t\t\t<div class=\"flip_card\">\n\t\t\t\t<div class=\"flip_card_inner\">\n\t\t\t\t\t<div class=\"flip_card_front\">\n\t\t\t\t\t\t<img src=img/17.png>\n\t\t\t\t\t</div>\n\t\t\t\t\t<div class=\"flip_card_back\">\n\t\t\t\t\t\t<h2>How many constellations are there?</h2>\n\t\t\t\t\t\t<br>\n\t\t\t\t\t\t<p>Answer: <strong>88</strong></p>\n\t\t\t\t\t</div>\n\t\t\t\t</div>\n\t\t\t</div>\n\t\t\t","response":null,"trial_type":"html-keyboard-response","trial_index":84,"time_elapsed":374725,"internal_node_id":"0.0-3.0-2.19","prolific_id":"62d7858e9d0bb849183e1500","session_id":"64399b2a0cdee30321d9f0a9","study_id":"64370a36d30bfa807bc7e43c"},{"rt":451,"stimulus":"\n\t\t\t\t\t<div>\n\t\t\t\t\t<h2>Trial 20 is over</h2>\n\t\t\t\t\t<p>Press <span style=\"color: red\"><strong>any key</strong></span> to continue to the next trial</p>\n\t\t\t\t\t</div>\n\t\t\t\t","response":" ","trial_type":"html-keyboard-response","trial_index":85,"time_elapsed":375177,"internal_node_id":"0.0-3.0-3.19","prolific_id":"62d7858e9d0bb849183e1500","session_id":"64399b2a0cdee30321d9f0a9","study_id":"64370a36d30bfa807bc7e43c"},{"rt":6027,"response":{"prediction":"7"},"trial_type":"survey-text","trial_index":86,"time_elapsed":381206,"internal_node_id":"0.0-3.0-0.20","prolific_id":"62d7858e9d0bb849183e1500","session_id":"64399b2a0cdee30321d9f0a9","study_id":"64370a36d30bfa807bc7e43c"},{"rt":1806,"response":{"prior knowledge":0,"curiosity":5},"accuracy":[],"trial_type":"survey","trial_index":87,"time_elapsed":383032,"internal_node_id":"0.0-3.0-1.20","prolific_id":"62d7858e9d0bb849183e1500","session_id":"64399b2a0cdee30321d9f0a9","study_id":"64370a36d30bfa807bc7e43c"},{"rt":null,"stimulus":"\n\t\t\t<div class=\"flip_card\">\n\t\t\t\t<div class=\"flip_card_inner\">\n\t\t\t\t\t<div class=\"flip_card_front\">\n\t\t\t\t\t\t<img src=img/2.png>\n\t\t\t\t\t</div>\n\t\t\t\t\t<div class=\"flip_card_back\">\n\t\t\t\t\t\t<h2>How many lines are in a sonnet?</h2>\n\t\t\t\t\t\t<br>\n\t\t\t\t\t\t<p>Answer: <strong>14</strong></p>\n\t\t\t\t\t</div>\n\t\t\t\t</div>\n\t\t\t</div>\n\t\t\t","response":null,"trial_type":"html-keyboard-response","trial_index":88,"time_elapsed":388034,"internal_node_id":"0.0-3.0-2.20","prolific_id":"62d7858e9d0bb849183e1500","session_id":"64399b2a0cdee30321d9f0a9","study_id":"64370a36d30bfa807bc7e43c"},{"rt":53,"stimulus":"\n\t\t\t\t\t<div>\n\t\t\t\t\t<h2>Trial 21 is over</h2>\n\t\t\t\t\t<p>Press <span style=\"color: red\"><strong>any key</strong></span> to continue to the next trial</p>\n\t\t\t\t\t</div>\n\t\t\t\t","response":" ","trial_type":"html-keyboard-response","trial_index":89,"time_elapsed":388088,"internal_node_id":"0.0-3.0-3.20","prolific_id":"62d7858e9d0bb849183e1500","session_id":"64399b2a0cdee30321d9f0a9","study_id":"64370a36d30bfa807bc7e43c"},{"rt":9582,"response":{"prediction":"51"},"trial_type":"survey-text","trial_index":90,"time_elapsed":397673,"internal_node_id":"0.0-3.0-0.21","prolific_id":"62d7858e9d0bb849183e1500","session_id":"64399b2a0cdee30321d9f0a9","study_id":"64370a36d30bfa807bc7e43c"},{"rt":9057,"response":{"prior knowledge":0,"curiosity":5},"accuracy":[],"trial_type":"survey","trial_index":91,"time_elapsed":406745,"internal_node_id":"0.0-3.0-1.21","prolific_id":"62d7858e9d0bb849183e1500","session_id":"64399b2a0cdee30321d9f0a9","study_id":"64370a36d30bfa807bc7e43c"},{"rt":null,"stimulus":"\n\t\t\t<div class=\"flip_card\">\n\t\t\t\t<div class=\"flip_card_inner\">\n\t\t\t\t\t<div class=\"flip_card_front\">\n\t\t\t\t\t\t<img src=img/14.png>\n\t\t\t\t\t</div>\n\t\t\t\t\t<div class=\"flip_card_back\">\n\t\t\t\t\t\t<h2>How many countries are in Africa?</h2>\n\t\t\t\t\t\t<br>\n\t\t\t\t\t\t<p>Answer: <strong>54</strong></p>\n\t\t\t\t\t</div>\n\t\t\t\t</div>\n\t\t\t</div>\n\t\t\t","response":null,"trial_type":"html-keyboard-response","trial_index":92,"time_elapsed":411755,"internal_node_id":"0.0-3.0-2.21","prolific_id":"62d7858e9d0bb849183e1500","session_id":"64399b2a0cdee30321d9f0a9","study_id":"64370a36d30bfa807bc7e43c"},{"rt":142,"stimulus":"\n\t\t\t\t\t<div>\n\t\t\t\t\t<h2>Trial 22 is over</h2>\n\t\t\t\t\t<p>Press <span style=\"color: red\"><strong>any key</strong></span> to continue to the next trial</p>\n\t\t\t\t\t</div>\n\t\t\t\t","response":" ","trial_type":"html-keyboard-response","trial_index":93,"time_elapsed":411897,"internal_node_id":"0.0-3.0-3.21","prolific_id":"62d7858e9d0bb849183e1500","session_id":"64399b2a0cdee30321d9f0a9","study_id":"64370a36d30bfa807bc7e43c"},{"rt":9710,"response":{"prediction":"11"},"trial_type":"survey-text","trial_index":94,"time_elapsed":421610,"internal_node_id":"0.0-3.0-0.22","prolific_id":"62d7858e9d0bb849183e1500","session_id":"64399b2a0cdee30321d9f0a9","study_id":"64370a36d30bfa807bc7e43c"},{"rt":7232,"response":{"prior knowledge":2,"curiosity":5},"accuracy":[],"trial_type":"survey","trial_index":95,"time_elapsed":428865,"internal_node_id":"0.0-3.0-1.22","prolific_id":"62d7858e9d0bb849183e1500","session_id":"64399b2a0cdee30321d9f0a9","study_id":"64370a36d30bfa807bc7e43c"},{"rt":null,"stimulus":"\n\t\t\t<div class=\"flip_card\">\n\t\t\t\t<div class=\"flip_card_inner\">\n\t\t\t\t\t<div class=\"flip_card_front\">\n\t\t\t\t\t\t<img src=img/11.png>\n\t\t\t\t\t</div>\n\t\t\t\t\t<div class=\"flip_card_back\">\n\t\t\t\t\t\t<h2>How many soccer players should each team have on the field at the start of each match?</h2>\n\t\t\t\t\t\t<br>\n\t\t\t\t\t\t<p>Answer: <strong>11</strong></p>\n\t\t\t\t\t</div>\n\t\t\t\t</div>\n\t\t\t</div>\n\t\t\t","response":null,"trial_type":"html-keyboard-response","trial_index":96,"time_elapsed":433871,"internal_node_id":"0.0-3.0-2.22","prolific_id":"62d7858e9d0bb849183e1500","session_id":"64399b2a0cdee30321d9f0a9","study_id":"64370a36d30bfa807bc7e43c"},{"rt":352,"stimulus":"\n\t\t\t\t\t<div>\n\t\t\t\t\t<h2>Trial 23 is over</h2>\n\t\t\t\t\t<p>Press <span style=\"color: red\"><strong>any key</strong></span> to continue to the next trial</p>\n\t\t\t\t\t</div>\n\t\t\t\t","response":" ","trial_type":"html-keyboard-response","trial_index":97,"time_elapsed":434224,"internal_node_id":"0.0-3.0-3.22","prolific_id":"62d7858e9d0bb849183e1500","session_id":"64399b2a0cdee30321d9f0a9","study_id":"64370a36d30bfa807bc7e43c"},{"rt":23354,"response":{"prediction":"120"},"trial_type":"survey-text","trial_index":98,"time_elapsed":457581,"internal_node_id":"0.0-3.0-0.23","prolific_id":"62d7858e9d0bb849183e1500","session_id":"64399b2a0cdee30321d9f0a9","study_id":"64370a36d30bfa807bc7e43c"},{"rt":2735,"response":{"prior knowledge":0,"curiosity":5},"accuracy":[],"trial_type":"survey","trial_index":99,"time_elapsed":460333,"internal_node_id":"0.0-3.0-1.23","prolific_id":"62d7858e9d0bb849183e1500","session_id":"64399b2a0cdee30321d9f0a9","study_id":"64370a36d30bfa807bc7e43c"},{"rt":null,"stimulus":"\n\t\t\t<div class=\"flip_card\">\n\t\t\t\t<div class=\"flip_card_inner\">\n\t\t\t\t\t<div class=\"flip_card_front\">\n\t\t\t\t\t\t<img src=img/30.png>\n\t\t\t\t\t</div>\n\t\t\t\t\t<div class=\"flip_card_back\">\n\t\t\t\t\t\t<h2>How many people are vegan globally (in millions)?</h2>\n\t\t\t\t\t\t<br>\n\t\t\t\t\t\t<p>Answer: <strong>79</strong></p>\n\t\t\t\t\t</div>\n\t\t\t\t</div>\n\t\t\t</div>\n\t\t\t","response":null,"trial_type":"html-keyboard-response","trial_index":100,"time_elapsed":465341,"internal_node_id":"0.0-3.0-2.23","prolific_id":"62d7858e9d0bb849183e1500","session_id":"64399b2a0cdee30321d9f0a9","study_id":"64370a36d30bfa807bc7e43c"},{"rt":545,"stimulus":"\n\t\t\t\t\t<div>\n\t\t\t\t\t<h2>Trial 24 is over</h2>\n\t\t\t\t\t<p>Press <span style=\"color: red\"><strong>any key</strong></span> to continue to the next trial</p>\n\t\t\t\t\t</div>\n\t\t\t\t","response":" ","trial_type":"html-keyboard-response","trial_index":101,"time_elapsed":465887,"internal_node_id":"0.0-3.0-3.23","prolific_id":"62d7858e9d0bb849183e1500","session_id":"64399b2a0cdee30321d9f0a9","study_id":"64370a36d30bfa807bc7e43c"},{"rt":8041,"response":{"prediction":"210"},"trial_type":"survey-text","trial_index":102,"time_elapsed":473931,"internal_node_id":"0.0-3.0-0.24","prolific_id":"62d7858e9d0bb849183e1500","session_id":"64399b2a0cdee30321d9f0a9","study_id":"64370a36d30bfa807bc7e43c"},{"rt":3140,"response":{"prior knowledge":0,"curiosity":5},"accuracy":[],"trial_type":"survey","trial_index":103,"time_elapsed":477086,"internal_node_id":"0.0-3.0-1.24","prolific_id":"62d7858e9d0bb849183e1500","session_id":"64399b2a0cdee30321d9f0a9","study_id":"64370a36d30bfa807bc7e43c"},{"rt":null,"stimulus":"\n\t\t\t<div class=\"flip_card\">\n\t\t\t\t<div class=\"flip_card_inner\">\n\t\t\t\t\t<div class=\"flip_card_front\">\n\t\t\t\t\t\t<img src=img/25.png>\n\t\t\t\t\t</div>\n\t\t\t\t\t<div class=\"flip_card_back\">\n\t\t\t\t\t\t<h2>How long is the Great Wall of China (in miles)?</h2>\n\t\t\t\t\t\t<br>\n\t\t\t\t\t\t<p>Answer: <strong>13171</strong></p>\n\t\t\t\t\t</div>\n\t\t\t\t</div>\n\t\t\t</div>\n\t\t\t","response":null,"trial_type":"html-keyboard-response","trial_index":104,"time_elapsed":482096,"internal_node_id":"0.0-3.0-2.24","prolific_id":"62d7858e9d0bb849183e1500","session_id":"64399b2a0cdee30321d9f0a9","study_id":"64370a36d30bfa807bc7e43c"},{"rt":783,"stimulus":"\n\t\t\t\t\t<div>\n\t\t\t\t\t<h2>Trial 25 is over</h2>\n\t\t\t\t\t<p>Press <span style=\"color: red\"><strong>any key</strong></span> to continue to the next trial</p>\n\t\t\t\t\t</div>\n\t\t\t\t","response":" ","trial_type":"html-keyboard-response","trial_index":105,"time_elapsed":482880,"internal_node_id":"0.0-3.0-3.24","prolific_id":"62d7858e9d0bb849183e1500","session_id":"64399b2a0cdee30321d9f0a9","study_id":"64370a36d30bfa807bc7e43c"},{"rt":5047,"response":{"prediction":"210"},"trial_type":"survey-text","trial_index":106,"time_elapsed":487930,"internal_node_id":"0.0-3.0-0.25","prolific_id":"62d7858e9d0bb849183e1500","session_id":"64399b2a0cdee30321d9f0a9","study_id":"64370a36d30bfa807bc7e43c"},{"rt":3690,"response":{"prior knowledge":0,"curiosity":5},"accuracy":[],"trial_type":"survey","trial_index":107,"time_elapsed":491634,"internal_node_id":"0.0-3.0-1.25","prolific_id":"62d7858e9d0bb849183e1500","session_id":"64399b2a0cdee30321d9f0a9","study_id":"64370a36d30bfa807bc7e43c"},{"rt":null,"stimulus":"\n\t\t\t<div class=\"flip_card\">\n\t\t\t\t<div class=\"flip_card_inner\">\n\t\t\t\t\t<div class=\"flip_card_front\">\n\t\t\t\t\t\t<img src=img/22.png>\n\t\t\t\t\t</div>\n\t\t\t\t\t<div class=\"flip_card_back\">\n\t\t\t\t\t\t<h2>How many floors are in the Burj Khalifa, the tallest building in the world?</h2>\n\t\t\t\t\t\t<br>\n\t\t\t\t\t\t<p>Answer: <strong>163</strong></p>\n\t\t\t\t\t</div>\n\t\t\t\t</div>\n\t\t\t</div>\n\t\t\t","response":null,"trial_type":"html-keyboard-response","trial_index":108,"time_elapsed":496642,"internal_node_id":"0.0-3.0-2.25","prolific_id":"62d7858e9d0bb849183e1500","session_id":"64399b2a0cdee30321d9f0a9","study_id":"64370a36d30bfa807bc7e43c"},{"rt":871,"stimulus":"\n\t\t\t\t\t<div>\n\t\t\t\t\t<h2>Trial 26 is over</h2>\n\t\t\t\t\t<p>Press <span style=\"color: red\"><strong>any key</strong></span> to continue to the next trial</p>\n\t\t\t\t\t</div>\n\t\t\t\t","response":" ","trial_type":"html-keyboard-response","trial_index":109,"time_elapsed":497513,"internal_node_id":"0.0-3.0-3.25","prolific_id":"62d7858e9d0bb849183e1500","session_id":"64399b2a0cdee30321d9f0a9","study_id":"64370a36d30bfa807bc7e43c"},{"rt":10220,"response":{"prediction":"1949"},"trial_type":"survey-text","trial_index":110,"time_elapsed":507735,"internal_node_id":"0.0-3.0-0.26","prolific_id":"62d7858e9d0bb849183e1500","session_id":"64399b2a0cdee30321d9f0a9","study_id":"64370a36d30bfa807bc7e43c"},{"rt":4390,"response":{"prior knowledge":0,"curiosity":5},"accuracy":[],"trial_type":"survey","trial_index":111,"time_elapsed":512140,"internal_node_id":"0.0-3.0-1.26","prolific_id":"62d7858e9d0bb849183e1500","session_id":"64399b2a0cdee30321d9f0a9","study_id":"64370a36d30bfa807bc7e43c"},{"rt":null,"stimulus":"\n\t\t\t<div class=\"flip_card\">\n\t\t\t\t<div class=\"flip_card_inner\">\n\t\t\t\t\t<div class=\"flip_card_front\">\n\t\t\t\t\t\t<img src=img/18.png>\n\t\t\t\t\t</div>\n\t\t\t\t\t<div class=\"flip_card_back\">\n\t\t\t\t\t\t<h2>What year did the Berlin Wall fall?</h2>\n\t\t\t\t\t\t<br>\n\t\t\t\t\t\t<p>Answer: <strong>1989</strong></p>\n\t\t\t\t\t</div>\n\t\t\t\t</div>\n\t\t\t</div>\n\t\t\t","response":null,"trial_type":"html-keyboard-response","trial_index":112,"time_elapsed":517143,"internal_node_id":"0.0-3.0-2.26","prolific_id":"62d7858e9d0bb849183e1500","session_id":"64399b2a0cdee30321d9f0a9","study_id":"64370a36d30bfa807bc7e43c"},{"rt":499,"stimulus":"\n\t\t\t\t\t<div>\n\t\t\t\t\t<h2>Trial 27 is over</h2>\n\t\t\t\t\t<p>Press <span style=\"color: red\"><strong>any key</strong></span> to continue to the next trial</p>\n\t\t\t\t\t</div>\n\t\t\t\t","response":" ","trial_type":"html-keyboard-response","trial_index":113,"time_elapsed":517643,"internal_node_id":"0.0-3.0-3.26","prolific_id":"62d7858e9d0bb849183e1500","session_id":"64399b2a0cdee30321d9f0a9","study_id":"64370a36d30bfa807bc7e43c"},{"rt":5526,"response":{"prediction":"15"},"trial_type":"survey-text","trial_index":114,"time_elapsed":523172,"internal_node_id":"0.0-3.0-0.27","prolific_id":"62d7858e9d0bb849183e1500","session_id":"64399b2a0cdee30321d9f0a9","study_id":"64370a36d30bfa807bc7e43c"},{"rt":3363,"response":{"prior knowledge":0,"curiosity":5},"accuracy":[],"trial_type":"survey","trial_index":115,"time_elapsed":526553,"internal_node_id":"0.0-3.0-1.27","prolific_id":"62d7858e9d0bb849183e1500","session_id":"64399b2a0cdee30321d9f0a9","study_id":"64370a36d30bfa807bc7e43c"},{"rt":null,"stimulus":"\n\t\t\t<div class=\"flip_card\">\n\t\t\t\t<div class=\"flip_card_inner\">\n\t\t\t\t\t<div class=\"flip_card_front\">\n\t\t\t\t\t\t<img src=img/19.png>\n\t\t\t\t\t</div>\n\t\t\t\t\t<div class=\"flip_card_back\">\n\t\t\t\t\t\t<h2>How many different animals (real or imaginary) are represented in the Chinese calendar?</h2>\n\t\t\t\t\t\t<br>\n\t\t\t\t\t\t<p>Answer: <strong>12</strong></p>\n\t\t\t\t\t</div>\n\t\t\t\t</div>\n\t\t\t</div>\n\t\t\t","response":null,"trial_type":"html-keyboard-response","trial_index":116,"time_elapsed":531561,"internal_node_id":"0.0-3.0-2.27","prolific_id":"62d7858e9d0bb849183e1500","session_id":"64399b2a0cdee30321d9f0a9","study_id":"64370a36d30bfa807bc7e43c"},{"rt":75,"stimulus":"\n\t\t\t\t\t<div>\n\t\t\t\t\t<h2>Trial 28 is over</h2>\n\t\t\t\t\t<p>Press <span style=\"color: red\"><strong>any key</strong></span> to continue to the next trial</p>\n\t\t\t\t\t</div>\n\t\t\t\t","response":" ","trial_type":"html-keyboard-response","trial_index":117,"time_elapsed":531637,"internal_node_id":"0.0-3.0-3.27","prolific_id":"62d7858e9d0bb849183e1500","session_id":"64399b2a0cdee30321d9f0a9","study_id":"64370a36d30bfa807bc7e43c"},{"rt":15249,"response":{"prediction":"250000"},"trial_type":"survey-text","trial_index":118,"time_elapsed":546889,"internal_node_id":"0.0-3.0-0.28","prolific_id":"62d7858e9d0bb849183e1500","session_id":"64399b2a0cdee30321d9f0a9","study_id":"64370a36d30bfa807bc7e43c"},{"rt":2136,"response":{"prior knowledge":0,"curiosity":5},"accuracy":[],"trial_type":"survey","trial_index":119,"time_elapsed":549040,"internal_node_id":"0.0-3.0-1.28","prolific_id":"62d7858e9d0bb849183e1500","session_id":"64399b2a0cdee30321d9f0a9","study_id":"64370a36d30bfa807bc7e43c"},{"rt":null,"stimulus":"\n\t\t\t<div class=\"flip_card\">\n\t\t\t\t<div class=\"flip_card_inner\">\n\t\t\t\t\t<div class=\"flip_card_front\">\n\t\t\t\t\t\t<img src=img/20.png>\n\t\t\t\t\t</div>\n\t\t\t\t\t<div class=\"flip_card_back\">\n\t\t\t\t\t\t<h2>What is the diameter of Earth in miles?</h2>\n\t\t\t\t\t\t<br>\n\t\t\t\t\t\t<p>Answer: <strong>7917.5</strong></p>\n\t\t\t\t\t</div>\n\t\t\t\t</div>\n\t\t\t</div>\n\t\t\t","response":null,"trial_type":"html-keyboard-response","trial_index":120,"time_elapsed":554048,"internal_node_id":"0.0-3.0-2.28","prolific_id":"62d7858e9d0bb849183e1500","session_id":"64399b2a0cdee30321d9f0a9","study_id":"64370a36d30bfa807bc7e43c"},{"rt":2200,"stimulus":"\n\t\t\t\t\t<div>\n\t\t\t\t\t<h2>Trial 29 is over</h2>\n\t\t\t\t\t<p>Press <span style=\"color: red\"><strong>any key</strong></span> to continue to the next trial</p>\n\t\t\t\t\t</div>\n\t\t\t\t","response":" ","trial_type":"html-keyboard-response","trial_index":121,"time_elapsed":556249,"internal_node_id":"0.0-3.0-3.28","prolific_id":"62d7858e9d0bb849183e1500","session_id":"64399b2a0cdee30321d9f0a9","study_id":"64370a36d30bfa807bc7e43c"},{"rt":8538,"response":{"prediction":"201"},"trial_type":"survey-text","trial_index":122,"time_elapsed":564790,"internal_node_id":"0.0-3.0-0.29","prolific_id":"62d7858e9d0bb849183e1500","session_id":"64399b2a0cdee30321d9f0a9","study_id":"64370a36d30bfa807bc7e43c"},{"rt":2571,"response":{"prior knowledge":0,"curiosity":5},"accuracy":[],"trial_type":"survey","trial_index":123,"time_elapsed":567377,"internal_node_id":"0.0-3.0-1.29","prolific_id":"62d7858e9d0bb849183e1500","session_id":"64399b2a0cdee30321d9f0a9","study_id":"64370a36d30bfa807bc7e43c"},{"rt":null,"stimulus":"\n\t\t\t<div class=\"flip_card\">\n\t\t\t\t<div class=\"flip_card_inner\">\n\t\t\t\t\t<div class=\"flip_card_front\">\n\t\t\t\t\t\t<img src=img/28.png>\n\t\t\t\t\t</div>\n\t\t\t\t\t<div class=\"flip_card_back\">\n\t\t\t\t\t\t<h2>How many bones is a human baby born with?</h2>\n\t\t\t\t\t\t<br>\n\t\t\t\t\t\t<p>Answer: <strong>300</strong></p>\n\t\t\t\t\t</div>\n\t\t\t\t</div>\n\t\t\t</div>\n\t\t\t","response":null,"trial_type":"html-keyboard-response","trial_index":124,"time_elapsed":572385,"internal_node_id":"0.0-3.0-2.29","prolific_id":"62d7858e9d0bb849183e1500","session_id":"64399b2a0cdee30321d9f0a9","study_id":"64370a36d30bfa807bc7e43c"},{"rt":134,"stimulus":"\n\t\t\t\t\t<div>\n\t\t\t\t\t<h2>Trial 30 is over</h2>\n\t\t\t\t\t<p>Press <span style=\"color: red\"><strong>any key</strong></span> to continue to the next trial</p>\n\t\t\t\t\t</div>\n\t\t\t\t","response":" ","trial_type":"html-keyboard-response","trial_index":125,"time_elapsed":572520,"internal_node_id":"0.0-3.0-3.29","prolific_id":"62d7858e9d0bb849183e1500","session_id":"64399b2a0cdee30321d9f0a9","study_id":"64370a36d30bfa807bc7e43c"},{"rt":20546,"stimulus":"\n\t\t\t<h2>Good job! You've finished the 30 trials:p</h2>\n\t\t\t<p>In the next session, you will see two cards on the screen in each trial.</p>\n\t\t\t<p>On one card is a pattern that you have seen before in the experiment,\n\t\t\t\tand on the other card is one you have not seen.</p><br>\n\t\t\t<p>Your task is to choose the one you think you <em>have</em> seen before for every trial.</p>\n\t\t\t<p>Press '<span style=\"color: red;\"><strong>F</strong></span>' to choose the card on the left,\n\t\t\t\tand '<span style=\"color: red;\"><strong>J</strong></span>' to choose the card on the right.</p>\n\t\t\t<p>Have fun!</p>\n\t\t\t<br>\n\t\t\t<p>The trials will begin in 30 seconds</p>\n\t\t\t","response":" ","trial_type":"html-keyboard-response","trial_index":126,"time_elapsed":593067,"internal_node_id":"0.0-4.0","prolific_id":"62d7858e9d0bb849183e1500","session_id":"64399b2a0cdee30321d9f0a9","study_id":"64370a36d30bfa807bc7e43c"},{"rt":2011,"stimulus":"\n\t\t\t\t\t\t<div class=\"two_card_container\">\n\t\t\t\t\t\t<div class=\"card_container\">\n\t\t\t\t\t\t<img src=img/32.png>\n\t\t\t\t\t\t</div>\n\n\t\t\t\t\t\t<div class=\"card_container\">\n\t\t\t\t\t\t<img src=img/19.png>\n\t\t\t\t\t\t</div>","response":"j","task":"response","correct_response":"j","trial_type":"html-keyboard-response","trial_index":127,"time_elapsed":595082,"internal_node_id":"0.0-5.0-0.0","prolific_id":"62d7858e9d0bb849183e1500","session_id":"64399b2a0cdee30321d9f0a9","study_id":"64370a36d30bfa807bc7e43c","correct":true},{"rt":null,"stimulus":"\n\t\t\t\t\t<p>Correct!</p>\n\t\t\t\t\t","response":null,"trial_type":"html-keyboard-response","trial_index":128,"time_elapsed":596088,"internal_node_id":"0.0-5.0-1.0","prolific_id":"62d7858e9d0bb849183e1500","session_id":"64399b2a0cdee30321d9f0a9","study_id":"64370a36d30bfa807bc7e43c"},{"rt":1505,"stimulus":"\n\t\t\t\t\t\t<div class=\"two_card_container\">\n\t\t\t\t\t\t<div class=\"card_container\">\n\t\t\t\t\t\t<img src=img/28.png>\n\t\t\t\t\t\t</div>\n\n\t\t\t\t\t\t<div class=\"card_container\">\n\t\t\t\t\t\t<img src=img/34.png>\n\t\t\t\t\t\t</div>","response":"f","task":"response","correct_response":"f","trial_type":"html-keyboard-response","trial_index":129,"time_elapsed":597595,"internal_node_id":"0.0-5.0-0.1","prolific_id":"62d7858e9d0bb849183e1500","session_id":"64399b2a0cdee30321d9f0a9","study_id":"64370a36d30bfa807bc7e43c","correct":true},{"rt":null,"stimulus":"\n\t\t\t\t\t<p>Correct!</p>\n\t\t\t\t\t","response":null,"trial_type":"html-keyboard-response","trial_index":130,"time_elapsed":598601,"internal_node_id":"0.0-5.0-1.1","prolific_id":"62d7858e9d0bb849183e1500","session_id":"64399b2a0cdee30321d9f0a9","study_id":"64370a36d30bfa807bc7e43c"},{"rt":2109,"stimulus":"\n\t\t\t\t\t\t<div class=\"two_card_container\">\n\t\t\t\t\t\t<div class=\"card_container\">\n\t\t\t\t\t\t<img src=img/15.png>\n\t\t\t\t\t\t</div>\n\n\t\t\t\t\t\t<div class=\"card_container\">\n\t\t\t\t\t\t<img src=img/33.png>\n\t\t\t\t\t\t</div>","response":"f","task":"response","correct_response":"f","trial_type":"html-keyboard-response","trial_index":131,"time_elapsed":600711,"internal_node_id":"0.0-5.0-0.2","prolific_id":"62d7858e9d0bb849183e1500","session_id":"64399b2a0cdee30321d9f0a9","study_id":"64370a36d30bfa807bc7e43c","correct":true},{"rt":null,"stimulus":"\n\t\t\t\t\t<p>Correct!</p>\n\t\t\t\t\t","response":null,"trial_type":"html-keyboard-response","trial_index":132,"time_elapsed":601721,"internal_node_id":"0.0-5.0-1.2","prolific_id":"62d7858e9d0bb849183e1500","session_id":"64399b2a0cdee30321d9f0a9","study_id":"64370a36d30bfa807bc7e43c"},{"rt":2192,"stimulus":"\n\t\t\t\t\t\t<div class=\"two_card_container\">\n\t\t\t\t\t\t<div class=\"card_container\">\n\t\t\t\t\t\t<img src=img/1.png>\n\t\t\t\t\t\t</div>\n\n\t\t\t\t\t\t<div class=\"card_container\">\n\t\t\t\t\t\t<img src=img/39.png>\n\t\t\t\t\t\t</div>","response":"f","task":"response","correct_response":"f","trial_type":"html-keyboard-response","trial_index":133,"time_elapsed":603914,"internal_node_id":"0.0-5.0-0.3","prolific_id":"62d7858e9d0bb849183e1500","session_id":"64399b2a0cdee30321d9f0a9","study_id":"64370a36d30bfa807bc7e43c","correct":true},{"rt":null,"stimulus":"\n\t\t\t\t\t<p>Correct!</p>\n\t\t\t\t\t","response":null,"trial_type":"html-keyboard-response","trial_index":134,"time_elapsed":604922,"internal_node_id":"0.0-5.0-1.3","prolific_id":"62d7858e9d0bb849183e1500","session_id":"64399b2a0cdee30321d9f0a9","study_id":"64370a36d30bfa807bc7e43c"},{"rt":1829,"stimulus":"\n\t\t\t\t\t\t<div class=\"two_card_container\">\n\t\t\t\t\t\t<div class=\"card_container\">\n\t\t\t\t\t\t<img src=img/37.png>\n\t\t\t\t\t\t</div>\n\n\t\t\t\t\t\t<div class=\"card_container\">\n\t\t\t\t\t\t<img src=img/21.png>\n\t\t\t\t\t\t</div>","response":"j","task":"response","correct_response":"j","trial_type":"html-keyboard-response","trial_index":135,"time_elapsed":606752,"internal_node_id":"0.0-5.0-0.4","prolific_id":"62d7858e9d0bb849183e1500","session_id":"64399b2a0cdee30321d9f0a9","study_id":"64370a36d30bfa807bc7e43c","correct":true},{"rt":null,"stimulus":"\n\t\t\t\t\t<p>Correct!</p>\n\t\t\t\t\t","response":null,"trial_type":"html-keyboard-response","trial_index":136,"time_elapsed":607764,"internal_node_id":"0.0-5.0-1.4","prolific_id":"62d7858e9d0bb849183e1500","session_id":"64399b2a0cdee30321d9f0a9","study_id":"64370a36d30bfa807bc7e43c"},{"rt":988,"stimulus":"\n\t\t\t\t\t\t<div class=\"two_card_container\">\n\t\t\t\t\t\t<div class=\"card_container\">\n\t\t\t\t\t\t<img src=img/4.png>\n\t\t\t\t\t\t</div>\n\n\t\t\t\t\t\t<div class=\"card_container\">\n\t\t\t\t\t\t<img src=img/38.png>\n\t\t\t\t\t\t</div>","response":"f","task":"response","correct_response":"f","trial_type":"html-keyboard-response","trial_index":137,"time_elapsed":608753,"internal_node_id":"0.0-5.0-0.5","prolific_id":"62d7858e9d0bb849183e1500","session_id":"64399b2a0cdee30321d9f0a9","study_id":"64370a36d30bfa807bc7e43c","correct":true},{"rt":null,"stimulus":"\n\t\t\t\t\t<p>Correct!</p>\n\t\t\t\t\t","response":null,"trial_type":"html-keyboard-response","trial_index":138,"time_elapsed":609763,"internal_node_id":"0.0-5.0-1.5","prolific_id":"62d7858e9d0bb849183e1500","session_id":"64399b2a0cdee30321d9f0a9","study_id":"64370a36d30bfa807bc7e43c"},{"rt":1832,"stimulus":"\n\t\t\t\t\t\t<div class=\"two_card_container\">\n\t\t\t\t\t\t<div class=\"card_container\">\n\t\t\t\t\t\t<img src=img/12.png>\n\t\t\t\t\t\t</div>\n\n\t\t\t\t\t\t<div class=\"card_container\">\n\t\t\t\t\t\t<img src=img/40.png>\n\t\t\t\t\t\t</div>","response":"j","task":"response","correct_response":"f","trial_type":"html-keyboard-response","trial_index":139,"time_elapsed":611596,"internal_node_id":"0.0-5.0-0.6","prolific_id":"62d7858e9d0bb849183e1500","session_id":"64399b2a0cdee30321d9f0a9","study_id":"64370a36d30bfa807bc7e43c","correct":false},{"rt":null,"stimulus":"\n\t\t\t\t\t<p>Wrong answer</p>\n\t\t\t\t\t","response":null,"trial_type":"html-keyboard-response","trial_index":140,"time_elapsed":612600,"internal_node_id":"0.0-5.0-1.6","prolific_id":"62d7858e9d0bb849183e1500","session_id":"64399b2a0cdee30321d9f0a9","study_id":"64370a36d30bfa807bc7e43c"},{"rt":1916,"stimulus":"\n\t\t\t\t\t\t<div class=\"two_card_container\">\n\t\t\t\t\t\t<div class=\"card_container\">\n\t\t\t\t\t\t<img src=img/36.png>\n\t\t\t\t\t\t</div>\n\n\t\t\t\t\t\t<div class=\"card_container\">\n\t\t\t\t\t\t<img src=img/13.png>\n\t\t\t\t\t\t</div>","response":"f","task":"response","correct_response":"j","trial_type":"html-keyboard-response","trial_index":141,"time_elapsed":614517,"internal_node_id":"0.0-5.0-0.7","prolific_id":"62d7858e9d0bb849183e1500","session_id":"64399b2a0cdee30321d9f0a9","study_id":"64370a36d30bfa807bc7e43c","correct":false},{"rt":null,"stimulus":"\n\t\t\t\t\t<p>Wrong answer</p>\n\t\t\t\t\t","response":null,"trial_type":"html-keyboard-response","trial_index":142,"time_elapsed":615520,"internal_node_id":"0.0-5.0-1.7","prolific_id":"62d7858e9d0bb849183e1500","session_id":"64399b2a0cdee30321d9f0a9","study_id":"64370a36d30bfa807bc7e43c"},{"rt":2048,"stimulus":"\n\t\t\t\t\t\t<div class=\"two_card_container\">\n\t\t\t\t\t\t<div class=\"card_container\">\n\t\t\t\t\t\t<img src=img/35.png>\n\t\t\t\t\t\t</div>\n\n\t\t\t\t\t\t<div class=\"card_container\">\n\t\t\t\t\t\t<img src=img/7.png>\n\t\t\t\t\t\t</div>","response":"j","task":"response","correct_response":"j","trial_type":"html-keyboard-response","trial_index":143,"time_elapsed":617569,"internal_node_id":"0.0-5.0-0.8","prolific_id":"62d7858e9d0bb849183e1500","session_id":"64399b2a0cdee30321d9f0a9","study_id":"64370a36d30bfa807bc7e43c","correct":true},{"rt":null,"stimulus":"\n\t\t\t\t\t<p>Correct!</p>\n\t\t\t\t\t","response":null,"trial_type":"html-keyboard-response","trial_index":144,"time_elapsed":618575,"internal_node_id":"0.0-5.0-1.8","prolific_id":"62d7858e9d0bb849183e1500","session_id":"64399b2a0cdee30321d9f0a9","study_id":"64370a36d30bfa807bc7e43c"},{"rt":1452,"stimulus":"\n\t\t\t\t\t\t<div class=\"two_card_container\">\n\t\t\t\t\t\t<div class=\"card_container\">\n\t\t\t\t\t\t<img src=img/31.png>\n\t\t\t\t\t\t</div>\n\n\t\t\t\t\t\t<div class=\"card_container\">\n\t\t\t\t\t\t<img src=img/14.png>\n\t\t\t\t\t\t</div>","response":"f","task":"response","correct_response":"j","trial_type":"html-keyboard-response","trial_index":145,"time_elapsed":620029,"internal_node_id":"0.0-5.0-0.9","prolific_id":"62d7858e9d0bb849183e1500","session_id":"64399b2a0cdee30321d9f0a9","study_id":"64370a36d30bfa807bc7e43c","correct":false},{"rt":null,"stimulus":"\n\t\t\t\t\t<p>Wrong answer</p>\n\t\t\t\t\t","response":null,"trial_type":"html-keyboard-response","trial_index":146,"time_elapsed":621035,"internal_node_id":"0.0-5.0-1.9","prolific_id":"62d7858e9d0bb849183e1500","session_id":"64399b2a0cdee30321d9f0a9","study_id":"64370a36d30bfa807bc7e43c"},{"rt":7634,"stimulus":"\n\t\t\t<h2>Good job :p</h2>\n\t\t\t<p>In the next session, you will see a trivia question on the screen in each trial.</p>\n\t\t\t<p>Each of these trivia questions is chosen from the questions you have already seen in the first session of the experiment.</p><br>\n\t\t\t<p>Your task is to answer the trivia question based on what you remember as accurately as you can.</p>\n\t\t\t<p>Have fun!</p>\n\t\t\t<br>\n\t\t\t<p>The trials will begin in 30 seconds</p>\n\t\t\t","response":" ","trial_type":"html-keyboard-response","trial_index":147,"time_elapsed":628668,"internal_node_id":"0.0-6.0","prolific_id":"62d7858e9d0bb849183e1500","session_id":"64399b2a0cdee30321d9f0a9","study_id":"64370a36d30bfa807bc7e43c"},{"rt":9665,"response":{"answer":"5"},"task":"response","correct_response":"6","trial_type":"survey-text","trial_index":148,"time_elapsed":638335,"internal_node_id":"0.0-7.0-0.0","prolific_id":"62d7858e9d0bb849183e1500","session_id":"64399b2a0cdee30321d9f0a9","study_id":"64370a36d30bfa807bc7e43c","difference":17},{"rt":null,"stimulus":"<h2>The correct answer is 6.</h2><p>Your answer was different from the answer by 1.</p><p>A pretty good job indeed.</p>","response":null,"trial_type":"html-keyboard-response","trial_index":149,"time_elapsed":640841,"internal_node_id":"0.0-7.0-1.0","prolific_id":"62d7858e9d0bb849183e1500","session_id":"64399b2a0cdee30321d9f0a9","study_id":"64370a36d30bfa807bc7e43c"},{"rt":7415,"response":{"answer":"5"},"task":"response","correct_response":"4","trial_type":"survey-text","trial_index":150,"time_elapsed":648258,"internal_node_id":"0.0-7.0-0.1","prolific_id":"62d7858e9d0bb849183e1500","session_id":"64399b2a0cdee30321d9f0a9","study_id":"64370a36d30bfa807bc7e43c","difference":25},{"rt":null,"stimulus":"<h2>The correct answer is 4.</h2><p>Your answer was different from the answer by 1.</p><p>A pretty good job indeed.</p>","response":null,"trial_type":"html-keyboard-response","trial_index":151,"time_elapsed":650769,"internal_node_id":"0.0-7.0-1.1","prolific_id":"62d7858e9d0bb849183e1500","session_id":"64399b2a0cdee30321d9f0a9","study_id":"64370a36d30bfa807bc7e43c"},{"rt":2150,"response":{"answer":"11"},"task":"response","correct_response":"11","trial_type":"survey-text","trial_index":152,"time_elapsed":652922,"internal_node_id":"0.0-7.0-0.2","prolific_id":"62d7858e9d0bb849183e1500","session_id":"64399b2a0cdee30321d9f0a9","study_id":"64370a36d30bfa807bc7e43c","difference":0},{"rt":null,"stimulus":"<h2>The correct answer is 11.</h2><p>Your answer was different from the answer by 0.</p><p>You got the right answer. Amazing work!</p>","response":null,"trial_type":"html-keyboard-response","trial_index":153,"time_elapsed":655430,"internal_node_id":"0.0-7.0-1.2","prolific_id":"62d7858e9d0bb849183e1500","session_id":"64399b2a0cdee30321d9f0a9","study_id":"64370a36d30bfa807bc7e43c"},{"rt":4139,"response":{"answer":"73"},"task":"response","correct_response":"73","trial_type":"survey-text","trial_index":154,"time_elapsed":659572,"internal_node_id":"0.0-7.0-0.3","prolific_id":"62d7858e9d0bb849183e1500","session_id":"64399b2a0cdee30321d9f0a9","study_id":"64370a36d30bfa807bc7e43c","difference":0},{"rt":null,"stimulus":"<h2>The correct answer is 73.</h2><p>Your answer was different from the answer by 0.</p><p>You got the right answer. Amazing work!</p>","response":null,"trial_type":"html-keyboard-response","trial_index":155,"time_elapsed":662079,"internal_node_id":"0.0-7.0-1.3","prolific_id":"62d7858e9d0bb849183e1500","session_id":"64399b2a0cdee30321d9f0a9","study_id":"64370a36d30bfa807bc7e43c"},{"rt":1872,"response":{"answer":"5"},"task":"response","correct_response":"5","trial_type":"survey-text","trial_index":156,"time_elapsed":663954,"internal_node_id":"0.0-7.0-0.4","prolific_id":"62d7858e9d0bb849183e1500","session_id":"64399b2a0cdee30321d9f0a9","study_id":"64370a36d30bfa807bc7e43c","difference":0},{"rt":null,"stimulus":"<h2>The correct answer is 5.</h2><p>Your answer was different from the answer by 0.</p><p>You got the right answer. Amazing work!</p>","response":null,"trial_type":"html-keyboard-response","trial_index":157,"time_elapsed":666465,"internal_node_id":"0.0-7.0-1.4","prolific_id":"62d7858e9d0bb849183e1500","session_id":"64399b2a0cdee30321d9f0a9","study_id":"64370a36d30bfa807bc7e43c"},{"rt":5822,"response":{"answer":"1903"},"task":"response","correct_response":"1907","trial_type":"survey-text","trial_index":158,"time_elapsed":672290,"internal_node_id":"0.0-7.0-0.5","prolific_id":"62d7858e9d0bb849183e1500","session_id":"64399b2a0cdee30321d9f0a9","study_id":"64370a36d30bfa807bc7e43c","difference":0},{"rt":null,"stimulus":"<h2>The correct answer is 1907.</h2><p>Your answer was different from the answer by 4.</p><p>Excellent. Kudos to you!</p>","response":null,"trial_type":"html-keyboard-response","trial_index":159,"time_elapsed":674801,"internal_node_id":"0.0-7.0-1.5","prolific_id":"62d7858e9d0bb849183e1500","session_id":"64399b2a0cdee30321d9f0a9","study_id":"64370a36d30bfa807bc7e43c"},{"rt":7814,"response":{"answer":"14"},"task":"response","correct_response":"12","trial_type":"survey-text","trial_index":160,"time_elapsed":682618,"internal_node_id":"0.0-7.0-0.6","prolific_id":"62d7858e9d0bb849183e1500","session_id":"64399b2a0cdee30321d9f0a9","study_id":"64370a36d30bfa807bc7e43c","difference":17},{"rt":null,"stimulus":"<h2>The correct answer is 12.</h2><p>Your answer was different from the answer by 2.</p><p>A pretty good job indeed.</p>","response":null,"trial_type":"html-keyboard-response","trial_index":161,"time_elapsed":685130,"internal_node_id":"0.0-7.0-1.6","prolific_id":"62d7858e9d0bb849183e1500","session_id":"64399b2a0cdee30321d9f0a9","study_id":"64370a36d30bfa807bc7e43c"},{"rt":2209,"response":{"answer":"300"},"task":"response","correct_response":"300","trial_type":"survey-text","trial_index":162,"time_elapsed":687341,"internal_node_id":"0.0-7.0-0.7","prolific_id":"62d7858e9d0bb849183e1500","session_id":"64399b2a0cdee30321d9f0a9","study_id":"64370a36d30bfa807bc7e43c","difference":0},{"rt":null,"stimulus":"<h2>The correct answer is 300.</h2><p>Your answer was different from the answer by 0.</p><p>You got the right answer. Amazing work!</p>","response":null,"trial_type":"html-keyboard-response","trial_index":163,"time_elapsed":689848,"internal_node_id":"0.0-7.0-1.7","prolific_id":"62d7858e9d0bb849183e1500","session_id":"64399b2a0cdee30321d9f0a9","study_id":"64370a36d30bfa807bc7e43c"},{"rt":3380,"response":{"answer":"58"},"task":"response","correct_response":"54","trial_type":"survey-text","trial_index":164,"time_elapsed":693230,"internal_node_id":"0.0-7.0-0.8","prolific_id":"62d7858e9d0bb849183e1500","session_id":"64399b2a0cdee30321d9f0a9","study_id":"64370a36d30bfa807bc7e43c","difference":7},{"rt":null,"stimulus":"<h2>The correct answer is 54.</h2><p>Your answer was different from the answer by 4.</p><p>Excellent. Kudos to you!</p>","response":null,"trial_type":"html-keyboard-response","trial_index":165,"time_elapsed":695740,"internal_node_id":"0.0-7.0-1.8","prolific_id":"62d7858e9d0bb849183e1500","session_id":"64399b2a0cdee30321d9f0a9","study_id":"64370a36d30bfa807bc7e43c"},{"rt":3294,"response":{"answer":"14"},"task":"response","correct_response":"28","trial_type":"survey-text","trial_index":166,"time_elapsed":699037,"internal_node_id":"0.0-7.0-0.9","prolific_id":"62d7858e9d0bb849183e1500","session_id":"64399b2a0cdee30321d9f0a9","study_id":"64370a36d30bfa807bc7e43c","difference":50},{"rt":null,"stimulus":"<h2>The correct answer is 28.</h2><p>Your answer was different from the answer by 14.</p><p>Not the worst. Can you do better on the next?</p>","response":null,"trial_type":"html-keyboard-response","trial_index":167,"time_elapsed":701546,"internal_node_id":"0.0-7.0-1.9","prolific_id":"62d7858e9d0bb849183e1500","session_id":"64399b2a0cdee30321d9f0a9","study_id":"64370a36d30bfa807bc7e43c"}]