[{"success":true,"timeout":false,"failed_images":[],"failed_audio":[],"failed_video":[],"trial_type":"preload","trial_index":0,"time_elapsed":4222,"internal_node_id":"0.0-0.0","prolific_id":"62e185f1375fa71f12753c64","session_id":"64399b6c3a02ab0f4357489a","study_id":"64370a36d30bfa807bc7e43c"},{"rt":12755,"stimulus":"\n\t\t\t\t\t<p>Welcome and thank you for participating in this study!</p>\n\t\t\t\t\t<p>In each trial, you will be given a trivia question and then be asked to:</p><br>\n\t\t\t\t\t<div class=\"list\">\n\t\t\t\t\t<p>1) Predict the answer</p>\n\t\t\t\t\t<p>2) Rate how much you already know about the topic</p>\n\t\t\t\t\t<p>3) Rate how much you want to know the answer</p>\n\t\t\t\t\t</div>\n\t\t\t\t\t<br>\n\t\t\t\t\t<p>Then, you will see a card that flips over to reveal the answer.</p>\n\t\t\t\t\t<br>\n\t\t\t\t\t<p>Let's try a practice round. Press <span style=\"color: red\"><strong>any key</strong></span> to move to the next slide</p>\n\t\t\t\t\t","response":" ","trial_type":"html-keyboard-response","trial_index":1,"time_elapsed":16978,"internal_node_id":"0.0-1.0","prolific_id":"62e185f1375fa71f12753c64","session_id":"64399b6c3a02ab0f4357489a","study_id":"64370a36d30bfa807bc7e43c"},{"rt":13081,"response":{"practice prediction":"8"},"task":"practice","trial_type":"survey-text","trial_index":2,"time_elapsed":30083,"internal_node_id":"0.0-2.0-0.0","prolific_id":"62e185f1375fa71f12753c64","session_id":"64399b6c3a02ab0f4357489a","study_id":"64370a36d30bfa807bc7e43c"},{"rt":8538,"response":{"practice":3},"accuracy":[],"trial_type":"survey","trial_index":3,"time_elapsed":38666,"internal_node_id":"0.0-2.0-1.0","prolific_id":"62e185f1375fa71f12753c64","session_id":"64399b6c3a02ab0f4357489a","study_id":"64370a36d30bfa807bc7e43c"},{"rt":null,"stimulus":"\n\t\t\t\t<div class=\"flip_card\">\n\t\t\t\t\t<div class=\"flip_card_inner\">\n\t\t\t\t\t\t<div class=\"flip_card_front\">\n\t\t\t\t\t\t\t<img src=img/practice.png>\n\t\t\t\t\t\t</div>\n\t\t\t\t\t\t<div class=\"flip_card_back\">\n\t\t\t\t\t\t\t<h2>\"How many legs does a lobster have?\"</h2>\n\t\t\t\t\t\t    <br>\n\t\t\t\t\t\t    <p>Answer: <strong>\"10\"</strong></p>\n\t\t\t\t\t    </div>\n\t\t\t\t    </div>\n\t\t\t    </div>\n\t\t\t\t","response":null,"trial_type":"html-keyboard-response","trial_index":4,"time_elapsed":43676,"internal_node_id":"0.0-2.0-2.0","prolific_id":"62e185f1375fa71f12753c64","session_id":"64399b6c3a02ab0f4357489a","study_id":"64370a36d30bfa807bc7e43c"},{"rt":1689,"stimulus":"\n\t\t\t\t\t<div>\n\t\t\t\t\t<h2>The practice round is over</h2>\n\t\t\t\t\t<p>Press <span style=\"color: red\"><strong>any key</strong></span> to continue to the actual trials</p>\n\t\t\t\t\t<p>Good Luck!</p>\n\t\t\t\t\t</div>\n\t\t\t\t\t","response":" ","trial_type":"html-keyboard-response","trial_index":5,"time_elapsed":45366,"internal_node_id":"0.0-2.0-3.0","prolific_id":"62e185f1375fa71f12753c64","session_id":"64399b6c3a02ab0f4357489a","study_id":"64370a36d30bfa807bc7e43c"},{"rt":26663,"response":{"prediction":"200"},"trial_type":"survey-text","trial_index":6,"time_elapsed":72032,"internal_node_id":"0.0-3.0-0.0","prolific_id":"62e185f1375fa71f12753c64","session_id":"64399b6c3a02ab0f4357489a","study_id":"64370a36d30bfa807bc7e43c"},{"rt":5450,"response":{"prior knowledge":0,"curiosity":4},"accuracy":[],"trial_type":"survey","trial_index":7,"time_elapsed":77506,"internal_node_id":"0.0-3.0-1.0","prolific_id":"62e185f1375fa71f12753c64","session_id":"64399b6c3a02ab0f4357489a","study_id":"64370a36d30bfa807bc7e43c"},{"rt":null,"stimulus":"\n\t\t\t<div class=\"flip_card\">\n\t\t\t\t<div class=\"flip_card_inner\">\n\t\t\t\t\t<div class=\"flip_card_front\">\n\t\t\t\t\t\t<img src=img/5.png>\n\t\t\t\t\t</div>\n\t\t\t\t\t<div class=\"flip_card_back\">\n\t\t\t\t\t\t<h2>How many people are vegan globally (in millions)?</h2>\n\t\t\t\t\t\t<br>\n\t\t\t\t\t\t<p>Answer: <strong>79</strong></p>\n\t\t\t\t\t</div>\n\t\t\t\t</div>\n\t\t\t</div>\n\t\t\t","response":null,"trial_type":"html-keyboard-response","trial_index":8,"time_elapsed":82513,"internal_node_id":"0.0-3.0-2.0","prolific_id":"62e185f1375fa71f12753c64","session_id":"64399b6c3a02ab0f4357489a","study_id":"64370a36d30bfa807bc7e43c"},{"rt":2464,"stimulus":"\n\t\t\t\t\t<div>\n\t\t\t\t\t<h2>Trial 1 is over</h2>\n\t\t\t\t\t<p>Press <span style=\"color: red\"><strong>any key</strong></span> to continue to the next trial</p>\n\t\t\t\t\t</div>\n\t\t\t\t","response":" ","trial_type":"html-keyboard-response","trial_index":9,"time_elapsed":84978,"internal_node_id":"0.0-3.0-3.0","prolific_id":"62e185f1375fa71f12753c64","session_id":"64399b6c3a02ab0f4357489a","study_id":"64370a36d30bfa807bc7e43c"},{"rt":17038,"response":{"prediction":"55"},"trial_type":"survey-text","trial_index":10,"time_elapsed":102019,"internal_node_id":"0.0-3.0-0.1","prolific_id":"62e185f1375fa71f12753c64","session_id":"64399b6c3a02ab0f4357489a","study_id":"64370a36d30bfa807bc7e43c"},{"rt":8272,"response":{"prior knowledge":3,"curiosity":5},"accuracy":[],"trial_type":"survey","trial_index":11,"time_elapsed":110310,"internal_node_id":"0.0-3.0-1.1","prolific_id":"62e185f1375fa71f12753c64","session_id":"64399b6c3a02ab0f4357489a","study_id":"64370a36d30bfa807bc7e43c"},{"rt":null,"stimulus":"\n\t\t\t<div class=\"flip_card\">\n\t\t\t\t<div class=\"flip_card_inner\">\n\t\t\t\t\t<div class=\"flip_card_front\">\n\t\t\t\t\t\t<img src=img/9.png>\n\t\t\t\t\t</div>\n\t\t\t\t\t<div class=\"flip_card_back\">\n\t\t\t\t\t\t<h2>How many books are in the Catholic Bible?</h2>\n\t\t\t\t\t\t<br>\n\t\t\t\t\t\t<p>Answer: <strong>73</strong></p>\n\t\t\t\t\t</div>\n\t\t\t\t</div>\n\t\t\t</div>\n\t\t\t","response":null,"trial_type":"html-keyboard-response","trial_index":12,"time_elapsed":115324,"internal_node_id":"0.0-3.0-2.1","prolific_id":"62e185f1375fa71f12753c64","session_id":"64399b6c3a02ab0f4357489a","study_id":"64370a36d30bfa807bc7e43c"},{"rt":2401,"stimulus":"\n\t\t\t\t\t<div>\n\t\t\t\t\t<h2>Trial 2 is over</h2>\n\t\t\t\t\t<p>Press <span style=\"color: red\"><strong>any key</strong></span> to continue to the next trial</p>\n\t\t\t\t\t</div>\n\t\t\t\t","response":" ","trial_type":"html-keyboard-response","trial_index":13,"time_elapsed":117725,"internal_node_id":"0.0-3.0-3.1","prolific_id":"62e185f1375fa71f12753c64","session_id":"64399b6c3a02ab0f4357489a","study_id":"64370a36d30bfa807bc7e43c"},{"rt":12060,"response":{"prediction":"20"},"trial_type":"survey-text","trial_index":14,"time_elapsed":129788,"internal_node_id":"0.0-3.0-0.2","prolific_id":"62e185f1375fa71f12753c64","session_id":"64399b6c3a02ab0f4357489a","study_id":"64370a36d30bfa807bc7e43c"},{"rt":5235,"response":{"prior knowledge":0,"curiosity":0},"accuracy":[],"trial_type":"survey","trial_index":15,"time_elapsed":135045,"internal_node_id":"0.0-3.0-1.2","prolific_id":"62e185f1375fa71f12753c64","session_id":"64399b6c3a02ab0f4357489a","study_id":"64370a36d30bfa807bc7e43c"},{"rt":null,"stimulus":"\n\t\t\t<div class=\"flip_card\">\n\t\t\t\t<div class=\"flip_card_inner\">\n\t\t\t\t\t<div class=\"flip_card_front\">\n\t\t\t\t\t\t<img src=img/24.png>\n\t\t\t\t\t</div>\n\t\t\t\t\t<div class=\"flip_card_back\">\n\t\t\t\t\t\t<h2>How many different animals (real or imaginary) are represented in the Chinese calendar?</h2>\n\t\t\t\t\t\t<br>\n\t\t\t\t\t\t<p>Answer: <strong>12</strong></p>\n\t\t\t\t\t</div>\n\t\t\t\t</div>\n\t\t\t</div>\n\t\t\t","response":null,"trial_type":"html-keyboard-response","trial_index":16,"time_elapsed":140049,"internal_node_id":"0.0-3.0-2.2","prolific_id":"62e185f1375fa71f12753c64","session_id":"64399b6c3a02ab0f4357489a","study_id":"64370a36d30bfa807bc7e43c"},{"rt":3211,"stimulus":"\n\t\t\t\t\t<div>\n\t\t\t\t\t<h2>Trial 3 is over</h2>\n\t\t\t\t\t<p>Press <span style=\"color: red\"><strong>any key</strong></span> to continue to the next trial</p>\n\t\t\t\t\t</div>\n\t\t\t\t","response":" ","trial_type":"html-keyboard-response","trial_index":17,"time_elapsed":143261,"internal_node_id":"0.0-3.0-3.2","prolific_id":"62e185f1375fa71f12753c64","session_id":"64399b6c3a02ab0f4357489a","study_id":"64370a36d30bfa807bc7e43c"},{"rt":13919,"response":{"prediction":"25"},"trial_type":"survey-text","trial_index":18,"time_elapsed":157183,"internal_node_id":"0.0-3.0-0.3","prolific_id":"62e185f1375fa71f12753c64","session_id":"64399b6c3a02ab0f4357489a","study_id":"64370a36d30bfa807bc7e43c"},{"rt":4627,"response":{"prior knowledge":0,"curiosity":1},"accuracy":[],"trial_type":"survey","trial_index":19,"time_elapsed":161831,"internal_node_id":"0.0-3.0-1.3","prolific_id":"62e185f1375fa71f12753c64","session_id":"64399b6c3a02ab0f4357489a","study_id":"64370a36d30bfa807bc7e43c"},{"rt":null,"stimulus":"\n\t\t\t<div class=\"flip_card\">\n\t\t\t\t<div class=\"flip_card_inner\">\n\t\t\t\t\t<div class=\"flip_card_front\">\n\t\t\t\t\t\t<img src=img/15.png>\n\t\t\t\t\t</div>\n\t\t\t\t\t<div class=\"flip_card_back\">\n\t\t\t\t\t\t<h2>How many countries are in Africa?</h2>\n\t\t\t\t\t\t<br>\n\t\t\t\t\t\t<p>Answer: <strong>54</strong></p>\n\t\t\t\t\t</div>\n\t\t\t\t</div>\n\t\t\t</div>\n\t\t\t","response":null,"trial_type":"html-keyboard-response","trial_index":20,"time_elapsed":166844,"internal_node_id":"0.0-3.0-2.3","prolific_id":"62e185f1375fa71f12753c64","session_id":"64399b6c3a02ab0f4357489a","study_id":"64370a36d30bfa807bc7e43c"},{"rt":1074,"stimulus":"\n\t\t\t\t\t<div>\n\t\t\t\t\t<h2>Trial 4 is over</h2>\n\t\t\t\t\t<p>Press <span style=\"color: red\"><strong>any key</strong></span> to continue to the next trial</p>\n\t\t\t\t\t</div>\n\t\t\t\t","response":" ","trial_type":"html-keyboard-response","trial_index":21,"time_elapsed":167919,"internal_node_id":"0.0-3.0-3.3","prolific_id":"62e185f1375fa71f12753c64","session_id":"64399b6c3a02ab0f4357489a","study_id":"64370a36d30bfa807bc7e43c"},{"rt":9048,"response":{"prediction":"100"},"trial_type":"survey-text","trial_index":22,"time_elapsed":176969,"internal_node_id":"0.0-3.0-0.4","prolific_id":"62e185f1375fa71f12753c64","session_id":"64399b6c3a02ab0f4357489a","study_id":"64370a36d30bfa807bc7e43c"},{"rt":4498,"response":{"prior knowledge":0,"curiosity":0},"accuracy":[],"trial_type":"survey","trial_index":23,"time_elapsed":181486,"internal_node_id":"0.0-3.0-1.4","prolific_id":"62e185f1375fa71f12753c64","session_id":"64399b6c3a02ab0f4357489a","study_id":"64370a36d30bfa807bc7e43c"},{"rt":null,"stimulus":"\n\t\t\t<div class=\"flip_card\">\n\t\t\t\t<div class=\"flip_card_inner\">\n\t\t\t\t\t<div class=\"flip_card_front\">\n\t\t\t\t\t\t<img src=img/16.png>\n\t\t\t\t\t</div>\n\t\t\t\t\t<div class=\"flip_card_back\">\n\t\t\t\t\t\t<h2>How many single hand gestures, or mudras, are used in Indian classical dance?</h2>\n\t\t\t\t\t\t<br>\n\t\t\t\t\t\t<p>Answer: <strong>28</strong></p>\n\t\t\t\t\t</div>\n\t\t\t\t</div>\n\t\t\t</div>\n\t\t\t","response":null,"trial_type":"html-keyboard-response","trial_index":24,"time_elapsed":186499,"internal_node_id":"0.0-3.0-2.4","prolific_id":"62e185f1375fa71f12753c64","session_id":"64399b6c3a02ab0f4357489a","study_id":"64370a36d30bfa807bc7e43c"},{"rt":1029,"stimulus":"\n\t\t\t\t\t<div>\n\t\t\t\t\t<h2>Trial 5 is over</h2>\n\t\t\t\t\t<p>Press <span style=\"color: red\"><strong>any key</strong></span> to continue to the next trial</p>\n\t\t\t\t\t</div>\n\t\t\t\t","response":" ","trial_type":"html-keyboard-response","trial_index":25,"time_elapsed":187529,"internal_node_id":"0.0-3.0-3.4","prolific_id":"62e185f1375fa71f12753c64","session_id":"64399b6c3a02ab0f4357489a","study_id":"64370a36d30bfa807bc7e43c"},{"rt":9286,"response":{"prediction":"10"},"trial_type":"survey-text","trial_index":26,"time_elapsed":196818,"internal_node_id":"0.0-3.0-0.5","prolific_id":"62e185f1375fa71f12753c64","session_id":"64399b6c3a02ab0f4357489a","study_id":"64370a36d30bfa807bc7e43c"},{"rt":5305,"response":{"prior knowledge":0,"curiosity":4},"accuracy":[],"trial_type":"survey","trial_index":27,"time_elapsed":202142,"internal_node_id":"0.0-3.0-1.5","prolific_id":"62e185f1375fa71f12753c64","session_id":"64399b6c3a02ab0f4357489a","study_id":"64370a36d30bfa807bc7e43c"},{"rt":null,"stimulus":"\n\t\t\t<div class=\"flip_card\">\n\t\t\t\t<div class=\"flip_card_inner\">\n\t\t\t\t\t<div class=\"flip_card_front\">\n\t\t\t\t\t\t<img src=img/8.png>\n\t\t\t\t\t</div>\n\t\t\t\t\t<div class=\"flip_card_back\">\n\t\t\t\t\t\t<h2>How many countries have territory in the Arctic Circle?</h2>\n\t\t\t\t\t\t<br>\n\t\t\t\t\t\t<p>Answer: <strong>8</strong></p>\n\t\t\t\t\t</div>\n\t\t\t\t</div>\n\t\t\t</div>\n\t\t\t","response":null,"trial_type":"html-keyboard-response","trial_index":28,"time_elapsed":207148,"internal_node_id":"0.0-3.0-2.5","prolific_id":"62e185f1375fa71f12753c64","session_id":"64399b6c3a02ab0f4357489a","study_id":"64370a36d30bfa807bc7e43c"},{"rt":1238,"stimulus":"\n\t\t\t\t\t<div>\n\t\t\t\t\t<h2>Trial 6 is over</h2>\n\t\t\t\t\t<p>Press <span style=\"color: red\"><strong>any key</strong></span> to continue to the next trial</p>\n\t\t\t\t\t</div>\n\t\t\t\t","response":" ","trial_type":"html-keyboard-response","trial_index":29,"time_elapsed":208386,"internal_node_id":"0.0-3.0-3.5","prolific_id":"62e185f1375fa71f12753c64","session_id":"64399b6c3a02ab0f4357489a","study_id":"64370a36d30bfa807bc7e43c"},{"rt":7866,"response":{"prediction":"15"},"trial_type":"survey-text","trial_index":30,"time_elapsed":216255,"internal_node_id":"0.0-3.0-0.6","prolific_id":"62e185f1375fa71f12753c64","session_id":"64399b6c3a02ab0f4357489a","study_id":"64370a36d30bfa807bc7e43c"},{"rt":3812,"response":{"prior knowledge":0,"curiosity":3},"accuracy":[],"trial_type":"survey","trial_index":31,"time_elapsed":220086,"internal_node_id":"0.0-3.0-1.6","prolific_id":"62e185f1375fa71f12753c64","session_id":"64399b6c3a02ab0f4357489a","study_id":"64370a36d30bfa807bc7e43c"},{"rt":null,"stimulus":"\n\t\t\t<div class=\"flip_card\">\n\t\t\t\t<div class=\"flip_card_inner\">\n\t\t\t\t\t<div class=\"flip_card_front\">\n\t\t\t\t\t\t<img src=img/23.png>\n\t\t\t\t\t</div>\n\t\t\t\t\t<div class=\"flip_card_back\">\n\t\t\t\t\t\t<h2>How many countries in Africa have French as the official language?</h2>\n\t\t\t\t\t\t<br>\n\t\t\t\t\t\t<p>Answer: <strong>21</strong></p>\n\t\t\t\t\t</div>\n\t\t\t\t</div>\n\t\t\t</div>\n\t\t\t","response":null,"trial_type":"html-keyboard-response","trial_index":32,"time_elapsed":225096,"internal_node_id":"0.0-3.0-2.6","prolific_id":"62e185f1375fa71f12753c64","session_id":"64399b6c3a02ab0f4357489a","study_id":"64370a36d30bfa807bc7e43c"},{"rt":1029,"stimulus":"\n\t\t\t\t\t<div>\n\t\t\t\t\t<h2>Trial 7 is over</h2>\n\t\t\t\t\t<p>Press <span style=\"color: red\"><strong>any key</strong></span> to continue to the next trial</p>\n\t\t\t\t\t</div>\n\t\t\t\t","response":" ","trial_type":"html-keyboard-response","trial_index":33,"time_elapsed":226126,"internal_node_id":"0.0-3.0-3.6","prolific_id":"62e185f1375fa71f12753c64","session_id":"64399b6c3a02ab0f4357489a","study_id":"64370a36d30bfa807bc7e43c"},{"rt":7162,"response":{"prediction":"5"},"trial_type":"survey-text","trial_index":34,"time_elapsed":233291,"internal_node_id":"0.0-3.0-0.7","prolific_id":"62e185f1375fa71f12753c64","session_id":"64399b6c3a02ab0f4357489a","study_id":"64370a36d30bfa807bc7e43c"},{"rt":5219,"response":{"prior knowledge":0,"curiosity":4},"accuracy":[],"trial_type":"survey","trial_index":35,"time_elapsed":238522,"internal_node_id":"0.0-3.0-1.7","prolific_id":"62e185f1375fa71f12753c64","session_id":"64399b6c3a02ab0f4357489a","study_id":"64370a36d30bfa807bc7e43c"},{"rt":null,"stimulus":"\n\t\t\t<div class=\"flip_card\">\n\t\t\t\t<div class=\"flip_card_inner\">\n\t\t\t\t\t<div class=\"flip_card_front\">\n\t\t\t\t\t\t<img src=img/6.png>\n\t\t\t\t\t</div>\n\t\t\t\t\t<div class=\"flip_card_back\">\n\t\t\t\t\t\t<h2>How many native species of kangaroos are found in Australia?</h2>\n\t\t\t\t\t\t<br>\n\t\t\t\t\t\t<p>Answer: <strong>4</strong></p>\n\t\t\t\t\t</div>\n\t\t\t\t</div>\n\t\t\t</div>\n\t\t\t","response":null,"trial_type":"html-keyboard-response","trial_index":36,"time_elapsed":243530,"internal_node_id":"0.0-3.0-2.7","prolific_id":"62e185f1375fa71f12753c64","session_id":"64399b6c3a02ab0f4357489a","study_id":"64370a36d30bfa807bc7e43c"},{"rt":1268,"stimulus":"\n\t\t\t\t\t<div>\n\t\t\t\t\t<h2>Trial 8 is over</h2>\n\t\t\t\t\t<p>Press <span style=\"color: red\"><strong>any key</strong></span> to continue to the next trial</p>\n\t\t\t\t\t</div>\n\t\t\t\t","response":" ","trial_type":"html-keyboard-response","trial_index":37,"time_elapsed":244799,"internal_node_id":"0.0-3.0-3.7","prolific_id":"62e185f1375fa71f12753c64","session_id":"64399b6c3a02ab0f4357489a","study_id":"64370a36d30bfa807bc7e43c"},{"rt":105254,"response":{"prediction":"1900"},"trial_type":"survey-text","trial_index":38,"time_elapsed":350055,"internal_node_id":"0.0-3.0-0.8","prolific_id":"62e185f1375fa71f12753c64","session_id":"64399b6c3a02ab0f4357489a","study_id":"64370a36d30bfa807bc7e43c"},{"rt":2505,"response":{"prior knowledge":0,"curiosity":0},"accuracy":[],"trial_type":"survey","trial_index":39,"time_elapsed":352581,"internal_node_id":"0.0-3.0-1.8","prolific_id":"62e185f1375fa71f12753c64","session_id":"64399b6c3a02ab0f4357489a","study_id":"64370a36d30bfa807bc7e43c"},{"rt":null,"stimulus":"\n\t\t\t<div class=\"flip_card\">\n\t\t\t\t<div class=\"flip_card_inner\">\n\t\t\t\t\t<div class=\"flip_card_front\">\n\t\t\t\t\t\t<img src=img/30.png>\n\t\t\t\t\t</div>\n\t\t\t\t\t<div class=\"flip_card_back\">\n\t\t\t\t\t\t<h2>In what year did the first Modern Olympic Games take place?</h2>\n\t\t\t\t\t\t<br>\n\t\t\t\t\t\t<p>Answer: <strong>1896</strong></p>\n\t\t\t\t\t</div>\n\t\t\t\t</div>\n\t\t\t</div>\n\t\t\t","response":null,"trial_type":"html-keyboard-response","trial_index":40,"time_elapsed":357593,"internal_node_id":"0.0-3.0-2.8","prolific_id":"62e185f1375fa71f12753c64","session_id":"64399b6c3a02ab0f4357489a","study_id":"64370a36d30bfa807bc7e43c"},{"rt":365,"stimulus":"\n\t\t\t\t\t<div>\n\t\t\t\t\t<h2>Trial 9 is over</h2>\n\t\t\t\t\t<p>Press <span style=\"color: red\"><strong>any key</strong></span> to continue to the next trial</p>\n\t\t\t\t\t</div>\n\t\t\t\t","response":" ","trial_type":"html-keyboard-response","trial_index":41,"time_elapsed":357959,"internal_node_id":"0.0-3.0-3.8","prolific_id":"62e185f1375fa71f12753c64","session_id":"64399b6c3a02ab0f4357489a","study_id":"64370a36d30bfa807bc7e43c"},{"rt":5203,"response":{"prediction":"3"},"trial_type":"survey-text","trial_index":42,"time_elapsed":363165,"internal_node_id":"0.0-3.0-0.9","prolific_id":"62e185f1375fa71f12753c64","session_id":"64399b6c3a02ab0f4357489a","study_id":"64370a36d30bfa807bc7e43c"},{"rt":4610,"response":{"prior knowledge":0,"curiosity":2},"accuracy":[],"trial_type":"survey","trial_index":43,"time_elapsed":367795,"internal_node_id":"0.0-3.0-1.9","prolific_id":"62e185f1375fa71f12753c64","session_id":"64399b6c3a02ab0f4357489a","study_id":"64370a36d30bfa807bc7e43c"},{"rt":null,"stimulus":"\n\t\t\t<div class=\"flip_card\">\n\t\t\t\t<div class=\"flip_card_inner\">\n\t\t\t\t\t<div class=\"flip_card_front\">\n\t\t\t\t\t\t<img src=img/29.png>\n\t\t\t\t\t</div>\n\t\t\t\t\t<div class=\"flip_card_back\">\n\t\t\t\t\t\t<h2>How many times a day do Muslims pray?</h2>\n\t\t\t\t\t\t<br>\n\t\t\t\t\t\t<p>Answer: <strong>5</strong></p>\n\t\t\t\t\t</div>\n\t\t\t\t</div>\n\t\t\t</div>\n\t\t\t","response":null,"trial_type":"html-keyboard-response","trial_index":44,"time_elapsed":372803,"internal_node_id":"0.0-3.0-2.9","prolific_id":"62e185f1375fa71f12753c64","session_id":"64399b6c3a02ab0f4357489a","study_id":"64370a36d30bfa807bc7e43c"},{"rt":975,"stimulus":"\n\t\t\t\t\t<div>\n\t\t\t\t\t<h2>Trial 10 is over</h2>\n\t\t\t\t\t<p>Press <span style=\"color: red\"><strong>any key</strong></span> to continue to the next trial</p>\n\t\t\t\t\t</div>\n\t\t\t\t","response":" ","trial_type":"html-keyboard-response","trial_index":45,"time_elapsed":373779,"internal_node_id":"0.0-3.0-3.9","prolific_id":"62e185f1375fa71f12753c64","session_id":"64399b6c3a02ab0f4357489a","study_id":"64370a36d30bfa807bc7e43c"},{"rt":9328,"response":{"prediction":"11"},"trial_type":"survey-text","trial_index":46,"time_elapsed":383109,"internal_node_id":"0.0-3.0-0.10","prolific_id":"62e185f1375fa71f12753c64","session_id":"64399b6c3a02ab0f4357489a","study_id":"64370a36d30bfa807bc7e43c"},{"rt":8608,"response":{"prior knowledge":5,"curiosity":3},"accuracy":[],"trial_type":"survey","trial_index":47,"time_elapsed":391734,"internal_node_id":"0.0-3.0-1.10","prolific_id":"62e185f1375fa71f12753c64","session_id":"64399b6c3a02ab0f4357489a","study_id":"64370a36d30bfa807bc7e43c"},{"rt":null,"stimulus":"\n\t\t\t<div class=\"flip_card\">\n\t\t\t\t<div class=\"flip_card_inner\">\n\t\t\t\t\t<div class=\"flip_card_front\">\n\t\t\t\t\t\t<img src=img/22.png>\n\t\t\t\t\t</div>\n\t\t\t\t\t<div class=\"flip_card_back\">\n\t\t\t\t\t\t<h2>How many soccer players should each team have on the field at the start of each match?</h2>\n\t\t\t\t\t\t<br>\n\t\t\t\t\t\t<p>Answer: <strong>11</strong></p>\n\t\t\t\t\t</div>\n\t\t\t\t</div>\n\t\t\t</div>\n\t\t\t","response":null,"trial_type":"html-keyboard-response","trial_index":48,"time_elapsed":396743,"internal_node_id":"0.0-3.0-2.10","prolific_id":"62e185f1375fa71f12753c64","session_id":"64399b6c3a02ab0f4357489a","study_id":"64370a36d30bfa807bc7e43c"},{"rt":2632,"stimulus":"\n\t\t\t\t\t<div>\n\t\t\t\t\t<h2>Trial 11 is over</h2>\n\t\t\t\t\t<p>Press <span style=\"color: red\"><strong>any key</strong></span> to continue to the next trial</p>\n\t\t\t\t\t</div>\n\t\t\t\t","response":" ","trial_type":"html-keyboard-response","trial_index":49,"time_elapsed":399376,"internal_node_id":"0.0-3.0-3.10","prolific_id":"62e185f1375fa71f12753c64","session_id":"64399b6c3a02ab0f4357489a","study_id":"64370a36d30bfa807bc7e43c"},{"rt":6592,"response":{"prediction":"3"},"trial_type":"survey-text","trial_index":50,"time_elapsed":405970,"internal_node_id":"0.0-3.0-0.11","prolific_id":"62e185f1375fa71f12753c64","session_id":"64399b6c3a02ab0f4357489a","study_id":"64370a36d30bfa807bc7e43c"},{"rt":5322,"response":{"prior knowledge":0,"curiosity":4},"accuracy":[],"trial_type":"survey","trial_index":51,"time_elapsed":411310,"internal_node_id":"0.0-3.0-1.11","prolific_id":"62e185f1375fa71f12753c64","session_id":"64399b6c3a02ab0f4357489a","study_id":"64370a36d30bfa807bc7e43c"},{"rt":null,"stimulus":"\n\t\t\t<div class=\"flip_card\">\n\t\t\t\t<div class=\"flip_card_inner\">\n\t\t\t\t\t<div class=\"flip_card_front\">\n\t\t\t\t\t\t<img src=img/18.png>\n\t\t\t\t\t</div>\n\t\t\t\t\t<div class=\"flip_card_back\">\n\t\t\t\t\t\t<h2>How many moons does Neptune have?</h2>\n\t\t\t\t\t\t<br>\n\t\t\t\t\t\t<p>Answer: <strong>14</strong></p>\n\t\t\t\t\t</div>\n\t\t\t\t</div>\n\t\t\t</div>\n\t\t\t","response":null,"trial_type":"html-keyboard-response","trial_index":52,"time_elapsed":416316,"internal_node_id":"0.0-3.0-2.11","prolific_id":"62e185f1375fa71f12753c64","session_id":"64399b6c3a02ab0f4357489a","study_id":"64370a36d30bfa807bc7e43c"},{"rt":867,"stimulus":"\n\t\t\t\t\t<div>\n\t\t\t\t\t<h2>Trial 12 is over</h2>\n\t\t\t\t\t<p>Press <span style=\"color: red\"><strong>any key</strong></span> to continue to the next trial</p>\n\t\t\t\t\t</div>\n\t\t\t\t","response":" ","trial_type":"html-keyboard-response","trial_index":53,"time_elapsed":417183,"internal_node_id":"0.0-3.0-3.11","prolific_id":"62e185f1375fa71f12753c64","session_id":"64399b6c3a02ab0f4357489a","study_id":"64370a36d30bfa807bc7e43c"},{"rt":14080,"response":{"prediction":"1912"},"trial_type":"survey-text","trial_index":54,"time_elapsed":431265,"internal_node_id":"0.0-3.0-0.12","prolific_id":"62e185f1375fa71f12753c64","session_id":"64399b6c3a02ab0f4357489a","study_id":"64370a36d30bfa807bc7e43c"},{"rt":5820,"response":{"prior knowledge":0,"curiosity":5},"accuracy":[],"trial_type":"survey","trial_index":55,"time_elapsed":437105,"internal_node_id":"0.0-3.0-1.12","prolific_id":"62e185f1375fa71f12753c64","session_id":"64399b6c3a02ab0f4357489a","study_id":"64370a36d30bfa807bc7e43c"},{"rt":null,"stimulus":"\n\t\t\t<div class=\"flip_card\">\n\t\t\t\t<div class=\"flip_card_inner\">\n\t\t\t\t\t<div class=\"flip_card_front\">\n\t\t\t\t\t\t<img src=img/21.png>\n\t\t\t\t\t</div>\n\t\t\t\t\t<div class=\"flip_card_back\">\n\t\t\t\t\t\t<h2>What year did the titanic sink?</h2>\n\t\t\t\t\t\t<br>\n\t\t\t\t\t\t<p>Answer: <strong>1912</strong></p>\n\t\t\t\t\t</div>\n\t\t\t\t</div>\n\t\t\t</div>\n\t\t\t","response":null,"trial_type":"html-keyboard-response","trial_index":56,"time_elapsed":442110,"internal_node_id":"0.0-3.0-2.12","prolific_id":"62e185f1375fa71f12753c64","session_id":"64399b6c3a02ab0f4357489a","study_id":"64370a36d30bfa807bc7e43c"},{"rt":7445,"stimulus":"\n\t\t\t\t\t<div>\n\t\t\t\t\t<h2>Trial 13 is over</h2>\n\t\t\t\t\t<p>Press <span style=\"color: red\"><strong>any key</strong></span> to continue to the next trial</p>\n\t\t\t\t\t</div>\n\t\t\t\t","response":" ","trial_type":"html-keyboard-response","trial_index":57,"time_elapsed":449556,"internal_node_id":"0.0-3.0-3.12","prolific_id":"62e185f1375fa71f12753c64","session_id":"64399b6c3a02ab0f4357489a","study_id":"64370a36d30bfa807bc7e43c"},{"rt":8780,"response":{"prediction":"3"},"trial_type":"survey-text","trial_index":58,"time_elapsed":458339,"internal_node_id":"0.0-3.0-0.13","prolific_id":"62e185f1375fa71f12753c64","session_id":"64399b6c3a02ab0f4357489a","study_id":"64370a36d30bfa807bc7e43c"},{"rt":3163,"response":{"prior knowledge":0,"curiosity":0},"accuracy":[],"trial_type":"survey","trial_index":59,"time_elapsed":461519,"internal_node_id":"0.0-3.0-1.13","prolific_id":"62e185f1375fa71f12753c64","session_id":"64399b6c3a02ab0f4357489a","study_id":"64370a36d30bfa807bc7e43c"},{"rt":null,"stimulus":"\n\t\t\t<div class=\"flip_card\">\n\t\t\t\t<div class=\"flip_card_inner\">\n\t\t\t\t\t<div class=\"flip_card_front\">\n\t\t\t\t\t\t<img src=img/2.png>\n\t\t\t\t\t</div>\n\t\t\t\t\t<div class=\"flip_card_back\">\n\t\t\t\t\t\t<h2>How many lines are in a sonnet?</h2>\n\t\t\t\t\t\t<br>\n\t\t\t\t\t\t<p>Answer: <strong>14</strong></p>\n\t\t\t\t\t</div>\n\t\t\t\t</div>\n\t\t\t</div>\n\t\t\t","response":null,"trial_type":"html-keyboard-response","trial_index":60,"time_elapsed":466526,"internal_node_id":"0.0-3.0-2.13","prolific_id":"62e185f1375fa71f12753c64","session_id":"64399b6c3a02ab0f4357489a","study_id":"64370a36d30bfa807bc7e43c"},{"rt":881,"stimulus":"\n\t\t\t\t\t<div>\n\t\t\t\t\t<h2>Trial 14 is over</h2>\n\t\t\t\t\t<p>Press <span style=\"color: red\"><strong>any key</strong></span> to continue to the next trial</p>\n\t\t\t\t\t</div>\n\t\t\t\t","response":" ","trial_type":"html-keyboard-response","trial_index":61,"time_elapsed":467408,"internal_node_id":"0.0-3.0-3.13","prolific_id":"62e185f1375fa71f12753c64","session_id":"64399b6c3a02ab0f4357489a","study_id":"64370a36d30bfa807bc7e43c"},{"rt":11814,"response":{"prediction":"300"},"trial_type":"survey-text","trial_index":62,"time_elapsed":479224,"internal_node_id":"0.0-3.0-0.14","prolific_id":"62e185f1375fa71f12753c64","session_id":"64399b6c3a02ab0f4357489a","study_id":"64370a36d30bfa807bc7e43c"},{"rt":6042,"response":{"prior knowledge":0,"curiosity":4},"accuracy":[],"trial_type":"survey","trial_index":63,"time_elapsed":485285,"internal_node_id":"0.0-3.0-1.14","prolific_id":"62e185f1375fa71f12753c64","session_id":"64399b6c3a02ab0f4357489a","study_id":"64370a36d30bfa807bc7e43c"},{"rt":null,"stimulus":"\n\t\t\t<div class=\"flip_card\">\n\t\t\t\t<div class=\"flip_card_inner\">\n\t\t\t\t\t<div class=\"flip_card_front\">\n\t\t\t\t\t\t<img src=img/17.png>\n\t\t\t\t\t</div>\n\t\t\t\t\t<div class=\"flip_card_back\">\n\t\t\t\t\t\t<h2>What is the diameter of Earth in miles?</h2>\n\t\t\t\t\t\t<br>\n\t\t\t\t\t\t<p>Answer: <strong>7917.5</strong></p>\n\t\t\t\t\t</div>\n\t\t\t\t</div>\n\t\t\t</div>\n\t\t\t","response":null,"trial_type":"html-keyboard-response","trial_index":64,"time_elapsed":490287,"internal_node_id":"0.0-3.0-2.14","prolific_id":"62e185f1375fa71f12753c64","session_id":"64399b6c3a02ab0f4357489a","study_id":"64370a36d30bfa807bc7e43c"},{"rt":1625,"stimulus":"\n\t\t\t\t\t<div>\n\t\t\t\t\t<h2>Trial 15 is over</h2>\n\t\t\t\t\t<p>Press <span style=\"color: red\"><strong>any key</strong></span> to continue to the next trial</p>\n\t\t\t\t\t</div>\n\t\t\t\t","response":" ","trial_type":"html-keyboard-response","trial_index":65,"time_elapsed":491913,"internal_node_id":"0.0-3.0-3.14","prolific_id":"62e185f1375fa71f12753c64","session_id":"64399b6c3a02ab0f4357489a","study_id":"64370a36d30bfa807bc7e43c"},{"rt":4333,"response":{"prediction":"5"},"trial_type":"survey-text","trial_index":66,"time_elapsed":496248,"internal_node_id":"0.0-3.0-0.15","prolific_id":"62e185f1375fa71f12753c64","session_id":"64399b6c3a02ab0f4357489a","study_id":"64370a36d30bfa807bc7e43c"},{"rt":4340,"response":{"prior knowledge":0,"curiosity":3},"accuracy":[],"trial_type":"survey","trial_index":67,"time_elapsed":500607,"internal_node_id":"0.0-3.0-1.15","prolific_id":"62e185f1375fa71f12753c64","session_id":"64399b6c3a02ab0f4357489a","study_id":"64370a36d30bfa807bc7e43c"},{"rt":null,"stimulus":"\n\t\t\t<div class=\"flip_card\">\n\t\t\t\t<div class=\"flip_card_inner\">\n\t\t\t\t\t<div class=\"flip_card_front\">\n\t\t\t\t\t\t<img src=img/11.png>\n\t\t\t\t\t</div>\n\t\t\t\t\t<div class=\"flip_card_back\">\n\t\t\t\t\t\t<h2>How many main islands make up Japan?</h2>\n\t\t\t\t\t\t<br>\n\t\t\t\t\t\t<p>Answer: <strong>4</strong></p>\n\t\t\t\t\t</div>\n\t\t\t\t</div>\n\t\t\t</div>\n\t\t\t","response":null,"trial_type":"html-keyboard-response","trial_index":68,"time_elapsed":505615,"internal_node_id":"0.0-3.0-2.15","prolific_id":"62e185f1375fa71f12753c64","session_id":"64399b6c3a02ab0f4357489a","study_id":"64370a36d30bfa807bc7e43c"},{"rt":1279,"stimulus":"\n\t\t\t\t\t<div>\n\t\t\t\t\t<h2>Trial 16 is over</h2>\n\t\t\t\t\t<p>Press <span style=\"color: red\"><strong>any key</strong></span> to continue to the next trial</p>\n\t\t\t\t\t</div>\n\t\t\t\t","response":" ","trial_type":"html-keyboard-response","trial_index":69,"time_elapsed":506895,"internal_node_id":"0.0-3.0-3.15","prolific_id":"62e185f1375fa71f12753c64","session_id":"64399b6c3a02ab0f4357489a","study_id":"64370a36d30bfa807bc7e43c"},{"rt":9275,"response":{"prediction":"156"},"trial_type":"survey-text","trial_index":70,"time_elapsed":516172,"internal_node_id":"0.0-3.0-0.16","prolific_id":"62e185f1375fa71f12753c64","session_id":"64399b6c3a02ab0f4357489a","study_id":"64370a36d30bfa807bc7e43c"},{"rt":4097,"response":{"prior knowledge":0,"curiosity":4},"accuracy":[],"trial_type":"survey","trial_index":71,"time_elapsed":520287,"internal_node_id":"0.0-3.0-1.16","prolific_id":"62e185f1375fa71f12753c64","session_id":"64399b6c3a02ab0f4357489a","study_id":"64370a36d30bfa807bc7e43c"},{"rt":null,"stimulus":"\n\t\t\t<div class=\"flip_card\">\n\t\t\t\t<div class=\"flip_card_inner\">\n\t\t\t\t\t<div class=\"flip_card_front\">\n\t\t\t\t\t\t<img src=img/26.png>\n\t\t\t\t\t</div>\n\t\t\t\t\t<div class=\"flip_card_back\">\n\t\t\t\t\t\t<h2>How many floors are in the Burj Khalifa, the tallest building in the world?</h2>\n\t\t\t\t\t\t<br>\n\t\t\t\t\t\t<p>Answer: <strong>163</strong></p>\n\t\t\t\t\t</div>\n\t\t\t\t</div>\n\t\t\t</div>\n\t\t\t","response":null,"trial_type":"html-keyboard-response","trial_index":72,"time_elapsed":525294,"internal_node_id":"0.0-3.0-2.16","prolific_id":"62e185f1375fa71f12753c64","session_id":"64399b6c3a02ab0f4357489a","study_id":"64370a36d30bfa807bc7e43c"},{"rt":892,"stimulus":"\n\t\t\t\t\t<div>\n\t\t\t\t\t<h2>Trial 17 is over</h2>\n\t\t\t\t\t<p>Press <span style=\"color: red\"><strong>any key</strong></span> to continue to the next trial</p>\n\t\t\t\t\t</div>\n\t\t\t\t","response":" ","trial_type":"html-keyboard-response","trial_index":73,"time_elapsed":526187,"internal_node_id":"0.0-3.0-3.16","prolific_id":"62e185f1375fa71f12753c64","session_id":"64399b6c3a02ab0f4357489a","study_id":"64370a36d30bfa807bc7e43c"},{"rt":21697,"response":{"prediction":"1989"},"trial_type":"survey-text","trial_index":74,"time_elapsed":547887,"internal_node_id":"0.0-3.0-0.17","prolific_id":"62e185f1375fa71f12753c64","session_id":"64399b6c3a02ab0f4357489a","study_id":"64370a36d30bfa807bc7e43c"},{"rt":7061,"response":{"prior knowledge":2,"curiosity":5},"accuracy":[],"trial_type":"survey","trial_index":75,"time_elapsed":554966,"internal_node_id":"0.0-3.0-1.17","prolific_id":"62e185f1375fa71f12753c64","session_id":"64399b6c3a02ab0f4357489a","study_id":"64370a36d30bfa807bc7e43c"},{"rt":null,"stimulus":"\n\t\t\t<div class=\"flip_card\">\n\t\t\t\t<div class=\"flip_card_inner\">\n\t\t\t\t\t<div class=\"flip_card_front\">\n\t\t\t\t\t\t<img src=img/14.png>\n\t\t\t\t\t</div>\n\t\t\t\t\t<div class=\"flip_card_back\">\n\t\t\t\t\t\t<h2>What year did the Berlin Wall fall?</h2>\n\t\t\t\t\t\t<br>\n\t\t\t\t\t\t<p>Answer: <strong>1989</strong></p>\n\t\t\t\t\t</div>\n\t\t\t\t</div>\n\t\t\t</div>\n\t\t\t","response":null,"trial_type":"html-keyboard-response","trial_index":76,"time_elapsed":559978,"internal_node_id":"0.0-3.0-2.17","prolific_id":"62e185f1375fa71f12753c64","session_id":"64399b6c3a02ab0f4357489a","study_id":"64370a36d30bfa807bc7e43c"},{"rt":1607,"stimulus":"\n\t\t\t\t\t<div>\n\t\t\t\t\t<h2>Trial 18 is over</h2>\n\t\t\t\t\t<p>Press <span style=\"color: red\"><strong>any key</strong></span> to continue to the next trial</p>\n\t\t\t\t\t</div>\n\t\t\t\t","response":" ","trial_type":"html-keyboard-response","trial_index":77,"time_elapsed":561586,"internal_node_id":"0.0-3.0-3.17","prolific_id":"62e185f1375fa71f12753c64","session_id":"64399b6c3a02ab0f4357489a","study_id":"64370a36d30bfa807bc7e43c"},{"rt":5252,"response":{"prediction":"6"},"trial_type":"survey-text","trial_index":78,"time_elapsed":566841,"internal_node_id":"0.0-3.0-0.18","prolific_id":"62e185f1375fa71f12753c64","session_id":"64399b6c3a02ab0f4357489a","study_id":"64370a36d30bfa807bc7e43c"},{"rt":3460,"response":{"prior knowledge":0,"curiosity":1},"accuracy":[],"trial_type":"survey","trial_index":79,"time_elapsed":570319,"internal_node_id":"0.0-3.0-1.18","prolific_id":"62e185f1375fa71f12753c64","session_id":"64399b6c3a02ab0f4357489a","study_id":"64370a36d30bfa807bc7e43c"},{"rt":null,"stimulus":"\n\t\t\t<div class=\"flip_card\">\n\t\t\t\t<div class=\"flip_card_inner\">\n\t\t\t\t\t<div class=\"flip_card_front\">\n\t\t\t\t\t\t<img src=img/27.png>\n\t\t\t\t\t</div>\n\t\t\t\t\t<div class=\"flip_card_back\">\n\t\t\t\t\t\t<h2>How many tones are in the Vietnamese language?</h2>\n\t\t\t\t\t\t<br>\n\t\t\t\t\t\t<p>Answer: <strong>6</strong></p>\n\t\t\t\t\t</div>\n\t\t\t\t</div>\n\t\t\t</div>\n\t\t\t","response":null,"trial_type":"html-keyboard-response","trial_index":80,"time_elapsed":575326,"internal_node_id":"0.0-3.0-2.18","prolific_id":"62e185f1375fa71f12753c64","session_id":"64399b6c3a02ab0f4357489a","study_id":"64370a36d30bfa807bc7e43c"},{"rt":1089,"stimulus":"\n\t\t\t\t\t<div>\n\t\t\t\t\t<h2>Trial 19 is over</h2>\n\t\t\t\t\t<p>Press <span style=\"color: red\"><strong>any key</strong></span> to continue to the next trial</p>\n\t\t\t\t\t</div>\n\t\t\t\t","response":" ","trial_type":"html-keyboard-response","trial_index":81,"time_elapsed":576416,"internal_node_id":"0.0-3.0-3.18","prolific_id":"62e185f1375fa71f12753c64","session_id":"64399b6c3a02ab0f4357489a","study_id":"64370a36d30bfa807bc7e43c"},{"rt":7270,"response":{"prediction":"12"},"trial_type":"survey-text","trial_index":82,"time_elapsed":583689,"internal_node_id":"0.0-3.0-0.19","prolific_id":"62e185f1375fa71f12753c64","session_id":"64399b6c3a02ab0f4357489a","study_id":"64370a36d30bfa807bc7e43c"},{"rt":3993,"response":{"prior knowledge":3,"curiosity":3},"accuracy":[],"trial_type":"survey","trial_index":83,"time_elapsed":587701,"internal_node_id":"0.0-3.0-1.19","prolific_id":"62e185f1375fa71f12753c64","session_id":"64399b6c3a02ab0f4357489a","study_id":"64370a36d30bfa807bc7e43c"},{"rt":null,"stimulus":"\n\t\t\t<div class=\"flip_card\">\n\t\t\t\t<div class=\"flip_card_inner\">\n\t\t\t\t\t<div class=\"flip_card_front\">\n\t\t\t\t\t\t<img src=img/12.png>\n\t\t\t\t\t</div>\n\t\t\t\t\t<div class=\"flip_card_back\">\n\t\t\t\t\t\t<h2>How much is in a Baker's Dozen?</h2>\n\t\t\t\t\t\t<br>\n\t\t\t\t\t\t<p>Answer: <strong>13</strong></p>\n\t\t\t\t\t</div>\n\t\t\t\t</div>\n\t\t\t</div>\n\t\t\t","response":null,"trial_type":"html-keyboard-response","trial_index":84,"time_elapsed":592709,"internal_node_id":"0.0-3.0-2.19","prolific_id":"62e185f1375fa71f12753c64","session_id":"64399b6c3a02ab0f4357489a","study_id":"64370a36d30bfa807bc7e43c"},{"rt":1552,"stimulus":"\n\t\t\t\t\t<div>\n\t\t\t\t\t<h2>Trial 20 is over</h2>\n\t\t\t\t\t<p>Press <span style=\"color: red\"><strong>any key</strong></span> to continue to the next trial</p>\n\t\t\t\t\t</div>\n\t\t\t\t","response":" ","trial_type":"html-keyboard-response","trial_index":85,"time_elapsed":594261,"internal_node_id":"0.0-3.0-3.19","prolific_id":"62e185f1375fa71f12753c64","session_id":"64399b6c3a02ab0f4357489a","study_id":"64370a36d30bfa807bc7e43c"},{"rt":8795,"response":{"prediction":"16"},"trial_type":"survey-text","trial_index":86,"time_elapsed":603057,"internal_node_id":"0.0-3.0-0.20","prolific_id":"62e185f1375fa71f12753c64","session_id":"64399b6c3a02ab0f4357489a","study_id":"64370a36d30bfa807bc7e43c"},{"rt":6210,"response":{"prior knowledge":0,"curiosity":0},"accuracy":[],"trial_type":"survey","trial_index":87,"time_elapsed":609285,"internal_node_id":"0.0-3.0-1.20","prolific_id":"62e185f1375fa71f12753c64","session_id":"64399b6c3a02ab0f4357489a","study_id":"64370a36d30bfa807bc7e43c"},{"rt":null,"stimulus":"\n\t\t\t<div class=\"flip_card\">\n\t\t\t\t<div class=\"flip_card_inner\">\n\t\t\t\t\t<div class=\"flip_card_front\">\n\t\t\t\t\t\t<img src=img/28.png>\n\t\t\t\t\t</div>\n\t\t\t\t\t<div class=\"flip_card_back\">\n\t\t\t\t\t\t<h2>A bar mitzvah is traditionally celebrated when Jewish males turn what age?</h2>\n\t\t\t\t\t\t<br>\n\t\t\t\t\t\t<p>Answer: <strong>13</strong></p>\n\t\t\t\t\t</div>\n\t\t\t\t</div>\n\t\t\t</div>\n\t\t\t","response":null,"trial_type":"html-keyboard-response","trial_index":88,"time_elapsed":614297,"internal_node_id":"0.0-3.0-2.20","prolific_id":"62e185f1375fa71f12753c64","session_id":"64399b6c3a02ab0f4357489a","study_id":"64370a36d30bfa807bc7e43c"},{"rt":913,"stimulus":"\n\t\t\t\t\t<div>\n\t\t\t\t\t<h2>Trial 21 is over</h2>\n\t\t\t\t\t<p>Press <span style=\"color: red\"><strong>any key</strong></span> to continue to the next trial</p>\n\t\t\t\t\t</div>\n\t\t\t\t","response":" ","trial_type":"html-keyboard-response","trial_index":89,"time_elapsed":615211,"internal_node_id":"0.0-3.0-3.20","prolific_id":"62e185f1375fa71f12753c64","session_id":"64399b6c3a02ab0f4357489a","study_id":"64370a36d30bfa807bc7e43c"},{"rt":10042,"response":{"prediction":"2007"},"trial_type":"survey-text","trial_index":90,"time_elapsed":625255,"internal_node_id":"0.0-3.0-0.21","prolific_id":"62e185f1375fa71f12753c64","session_id":"64399b6c3a02ab0f4357489a","study_id":"64370a36d30bfa807bc7e43c"},{"rt":5000,"response":{"prior knowledge":0,"curiosity":4},"accuracy":[],"trial_type":"survey","trial_index":91,"time_elapsed":630274,"internal_node_id":"0.0-3.0-1.21","prolific_id":"62e185f1375fa71f12753c64","session_id":"64399b6c3a02ab0f4357489a","study_id":"64370a36d30bfa807bc7e43c"},{"rt":null,"stimulus":"\n\t\t\t<div class=\"flip_card\">\n\t\t\t\t<div class=\"flip_card_inner\">\n\t\t\t\t\t<div class=\"flip_card_front\">\n\t\t\t\t\t\t<img src=img/13.png>\n\t\t\t\t\t</div>\n\t\t\t\t\t<div class=\"flip_card_back\">\n\t\t\t\t\t\t<h2>What year was the very first model of the iPhone released?</h2>\n\t\t\t\t\t\t<br>\n\t\t\t\t\t\t<p>Answer: <strong>2007</strong></p>\n\t\t\t\t\t</div>\n\t\t\t\t</div>\n\t\t\t</div>\n\t\t\t","response":null,"trial_type":"html-keyboard-response","trial_index":92,"time_elapsed":635282,"internal_node_id":"0.0-3.0-2.21","prolific_id":"62e185f1375fa71f12753c64","session_id":"64399b6c3a02ab0f4357489a","study_id":"64370a36d30bfa807bc7e43c"},{"rt":1084,"stimulus":"\n\t\t\t\t\t<div>\n\t\t\t\t\t<h2>Trial 22 is over</h2>\n\t\t\t\t\t<p>Press <span style=\"color: red\"><strong>any key</strong></span> to continue to the next trial</p>\n\t\t\t\t\t</div>\n\t\t\t\t","response":" ","trial_type":"html-keyboard-response","trial_index":93,"time_elapsed":636366,"internal_node_id":"0.0-3.0-3.21","prolific_id":"62e185f1375fa71f12753c64","session_id":"64399b6c3a02ab0f4357489a","study_id":"64370a36d30bfa807bc7e43c"},{"rt":6859,"response":{"prediction":"1917"},"trial_type":"survey-text","trial_index":94,"time_elapsed":643227,"internal_node_id":"0.0-3.0-0.22","prolific_id":"62e185f1375fa71f12753c64","session_id":"64399b6c3a02ab0f4357489a","study_id":"64370a36d30bfa807bc7e43c"},{"rt":3364,"response":{"prior knowledge":0,"curiosity":1},"accuracy":[],"trial_type":"survey","trial_index":95,"time_elapsed":646610,"internal_node_id":"0.0-3.0-1.22","prolific_id":"62e185f1375fa71f12753c64","session_id":"64399b6c3a02ab0f4357489a","study_id":"64370a36d30bfa807bc7e43c"},{"rt":null,"stimulus":"\n\t\t\t<div class=\"flip_card\">\n\t\t\t\t<div class=\"flip_card_inner\">\n\t\t\t\t\t<div class=\"flip_card_front\">\n\t\t\t\t\t\t<img src=img/25.png>\n\t\t\t\t\t</div>\n\t\t\t\t\t<div class=\"flip_card_back\">\n\t\t\t\t\t\t<h2>In what year was the Mexican artist Frida Kahlo born?</h2>\n\t\t\t\t\t\t<br>\n\t\t\t\t\t\t<p>Answer: <strong>1907</strong></p>\n\t\t\t\t\t</div>\n\t\t\t\t</div>\n\t\t\t</div>\n\t\t\t","response":null,"trial_type":"html-keyboard-response","trial_index":96,"time_elapsed":651613,"internal_node_id":"0.0-3.0-2.22","prolific_id":"62e185f1375fa71f12753c64","session_id":"64399b6c3a02ab0f4357489a","study_id":"64370a36d30bfa807bc7e43c"},{"rt":265,"stimulus":"\n\t\t\t\t\t<div>\n\t\t\t\t\t<h2>Trial 23 is over</h2>\n\t\t\t\t\t<p>Press <span style=\"color: red\"><strong>any key</strong></span> to continue to the next trial</p>\n\t\t\t\t\t</div>\n\t\t\t\t","response":" ","trial_type":"html-keyboard-response","trial_index":97,"time_elapsed":651878,"internal_node_id":"0.0-3.0-3.22","prolific_id":"62e185f1375fa71f12753c64","session_id":"64399b6c3a02ab0f4357489a","study_id":"64370a36d30bfa807bc7e43c"},{"rt":5912,"response":{"prediction":"121"},"trial_type":"survey-text","trial_index":98,"time_elapsed":657792,"internal_node_id":"0.0-3.0-0.23","prolific_id":"62e185f1375fa71f12753c64","session_id":"64399b6c3a02ab0f4357489a","study_id":"64370a36d30bfa807bc7e43c"},{"rt":3291,"response":{"prior knowledge":0,"curiosity":0},"accuracy":[],"trial_type":"survey","trial_index":99,"time_elapsed":661102,"internal_node_id":"0.0-3.0-1.23","prolific_id":"62e185f1375fa71f12753c64","session_id":"64399b6c3a02ab0f4357489a","study_id":"64370a36d30bfa807bc7e43c"},{"rt":null,"stimulus":"\n\t\t\t<div class=\"flip_card\">\n\t\t\t\t<div class=\"flip_card_inner\">\n\t\t\t\t\t<div class=\"flip_card_front\">\n\t\t\t\t\t\t<img src=img/1.png>\n\t\t\t\t\t</div>\n\t\t\t\t\t<div class=\"flip_card_back\">\n\t\t\t\t\t\t<h2>How old was King Tut when he died?</h2>\n\t\t\t\t\t\t<br>\n\t\t\t\t\t\t<p>Answer: <strong>19</strong></p>\n\t\t\t\t\t</div>\n\t\t\t\t</div>\n\t\t\t</div>\n\t\t\t","response":null,"trial_type":"html-keyboard-response","trial_index":100,"time_elapsed":666114,"internal_node_id":"0.0-3.0-2.23","prolific_id":"62e185f1375fa71f12753c64","session_id":"64399b6c3a02ab0f4357489a","study_id":"64370a36d30bfa807bc7e43c"},{"rt":713,"stimulus":"\n\t\t\t\t\t<div>\n\t\t\t\t\t<h2>Trial 24 is over</h2>\n\t\t\t\t\t<p>Press <span style=\"color: red\"><strong>any key</strong></span> to continue to the next trial</p>\n\t\t\t\t\t</div>\n\t\t\t\t","response":" ","trial_type":"html-keyboard-response","trial_index":101,"time_elapsed":666827,"internal_node_id":"0.0-3.0-3.23","prolific_id":"62e185f1375fa71f12753c64","session_id":"64399b6c3a02ab0f4357489a","study_id":"64370a36d30bfa807bc7e43c"},{"rt":8954,"response":{"prediction":"134"},"trial_type":"survey-text","trial_index":102,"time_elapsed":675783,"internal_node_id":"0.0-3.0-0.24","prolific_id":"62e185f1375fa71f12753c64","session_id":"64399b6c3a02ab0f4357489a","study_id":"64370a36d30bfa807bc7e43c"},{"rt":3197,"response":{"prior knowledge":0,"curiosity":0},"accuracy":[],"trial_type":"survey","trial_index":103,"time_elapsed":678998,"internal_node_id":"0.0-3.0-1.24","prolific_id":"62e185f1375fa71f12753c64","session_id":"64399b6c3a02ab0f4357489a","study_id":"64370a36d30bfa807bc7e43c"},{"rt":null,"stimulus":"\n\t\t\t<div class=\"flip_card\">\n\t\t\t\t<div class=\"flip_card_inner\">\n\t\t\t\t\t<div class=\"flip_card_front\">\n\t\t\t\t\t\t<img src=img/20.png>\n\t\t\t\t\t</div>\n\t\t\t\t\t<div class=\"flip_card_back\">\n\t\t\t\t\t\t<h2>How many bones is a human baby born with?</h2>\n\t\t\t\t\t\t<br>\n\t\t\t\t\t\t<p>Answer: <strong>300</strong></p>\n\t\t\t\t\t</div>\n\t\t\t\t</div>\n\t\t\t</div>\n\t\t\t","response":null,"trial_type":"html-keyboard-response","trial_index":104,"time_elapsed":684009,"internal_node_id":"0.0-3.0-2.24","prolific_id":"62e185f1375fa71f12753c64","session_id":"64399b6c3a02ab0f4357489a","study_id":"64370a36d30bfa807bc7e43c"},{"rt":1108,"stimulus":"\n\t\t\t\t\t<div>\n\t\t\t\t\t<h2>Trial 25 is over</h2>\n\t\t\t\t\t<p>Press <span style=\"color: red\"><strong>any key</strong></span> to continue to the next trial</p>\n\t\t\t\t\t</div>\n\t\t\t\t","response":" ","trial_type":"html-keyboard-response","trial_index":105,"time_elapsed":685119,"internal_node_id":"0.0-3.0-3.24","prolific_id":"62e185f1375fa71f12753c64","session_id":"64399b6c3a02ab0f4357489a","study_id":"64370a36d30bfa807bc7e43c"},{"rt":4062,"response":{"prediction":"20"},"trial_type":"survey-text","trial_index":106,"time_elapsed":689183,"internal_node_id":"0.0-3.0-0.25","prolific_id":"62e185f1375fa71f12753c64","session_id":"64399b6c3a02ab0f4357489a","study_id":"64370a36d30bfa807bc7e43c"},{"rt":6022,"response":{"prior knowledge":0,"curiosity":2},"accuracy":[],"trial_type":"survey","trial_index":107,"time_elapsed":695225,"internal_node_id":"0.0-3.0-1.25","prolific_id":"62e185f1375fa71f12753c64","session_id":"64399b6c3a02ab0f4357489a","study_id":"64370a36d30bfa807bc7e43c"},{"rt":null,"stimulus":"\n\t\t\t<div class=\"flip_card\">\n\t\t\t\t<div class=\"flip_card_inner\">\n\t\t\t\t\t<div class=\"flip_card_front\">\n\t\t\t\t\t\t<img src=img/7.png>\n\t\t\t\t\t</div>\n\t\t\t\t\t<div class=\"flip_card_back\">\n\t\t\t\t\t\t<h2>How many books has Stephen King published?</h2>\n\t\t\t\t\t\t<br>\n\t\t\t\t\t\t<p>Answer: <strong>65</strong></p>\n\t\t\t\t\t</div>\n\t\t\t\t</div>\n\t\t\t</div>\n\t\t\t","response":null,"trial_type":"html-keyboard-response","trial_index":108,"time_elapsed":700233,"internal_node_id":"0.0-3.0-2.25","prolific_id":"62e185f1375fa71f12753c64","session_id":"64399b6c3a02ab0f4357489a","study_id":"64370a36d30bfa807bc7e43c"},{"rt":413,"stimulus":"\n\t\t\t\t\t<div>\n\t\t\t\t\t<h2>Trial 26 is over</h2>\n\t\t\t\t\t<p>Press <span style=\"color: red\"><strong>any key</strong></span> to continue to the next trial</p>\n\t\t\t\t\t</div>\n\t\t\t\t","response":" ","trial_type":"html-keyboard-response","trial_index":109,"time_elapsed":700647,"internal_node_id":"0.0-3.0-3.25","prolific_id":"62e185f1375fa71f12753c64","session_id":"64399b6c3a02ab0f4357489a","study_id":"64370a36d30bfa807bc7e43c"},{"rt":9372,"response":{"prediction":"1935"},"trial_type":"survey-text","trial_index":110,"time_elapsed":710021,"internal_node_id":"0.0-3.0-0.26","prolific_id":"62e185f1375fa71f12753c64","session_id":"64399b6c3a02ab0f4357489a","study_id":"64370a36d30bfa807bc7e43c"},{"rt":3922,"response":{"prior knowledge":0,"curiosity":3},"accuracy":[],"trial_type":"survey","trial_index":111,"time_elapsed":713962,"internal_node_id":"0.0-3.0-1.26","prolific_id":"62e185f1375fa71f12753c64","session_id":"64399b6c3a02ab0f4357489a","study_id":"64370a36d30bfa807bc7e43c"},{"rt":null,"stimulus":"\n\t\t\t<div class=\"flip_card\">\n\t\t\t\t<div class=\"flip_card_inner\">\n\t\t\t\t\t<div class=\"flip_card_front\">\n\t\t\t\t\t\t<img src=img/19.png>\n\t\t\t\t\t</div>\n\t\t\t\t\t<div class=\"flip_card_back\">\n\t\t\t\t\t\t<h2>In what year was the first Nobel Prize awarded?</h2>\n\t\t\t\t\t\t<br>\n\t\t\t\t\t\t<p>Answer: <strong>1901</strong></p>\n\t\t\t\t\t</div>\n\t\t\t\t</div>\n\t\t\t</div>\n\t\t\t","response":null,"trial_type":"html-keyboard-response","trial_index":112,"time_elapsed":718969,"internal_node_id":"0.0-3.0-2.26","prolific_id":"62e185f1375fa71f12753c64","session_id":"64399b6c3a02ab0f4357489a","study_id":"64370a36d30bfa807bc7e43c"},{"rt":413,"stimulus":"\n\t\t\t\t\t<div>\n\t\t\t\t\t<h2>Trial 27 is over</h2>\n\t\t\t\t\t<p>Press <span style=\"color: red\"><strong>any key</strong></span> to continue to the next trial</p>\n\t\t\t\t\t</div>\n\t\t\t\t","response":" ","trial_type":"html-keyboard-response","trial_index":113,"time_elapsed":719383,"internal_node_id":"0.0-3.0-3.26","prolific_id":"62e185f1375fa71f12753c64","session_id":"64399b6c3a02ab0f4357489a","study_id":"64370a36d30bfa807bc7e43c"},{"rt":5078,"response":{"prediction":"300"},"trial_type":"survey-text","trial_index":114,"time_elapsed":724463,"internal_node_id":"0.0-3.0-0.27","prolific_id":"62e185f1375fa71f12753c64","session_id":"64399b6c3a02ab0f4357489a","study_id":"64370a36d30bfa807bc7e43c"},{"rt":3315,"response":{"prior knowledge":0,"curiosity":2},"accuracy":[],"trial_type":"survey","trial_index":115,"time_elapsed":727796,"internal_node_id":"0.0-3.0-1.27","prolific_id":"62e185f1375fa71f12753c64","session_id":"64399b6c3a02ab0f4357489a","study_id":"64370a36d30bfa807bc7e43c"},{"rt":null,"stimulus":"\n\t\t\t<div class=\"flip_card\">\n\t\t\t\t<div class=\"flip_card_inner\">\n\t\t\t\t\t<div class=\"flip_card_front\">\n\t\t\t\t\t\t<img src=img/3.png>\n\t\t\t\t\t</div>\n\t\t\t\t\t<div class=\"flip_card_back\">\n\t\t\t\t\t\t<h2>How long is the Great Wall of China (in miles)?</h2>\n\t\t\t\t\t\t<br>\n\t\t\t\t\t\t<p>Answer: <strong>13171</strong></p>\n\t\t\t\t\t</div>\n\t\t\t\t</div>\n\t\t\t</div>\n\t\t\t","response":null,"trial_type":"html-keyboard-response","trial_index":116,"time_elapsed":732809,"internal_node_id":"0.0-3.0-2.27","prolific_id":"62e185f1375fa71f12753c64","session_id":"64399b6c3a02ab0f4357489a","study_id":"64370a36d30bfa807bc7e43c"},{"rt":4986,"stimulus":"\n\t\t\t\t\t<div>\n\t\t\t\t\t<h2>Trial 28 is over</h2>\n\t\t\t\t\t<p>Press <span style=\"color: red\"><strong>any key</strong></span> to continue to the next trial</p>\n\t\t\t\t\t</div>\n\t\t\t\t","response":" ","trial_type":"html-keyboard-response","trial_index":117,"time_elapsed":737796,"internal_node_id":"0.0-3.0-3.27","prolific_id":"62e185f1375fa71f12753c64","session_id":"64399b6c3a02ab0f4357489a","study_id":"64370a36d30bfa807bc7e43c"},{"rt":7647,"response":{"prediction":"4"},"trial_type":"survey-text","trial_index":118,"time_elapsed":745444,"internal_node_id":"0.0-3.0-0.28","prolific_id":"62e185f1375fa71f12753c64","session_id":"64399b6c3a02ab0f4357489a","study_id":"64370a36d30bfa807bc7e43c"},{"rt":4871,"response":{"prior knowledge":0,"curiosity":1},"accuracy":[],"trial_type":"survey","trial_index":119,"time_elapsed":750334,"internal_node_id":"0.0-3.0-1.28","prolific_id":"62e185f1375fa71f12753c64","session_id":"64399b6c3a02ab0f4357489a","study_id":"64370a36d30bfa807bc7e43c"},{"rt":null,"stimulus":"\n\t\t\t<div class=\"flip_card\">\n\t\t\t\t<div class=\"flip_card_inner\">\n\t\t\t\t\t<div class=\"flip_card_front\">\n\t\t\t\t\t\t<img src=img/4.png>\n\t\t\t\t\t</div>\n\t\t\t\t\t<div class=\"flip_card_back\">\n\t\t\t\t\t\t<h2>How many double stitches does a baseball have?</h2>\n\t\t\t\t\t\t<br>\n\t\t\t\t\t\t<p>Answer: <strong>108</strong></p>\n\t\t\t\t\t</div>\n\t\t\t\t</div>\n\t\t\t</div>\n\t\t\t","response":null,"trial_type":"html-keyboard-response","trial_index":120,"time_elapsed":755345,"internal_node_id":"0.0-3.0-2.28","prolific_id":"62e185f1375fa71f12753c64","session_id":"64399b6c3a02ab0f4357489a","study_id":"64370a36d30bfa807bc7e43c"},{"rt":1125,"stimulus":"\n\t\t\t\t\t<div>\n\t\t\t\t\t<h2>Trial 29 is over</h2>\n\t\t\t\t\t<p>Press <span style=\"color: red\"><strong>any key</strong></span> to continue to the next trial</p>\n\t\t\t\t\t</div>\n\t\t\t\t","response":" ","trial_type":"html-keyboard-response","trial_index":121,"time_elapsed":756471,"internal_node_id":"0.0-3.0-3.28","prolific_id":"62e185f1375fa71f12753c64","session_id":"64399b6c3a02ab0f4357489a","study_id":"64370a36d30bfa807bc7e43c"},{"rt":3897,"response":{"prediction":"100"},"trial_type":"survey-text","trial_index":122,"time_elapsed":760368,"internal_node_id":"0.0-3.0-0.29","prolific_id":"62e185f1375fa71f12753c64","session_id":"64399b6c3a02ab0f4357489a","study_id":"64370a36d30bfa807bc7e43c"},{"rt":2823,"response":{"prior knowledge":0,"curiosity":1},"accuracy":[],"trial_type":"survey","trial_index":123,"time_elapsed":763211,"internal_node_id":"0.0-3.0-1.29","prolific_id":"62e185f1375fa71f12753c64","session_id":"64399b6c3a02ab0f4357489a","study_id":"64370a36d30bfa807bc7e43c"},{"rt":null,"stimulus":"\n\t\t\t<div class=\"flip_card\">\n\t\t\t\t<div class=\"flip_card_inner\">\n\t\t\t\t\t<div class=\"flip_card_front\">\n\t\t\t\t\t\t<img src=img/10.png>\n\t\t\t\t\t</div>\n\t\t\t\t\t<div class=\"flip_card_back\">\n\t\t\t\t\t\t<h2>How many constellations are there?</h2>\n\t\t\t\t\t\t<br>\n\t\t\t\t\t\t<p>Answer: <strong>88</strong></p>\n\t\t\t\t\t</div>\n\t\t\t\t</div>\n\t\t\t</div>\n\t\t\t","response":null,"trial_type":"html-keyboard-response","trial_index":124,"time_elapsed":768223,"internal_node_id":"0.0-3.0-2.29","prolific_id":"62e185f1375fa71f12753c64","session_id":"64399b6c3a02ab0f4357489a","study_id":"64370a36d30bfa807bc7e43c"},{"rt":526,"stimulus":"\n\t\t\t\t\t<div>\n\t\t\t\t\t<h2>Trial 30 is over</h2>\n\t\t\t\t\t<p>Press <span style=\"color: red\"><strong>any key</strong></span> to continue to the next trial</p>\n\t\t\t\t\t</div>\n\t\t\t\t","response":" ","trial_type":"html-keyboard-response","trial_index":125,"time_elapsed":768749,"internal_node_id":"0.0-3.0-3.29","prolific_id":"62e185f1375fa71f12753c64","session_id":"64399b6c3a02ab0f4357489a","study_id":"64370a36d30bfa807bc7e43c"},{"rt":22221,"stimulus":"\n\t\t\t<h2>Good job! You've finished the 30 trials:p</h2>\n\t\t\t<p>In the next session, you will see two cards on the screen in each trial.</p>\n\t\t\t<p>On one card is a pattern that you have seen before in the experiment,\n\t\t\t\tand on the other card is one you have not seen.</p><br>\n\t\t\t<p>Your task is to choose the one you think you <em>have</em> seen before for every trial.</p>\n\t\t\t<p>Press '<span style=\"color: red;\"><strong>F</strong></span>' to choose the card on the left,\n\t\t\t\tand '<span style=\"color: red;\"><strong>J</strong></span>' to choose the card on the right.</p>\n\t\t\t<p>Have fun!</p>\n\t\t\t<br>\n\t\t\t<p>The trials will begin in 30 seconds</p>\n\t\t\t","response":" ","trial_type":"html-keyboard-response","trial_index":126,"time_elapsed":790972,"internal_node_id":"0.0-4.0","prolific_id":"62e185f1375fa71f12753c64","session_id":"64399b6c3a02ab0f4357489a","study_id":"64370a36d30bfa807bc7e43c"},{"rt":3062,"stimulus":"\n\t\t\t\t\t\t<div class=\"two_card_container\">\n\t\t\t\t\t\t<div class=\"card_container\">\n\t\t\t\t\t\t<img src=img/32.png>\n\t\t\t\t\t\t</div>\n\n\t\t\t\t\t\t<div class=\"card_container\">\n\t\t\t\t\t\t<img src=img/18.png>\n\t\t\t\t\t\t</div>","response":"j","task":"response","correct_response":"j","trial_type":"html-keyboard-response","trial_index":127,"time_elapsed":794036,"internal_node_id":"0.0-5.0-0.0","prolific_id":"62e185f1375fa71f12753c64","session_id":"64399b6c3a02ab0f4357489a","study_id":"64370a36d30bfa807bc7e43c","correct":true},{"rt":null,"stimulus":"\n\t\t\t\t\t<p>Correct!</p>\n\t\t\t\t\t","response":null,"trial_type":"html-keyboard-response","trial_index":128,"time_elapsed":795046,"internal_node_id":"0.0-5.0-1.0","prolific_id":"62e185f1375fa71f12753c64","session_id":"64399b6c3a02ab0f4357489a","study_id":"64370a36d30bfa807bc7e43c"},{"rt":2255,"stimulus":"\n\t\t\t\t\t\t<div class=\"two_card_container\">\n\t\t\t\t\t\t<div class=\"card_container\">\n\t\t\t\t\t\t<img src=img/34.png>\n\t\t\t\t\t\t</div>\n\n\t\t\t\t\t\t<div class=\"card_container\">\n\t\t\t\t\t\t<img src=img/27.png>\n\t\t\t\t\t\t</div>","response":"j","task":"response","correct_response":"j","trial_type":"html-keyboard-response","trial_index":129,"time_elapsed":797302,"internal_node_id":"0.0-5.0-0.1","prolific_id":"62e185f1375fa71f12753c64","session_id":"64399b6c3a02ab0f4357489a","study_id":"64370a36d30bfa807bc7e43c","correct":true},{"rt":null,"stimulus":"\n\t\t\t\t\t<p>Correct!</p>\n\t\t\t\t\t","response":null,"trial_type":"html-keyboard-response","trial_index":130,"time_elapsed":798308,"internal_node_id":"0.0-5.0-1.1","prolific_id":"62e185f1375fa71f12753c64","session_id":"64399b6c3a02ab0f4357489a","study_id":"64370a36d30bfa807bc7e43c"},{"rt":1653,"stimulus":"\n\t\t\t\t\t\t<div class=\"two_card_container\">\n\t\t\t\t\t\t<div class=\"card_container\">\n\t\t\t\t\t\t<img src=img/9.png>\n\t\t\t\t\t\t</div>\n\n\t\t\t\t\t\t<div class=\"card_container\">\n\t\t\t\t\t\t<img src=img/37.png>\n\t\t\t\t\t\t</div>","response":"f","task":"response","correct_response":"f","trial_type":"html-keyboard-response","trial_index":131,"time_elapsed":799962,"internal_node_id":"0.0-5.0-0.2","prolific_id":"62e185f1375fa71f12753c64","session_id":"64399b6c3a02ab0f4357489a","study_id":"64370a36d30bfa807bc7e43c","correct":true},{"rt":null,"stimulus":"\n\t\t\t\t\t<p>Correct!</p>\n\t\t\t\t\t","response":null,"trial_type":"html-keyboard-response","trial_index":132,"time_elapsed":800968,"internal_node_id":"0.0-5.0-1.2","prolific_id":"62e185f1375fa71f12753c64","session_id":"64399b6c3a02ab0f4357489a","study_id":"64370a36d30bfa807bc7e43c"},{"rt":2315,"stimulus":"\n\t\t\t\t\t\t<div class=\"two_card_container\">\n\t\t\t\t\t\t<div class=\"card_container\">\n\t\t\t\t\t\t<img src=img/40.png>\n\t\t\t\t\t\t</div>\n\n\t\t\t\t\t\t<div class=\"card_container\">\n\t\t\t\t\t\t<img src=img/3.png>\n\t\t\t\t\t\t</div>","response":"j","task":"response","correct_response":"j","trial_type":"html-keyboard-response","trial_index":133,"time_elapsed":803284,"internal_node_id":"0.0-5.0-0.3","prolific_id":"62e185f1375fa71f12753c64","session_id":"64399b6c3a02ab0f4357489a","study_id":"64370a36d30bfa807bc7e43c","correct":true},{"rt":null,"stimulus":"\n\t\t\t\t\t<p>Correct!</p>\n\t\t\t\t\t","response":null,"trial_type":"html-keyboard-response","trial_index":134,"time_elapsed":804297,"internal_node_id":"0.0-5.0-1.3","prolific_id":"62e185f1375fa71f12753c64","session_id":"64399b6c3a02ab0f4357489a","study_id":"64370a36d30bfa807bc7e43c"},{"rt":2117,"stimulus":"\n\t\t\t\t\t\t<div class=\"two_card_container\">\n\t\t\t\t\t\t<div class=\"card_container\">\n\t\t\t\t\t\t<img src=img/8.png>\n\t\t\t\t\t\t</div>\n\n\t\t\t\t\t\t<div class=\"card_container\">\n\t\t\t\t\t\t<img src=img/31.png>\n\t\t\t\t\t\t</div>","response":"j","task":"response","correct_response":"f","trial_type":"html-keyboard-response","trial_index":135,"time_elapsed":806415,"internal_node_id":"0.0-5.0-0.4","prolific_id":"62e185f1375fa71f12753c64","session_id":"64399b6c3a02ab0f4357489a","study_id":"64370a36d30bfa807bc7e43c","correct":false},{"rt":null,"stimulus":"\n\t\t\t\t\t<p>Wrong answer</p>\n\t\t\t\t\t","response":null,"trial_type":"html-keyboard-response","trial_index":136,"time_elapsed":807421,"internal_node_id":"0.0-5.0-1.4","prolific_id":"62e185f1375fa71f12753c64","session_id":"64399b6c3a02ab0f4357489a","study_id":"64370a36d30bfa807bc7e43c"},{"rt":1332,"stimulus":"\n\t\t\t\t\t\t<div class=\"two_card_container\">\n\t\t\t\t\t\t<div class=\"card_container\">\n\t\t\t\t\t\t<img src=img/14.png>\n\t\t\t\t\t\t</div>\n\n\t\t\t\t\t\t<div class=\"card_container\">\n\t\t\t\t\t\t<img src=img/36.png>\n\t\t\t\t\t\t</div>","response":"f","task":"response","correct_response":"f","trial_type":"html-keyboard-response","trial_index":137,"time_elapsed":808755,"internal_node_id":"0.0-5.0-0.5","prolific_id":"62e185f1375fa71f12753c64","session_id":"64399b6c3a02ab0f4357489a","study_id":"64370a36d30bfa807bc7e43c","correct":true},{"rt":null,"stimulus":"\n\t\t\t\t\t<p>Correct!</p>\n\t\t\t\t\t","response":null,"trial_type":"html-keyboard-response","trial_index":138,"time_elapsed":809760,"internal_node_id":"0.0-5.0-1.5","prolific_id":"62e185f1375fa71f12753c64","session_id":"64399b6c3a02ab0f4357489a","study_id":"64370a36d30bfa807bc7e43c"},{"rt":2364,"stimulus":"\n\t\t\t\t\t\t<div class=\"two_card_container\">\n\t\t\t\t\t\t<div class=\"card_container\">\n\t\t\t\t\t\t<img src=img/35.png>\n\t\t\t\t\t\t</div>\n\n\t\t\t\t\t\t<div class=\"card_container\">\n\t\t\t\t\t\t<img src=img/22.png>\n\t\t\t\t\t\t</div>","response":"j","task":"response","correct_response":"j","trial_type":"html-keyboard-response","trial_index":139,"time_elapsed":812125,"internal_node_id":"0.0-5.0-0.6","prolific_id":"62e185f1375fa71f12753c64","session_id":"64399b6c3a02ab0f4357489a","study_id":"64370a36d30bfa807bc7e43c","correct":true},{"rt":null,"stimulus":"\n\t\t\t\t\t<p>Correct!</p>\n\t\t\t\t\t","response":null,"trial_type":"html-keyboard-response","trial_index":140,"time_elapsed":813136,"internal_node_id":"0.0-5.0-1.6","prolific_id":"62e185f1375fa71f12753c64","session_id":"64399b6c3a02ab0f4357489a","study_id":"64370a36d30bfa807bc7e43c"},{"rt":1108,"stimulus":"\n\t\t\t\t\t\t<div class=\"two_card_container\">\n\t\t\t\t\t\t<div class=\"card_container\">\n\t\t\t\t\t\t<img src=img/5.png>\n\t\t\t\t\t\t</div>\n\n\t\t\t\t\t\t<div class=\"card_container\">\n\t\t\t\t\t\t<img src=img/38.png>\n\t\t\t\t\t\t</div>","response":"f","task":"response","correct_response":"f","trial_type":"html-keyboard-response","trial_index":141,"time_elapsed":814245,"internal_node_id":"0.0-5.0-0.7","prolific_id":"62e185f1375fa71f12753c64","session_id":"64399b6c3a02ab0f4357489a","study_id":"64370a36d30bfa807bc7e43c","correct":true},{"rt":null,"stimulus":"\n\t\t\t\t\t<p>Correct!</p>\n\t\t\t\t\t","response":null,"trial_type":"html-keyboard-response","trial_index":142,"time_elapsed":815257,"internal_node_id":"0.0-5.0-1.7","prolific_id":"62e185f1375fa71f12753c64","session_id":"64399b6c3a02ab0f4357489a","study_id":"64370a36d30bfa807bc7e43c"},{"rt":1582,"stimulus":"\n\t\t\t\t\t\t<div class=\"two_card_container\">\n\t\t\t\t\t\t<div class=\"card_container\">\n\t\t\t\t\t\t<img src=img/33.png>\n\t\t\t\t\t\t</div>\n\n\t\t\t\t\t\t<div class=\"card_container\">\n\t\t\t\t\t\t<img src=img/29.png>\n\t\t\t\t\t\t</div>","response":"j","task":"response","correct_response":"j","trial_type":"html-keyboard-response","trial_index":143,"time_elapsed":816840,"internal_node_id":"0.0-5.0-0.8","prolific_id":"62e185f1375fa71f12753c64","session_id":"64399b6c3a02ab0f4357489a","study_id":"64370a36d30bfa807bc7e43c","correct":true},{"rt":null,"stimulus":"\n\t\t\t\t\t<p>Correct!</p>\n\t\t\t\t\t","response":null,"trial_type":"html-keyboard-response","trial_index":144,"time_elapsed":817845,"internal_node_id":"0.0-5.0-1.8","prolific_id":"62e185f1375fa71f12753c64","session_id":"64399b6c3a02ab0f4357489a","study_id":"64370a36d30bfa807bc7e43c"},{"rt":1504,"stimulus":"\n\t\t\t\t\t\t<div class=\"two_card_container\">\n\t\t\t\t\t\t<div class=\"card_container\">\n\t\t\t\t\t\t<img src=img/21.png>\n\t\t\t\t\t\t</div>\n\n\t\t\t\t\t\t<div class=\"card_container\">\n\t\t\t\t\t\t<img src=img/39.png>\n\t\t\t\t\t\t</div>","response":"f","task":"response","correct_response":"f","trial_type":"html-keyboard-response","trial_index":145,"time_elapsed":819350,"internal_node_id":"0.0-5.0-0.9","prolific_id":"62e185f1375fa71f12753c64","session_id":"64399b6c3a02ab0f4357489a","study_id":"64370a36d30bfa807bc7e43c","correct":true},{"rt":null,"stimulus":"\n\t\t\t\t\t<p>Correct!</p>\n\t\t\t\t\t","response":null,"trial_type":"html-keyboard-response","trial_index":146,"time_elapsed":820361,"internal_node_id":"0.0-5.0-1.9","prolific_id":"62e185f1375fa71f12753c64","session_id":"64399b6c3a02ab0f4357489a","study_id":"64370a36d30bfa807bc7e43c"},{"rt":6169,"stimulus":"\n\t\t\t<h2>Good job :p</h2>\n\t\t\t<p>In the next session, you will see a trivia question on the screen in each trial.</p>\n\t\t\t<p>Each of these trivia questions is chosen from the questions you have already seen in the first session of the experiment.</p><br>\n\t\t\t<p>Your task is to answer the trivia question based on what you remember as accurately as you can.</p>\n\t\t\t<p>Have fun!</p>\n\t\t\t<br>\n\t\t\t<p>The trials will begin in 30 seconds</p>\n\t\t\t","response":" ","trial_type":"html-keyboard-response","trial_index":147,"time_elapsed":826531,"internal_node_id":"0.0-6.0","prolific_id":"62e185f1375fa71f12753c64","session_id":"64399b6c3a02ab0f4357489a","study_id":"64370a36d30bfa807bc7e43c"},{"rt":11612,"response":{"answer":"14"},"task":"response","correct_response":"6","trial_type":"survey-text","trial_index":148,"time_elapsed":838145,"internal_node_id":"0.0-7.0-0.0","prolific_id":"62e185f1375fa71f12753c64","session_id":"64399b6c3a02ab0f4357489a","study_id":"64370a36d30bfa807bc7e43c","difference":100},{"rt":null,"stimulus":"<h2>The correct answer is 6.</h2><p>Your answer was different from the answer by 8.</p><p>Not even close... do better next time!</p>","response":null,"trial_type":"html-keyboard-response","trial_index":149,"time_elapsed":840653,"internal_node_id":"0.0-7.0-1.0","prolific_id":"62e185f1375fa71f12753c64","session_id":"64399b6c3a02ab0f4357489a","study_id":"64370a36d30bfa807bc7e43c"},{"rt":8320,"response":{"answer":"4"},"task":"response","correct_response":"4","trial_type":"survey-text","trial_index":150,"time_elapsed":848975,"internal_node_id":"0.0-7.0-0.1","prolific_id":"62e185f1375fa71f12753c64","session_id":"64399b6c3a02ab0f4357489a","study_id":"64370a36d30bfa807bc7e43c","difference":0},{"rt":null,"stimulus":"<h2>The correct answer is 4.</h2><p>Your answer was different from the answer by 0.</p><p>You got the right answer. Amazing work!</p>","response":null,"trial_type":"html-keyboard-response","trial_index":151,"time_elapsed":851484,"internal_node_id":"0.0-7.0-1.1","prolific_id":"62e185f1375fa71f12753c64","session_id":"64399b6c3a02ab0f4357489a","study_id":"64370a36d30bfa807bc7e43c"},{"rt":4613,"response":{"answer":"300"},"task":"response","correct_response":"300","trial_type":"survey-text","trial_index":152,"time_elapsed":856100,"internal_node_id":"0.0-7.0-0.2","prolific_id":"62e185f1375fa71f12753c64","session_id":"64399b6c3a02ab0f4357489a","study_id":"64370a36d30bfa807bc7e43c","difference":0},{"rt":null,"stimulus":"<h2>The correct answer is 300.</h2><p>Your answer was different from the answer by 0.</p><p>You got the right answer. Amazing work!</p>","response":null,"trial_type":"html-keyboard-response","trial_index":153,"time_elapsed":858609,"internal_node_id":"0.0-7.0-1.2","prolific_id":"62e185f1375fa71f12753c64","session_id":"64399b6c3a02ab0f4357489a","study_id":"64370a36d30bfa807bc7e43c"},{"rt":2660,"response":{"answer":"14"},"task":"response","correct_response":"14","trial_type":"survey-text","trial_index":154,"time_elapsed":861271,"internal_node_id":"0.0-7.0-0.3","prolific_id":"62e185f1375fa71f12753c64","session_id":"64399b6c3a02ab0f4357489a","study_id":"64370a36d30bfa807bc7e43c","difference":0},{"rt":null,"stimulus":"<h2>The correct answer is 14.</h2><p>Your answer was different from the answer by 0.</p><p>You got the right answer. Amazing work!</p>","response":null,"trial_type":"html-keyboard-response","trial_index":155,"time_elapsed":863782,"internal_node_id":"0.0-7.0-1.3","prolific_id":"62e185f1375fa71f12753c64","session_id":"64399b6c3a02ab0f4357489a","study_id":"64370a36d30bfa807bc7e43c"},{"rt":5687,"response":{"answer":"79"},"task":"response","correct_response":"79","trial_type":"survey-text","trial_index":156,"time_elapsed":869471,"internal_node_id":"0.0-7.0-0.4","prolific_id":"62e185f1375fa71f12753c64","session_id":"64399b6c3a02ab0f4357489a","study_id":"64370a36d30bfa807bc7e43c","difference":0},{"rt":null,"stimulus":"<h2>The correct answer is 79.</h2><p>Your answer was different from the answer by 0.</p><p>You got the right answer. Amazing work!</p>","response":null,"trial_type":"html-keyboard-response","trial_index":157,"time_elapsed":871985,"internal_node_id":"0.0-7.0-1.4","prolific_id":"62e185f1375fa71f12753c64","session_id":"64399b6c3a02ab0f4357489a","study_id":"64370a36d30bfa807bc7e43c"},{"rt":3046,"response":{"answer":"11"},"task":"response","correct_response":"11","trial_type":"survey-text","trial_index":158,"time_elapsed":875033,"internal_node_id":"0.0-7.0-0.5","prolific_id":"62e185f1375fa71f12753c64","session_id":"64399b6c3a02ab0f4357489a","study_id":"64370a36d30bfa807bc7e43c","difference":0},{"rt":null,"stimulus":"<h2>The correct answer is 11.</h2><p>Your answer was different from the answer by 0.</p><p>You got the right answer. Amazing work!</p>","response":null,"trial_type":"html-keyboard-response","trial_index":159,"time_elapsed":877545,"internal_node_id":"0.0-7.0-1.5","prolific_id":"62e185f1375fa71f12753c64","session_id":"64399b6c3a02ab0f4357489a","study_id":"64370a36d30bfa807bc7e43c"},{"rt":2742,"response":{"answer":"1901"},"task":"response","correct_response":"1901","trial_type":"survey-text","trial_index":160,"time_elapsed":880289,"internal_node_id":"0.0-7.0-0.6","prolific_id":"62e185f1375fa71f12753c64","session_id":"64399b6c3a02ab0f4357489a","study_id":"64370a36d30bfa807bc7e43c","difference":0},{"rt":null,"stimulus":"<h2>The correct answer is 1901.</h2><p>Your answer was different from the answer by 0.</p><p>You got the right answer. Amazing work!</p>","response":null,"trial_type":"html-keyboard-response","trial_index":161,"time_elapsed":882801,"internal_node_id":"0.0-7.0-1.6","prolific_id":"62e185f1375fa71f12753c64","session_id":"64399b6c3a02ab0f4357489a","study_id":"64370a36d30bfa807bc7e43c"},{"rt":3369,"response":{"answer":"1907"},"task":"response","correct_response":"1907","trial_type":"survey-text","trial_index":162,"time_elapsed":886172,"internal_node_id":"0.0-7.0-0.7","prolific_id":"62e185f1375fa71f12753c64","session_id":"64399b6c3a02ab0f4357489a","study_id":"64370a36d30bfa807bc7e43c","difference":0},{"rt":null,"stimulus":"<h2>The correct answer is 1907.</h2><p>Your answer was different from the answer by 0.</p><p>You got the right answer. Amazing work!</p>","response":null,"trial_type":"html-keyboard-response","trial_index":163,"time_elapsed":888676,"internal_node_id":"0.0-7.0-1.7","prolific_id":"62e185f1375fa71f12753c64","session_id":"64399b6c3a02ab0f4357489a","study_id":"64370a36d30bfa807bc7e43c"},{"rt":4850,"response":{"answer":"7912"},"task":"response","correct_response":"7917.5","trial_type":"survey-text","trial_index":164,"time_elapsed":893528,"internal_node_id":"0.0-7.0-0.8","prolific_id":"62e185f1375fa71f12753c64","session_id":"64399b6c3a02ab0f4357489a","study_id":"64370a36d30bfa807bc7e43c","difference":0},{"rt":null,"stimulus":"<h2>The correct answer is 7917.5.</h2><p>Your answer was different from the answer by 5.5.</p><p>Excellent. Kudos to you!</p>","response":null,"trial_type":"html-keyboard-response","trial_index":165,"time_elapsed":896041,"internal_node_id":"0.0-7.0-1.8","prolific_id":"62e185f1375fa71f12753c64","session_id":"64399b6c3a02ab0f4357489a","study_id":"64370a36d30bfa807bc7e43c"},{"rt":6339,"response":{"answer":"179"},"task":"response","correct_response":"108","trial_type":"survey-text","trial_index":166,"time_elapsed":902382,"internal_node_id":"0.0-7.0-0.9","prolific_id":"62e185f1375fa71f12753c64","session_id":"64399b6c3a02ab0f4357489a","study_id":"64370a36d30bfa807bc7e43c","difference":66},{"rt":null,"stimulus":"<h2>The correct answer is 108.</h2><p>Your answer was different from the answer by 71.</p><p>Not even close... do better next time!</p>","response":null,"trial_type":"html-keyboard-response","trial_index":167,"time_elapsed":904889,"internal_node_id":"0.0-7.0-1.9","prolific_id":"62e185f1375fa71f12753c64","session_id":"64399b6c3a02ab0f4357489a","study_id":"64370a36d30bfa807bc7e43c"}]