[{"success":true,"timeout":false,"failed_images":[],"failed_audio":[],"failed_video":[],"trial_type":"preload","trial_index":0,"time_elapsed":20554,"internal_node_id":"0.0-0.0","prolific_id":"62e12eafa1f5eeafaf30f23b","session_id":"643c25205c63c85aa9b81c0a","study_id":"64370a36d30bfa807bc7e43c"},{"rt":5272,"stimulus":"\n\t\t\t\t\t<p>Welcome and thank you for participating in this study!</p>\n\t\t\t\t\t<p>In each trial, you will be given a trivia question and then be asked to:</p><br>\n\t\t\t\t\t<div class=\"list\">\n\t\t\t\t\t<p>1) Predict the answer</p>\n\t\t\t\t\t<p>2) Rate how much you already know about the topic</p>\n\t\t\t\t\t<p>3) Rate how much you want to know the answer</p>\n\t\t\t\t\t</div>\n\t\t\t\t\t<br>\n\t\t\t\t\t<p>Then, you will see a card that flips over to reveal the answer.</p>\n\t\t\t\t\t<br>\n\t\t\t\t\t<p>Let's try a practice round. Press <span style=\"color: red\"><strong>any key</strong></span> to move to the next slide</p>\n\t\t\t\t\t","response":"arrowright","trial_type":"html-keyboard-response","trial_index":1,"time_elapsed":25828,"internal_node_id":"0.0-1.0","prolific_id":"62e12eafa1f5eeafaf30f23b","session_id":"643c25205c63c85aa9b81c0a","study_id":"64370a36d30bfa807bc7e43c"},{"rt":5585,"response":{"practice prediction":"6"},"task":"practice","trial_type":"survey-text","trial_index":2,"time_elapsed":31434,"internal_node_id":"0.0-2.0-0.0","prolific_id":"62e12eafa1f5eeafaf30f23b","session_id":"643c25205c63c85aa9b81c0a","study_id":"64370a36d30bfa807bc7e43c"},{"rt":11292,"response":{"practice":0},"accuracy":[],"trial_type":"survey","trial_index":3,"time_elapsed":42770,"internal_node_id":"0.0-2.0-1.0","prolific_id":"62e12eafa1f5eeafaf30f23b","session_id":"643c25205c63c85aa9b81c0a","study_id":"64370a36d30bfa807bc7e43c"},{"rt":null,"stimulus":"\n\t\t\t\t<div class=\"flip_card\">\n\t\t\t\t\t<div class=\"flip_card_inner\">\n\t\t\t\t\t\t<div class=\"flip_card_front\">\n\t\t\t\t\t\t\t<img src=img/practice.png>\n\t\t\t\t\t\t</div>\n\t\t\t\t\t\t<div class=\"flip_card_back\">\n\t\t\t\t\t\t\t<h2>\"How many legs does a lobster have?\"</h2>\n\t\t\t\t\t\t    <br>\n\t\t\t\t\t\t    <p>Answer: <strong>\"10\"</strong></p>\n\t\t\t\t\t    </div>\n\t\t\t\t    </div>\n\t\t\t    </div>\n\t\t\t\t","response":null,"trial_type":"html-keyboard-response","trial_index":4,"time_elapsed":47775,"internal_node_id":"0.0-2.0-2.0","prolific_id":"62e12eafa1f5eeafaf30f23b","session_id":"643c25205c63c85aa9b81c0a","study_id":"64370a36d30bfa807bc7e43c"},{"rt":1621,"stimulus":"\n\t\t\t\t\t<div>\n\t\t\t\t\t<h2>The practice round is over</h2>\n\t\t\t\t\t<p>Press <span style=\"color: red\"><strong>any key</strong></span> to continue to the actual trials</p>\n\t\t\t\t\t<p>Good Luck!</p>\n\t\t\t\t\t</div>\n\t\t\t\t\t","response":"arrowright","trial_type":"html-keyboard-response","trial_index":5,"time_elapsed":49398,"internal_node_id":"0.0-2.0-3.0","prolific_id":"62e12eafa1f5eeafaf30f23b","session_id":"643c25205c63c85aa9b81c0a","study_id":"64370a36d30bfa807bc7e43c"},{"rt":3813,"response":{"prediction":"216"},"trial_type":"survey-text","trial_index":6,"time_elapsed":53215,"internal_node_id":"0.0-3.0-0.0","prolific_id":"62e12eafa1f5eeafaf30f23b","session_id":"643c25205c63c85aa9b81c0a","study_id":"64370a36d30bfa807bc7e43c"},{"rt":5960,"response":{"prior knowledge":1,"curiosity":1},"accuracy":[],"trial_type":"survey","trial_index":7,"time_elapsed":59197,"internal_node_id":"0.0-3.0-1.0","prolific_id":"62e12eafa1f5eeafaf30f23b","session_id":"643c25205c63c85aa9b81c0a","study_id":"64370a36d30bfa807bc7e43c"},{"rt":null,"stimulus":"\n\t\t\t<div class=\"flip_card\">\n\t\t\t\t<div class=\"flip_card_inner\">\n\t\t\t\t\t<div class=\"flip_card_front\">\n\t\t\t\t\t\t<img src=img/6.png>\n\t\t\t\t\t</div>\n\t\t\t\t\t<div class=\"flip_card_back\">\n\t\t\t\t\t\t<h2>How many bones is a human baby born with?</h2>\n\t\t\t\t\t\t<br>\n\t\t\t\t\t\t<p>Answer: <strong>300</strong></p>\n\t\t\t\t\t</div>\n\t\t\t\t</div>\n\t\t\t</div>\n\t\t\t","response":null,"trial_type":"html-keyboard-response","trial_index":8,"time_elapsed":64211,"internal_node_id":"0.0-3.0-2.0","prolific_id":"62e12eafa1f5eeafaf30f23b","session_id":"643c25205c63c85aa9b81c0a","study_id":"64370a36d30bfa807bc7e43c"},{"rt":1485,"stimulus":"\n\t\t\t\t\t<div>\n\t\t\t\t\t<h2>Trial 1 is over</h2>\n\t\t\t\t\t<p>Press <span style=\"color: red\"><strong>any key</strong></span> to continue to the next trial</p>\n\t\t\t\t\t</div>\n\t\t\t\t","response":"arrowright","trial_type":"html-keyboard-response","trial_index":9,"time_elapsed":65697,"internal_node_id":"0.0-3.0-3.0","prolific_id":"62e12eafa1f5eeafaf30f23b","session_id":"643c25205c63c85aa9b81c0a","study_id":"64370a36d30bfa807bc7e43c"},{"rt":8490,"response":{"prediction":"20"},"trial_type":"survey-text","trial_index":10,"time_elapsed":74193,"internal_node_id":"0.0-3.0-0.1","prolific_id":"62e12eafa1f5eeafaf30f23b","session_id":"643c25205c63c85aa9b81c0a","study_id":"64370a36d30bfa807bc7e43c"},{"rt":7235,"response":{"prior knowledge":0,"curiosity":2},"accuracy":[],"trial_type":"survey","trial_index":11,"time_elapsed":81448,"internal_node_id":"0.0-3.0-1.1","prolific_id":"62e12eafa1f5eeafaf30f23b","session_id":"643c25205c63c85aa9b81c0a","study_id":"64370a36d30bfa807bc7e43c"},{"rt":null,"stimulus":"\n\t\t\t<div class=\"flip_card\">\n\t\t\t\t<div class=\"flip_card_inner\">\n\t\t\t\t\t<div class=\"flip_card_front\">\n\t\t\t\t\t\t<img src=img/7.png>\n\t\t\t\t\t</div>\n\t\t\t\t\t<div class=\"flip_card_back\">\n\t\t\t\t\t\t<h2>How many single hand gestures, or mudras, are used in Indian classical dance?</h2>\n\t\t\t\t\t\t<br>\n\t\t\t\t\t\t<p>Answer: <strong>28</strong></p>\n\t\t\t\t\t</div>\n\t\t\t\t</div>\n\t\t\t</div>\n\t\t\t","response":null,"trial_type":"html-keyboard-response","trial_index":12,"time_elapsed":86453,"internal_node_id":"0.0-3.0-2.1","prolific_id":"62e12eafa1f5eeafaf30f23b","session_id":"643c25205c63c85aa9b81c0a","study_id":"64370a36d30bfa807bc7e43c"},{"rt":1155,"stimulus":"\n\t\t\t\t\t<div>\n\t\t\t\t\t<h2>Trial 2 is over</h2>\n\t\t\t\t\t<p>Press <span style=\"color: red\"><strong>any key</strong></span> to continue to the next trial</p>\n\t\t\t\t\t</div>\n\t\t\t\t","response":"arrowright","trial_type":"html-keyboard-response","trial_index":13,"time_elapsed":87609,"internal_node_id":"0.0-3.0-3.1","prolific_id":"62e12eafa1f5eeafaf30f23b","session_id":"643c25205c63c85aa9b81c0a","study_id":"64370a36d30bfa807bc7e43c"},{"rt":6422,"response":{"prediction":"16"},"trial_type":"survey-text","trial_index":14,"time_elapsed":94035,"internal_node_id":"0.0-3.0-0.2","prolific_id":"62e12eafa1f5eeafaf30f23b","session_id":"643c25205c63c85aa9b81c0a","study_id":"64370a36d30bfa807bc7e43c"},{"rt":6232,"response":{"prior knowledge":1,"curiosity":3},"accuracy":[],"trial_type":"survey","trial_index":15,"time_elapsed":100287,"internal_node_id":"0.0-3.0-1.2","prolific_id":"62e12eafa1f5eeafaf30f23b","session_id":"643c25205c63c85aa9b81c0a","study_id":"64370a36d30bfa807bc7e43c"},{"rt":null,"stimulus":"\n\t\t\t<div class=\"flip_card\">\n\t\t\t\t<div class=\"flip_card_inner\">\n\t\t\t\t\t<div class=\"flip_card_front\">\n\t\t\t\t\t\t<img src=img/18.png>\n\t\t\t\t\t</div>\n\t\t\t\t\t<div class=\"flip_card_back\">\n\t\t\t\t\t\t<h2>How many countries in Africa have French as the official language?</h2>\n\t\t\t\t\t\t<br>\n\t\t\t\t\t\t<p>Answer: <strong>21</strong></p>\n\t\t\t\t\t</div>\n\t\t\t\t</div>\n\t\t\t</div>\n\t\t\t","response":null,"trial_type":"html-keyboard-response","trial_index":16,"time_elapsed":105303,"internal_node_id":"0.0-3.0-2.2","prolific_id":"62e12eafa1f5eeafaf30f23b","session_id":"643c25205c63c85aa9b81c0a","study_id":"64370a36d30bfa807bc7e43c"},{"rt":1180,"stimulus":"\n\t\t\t\t\t<div>\n\t\t\t\t\t<h2>Trial 3 is over</h2>\n\t\t\t\t\t<p>Press <span style=\"color: red\"><strong>any key</strong></span> to continue to the next trial</p>\n\t\t\t\t\t</div>\n\t\t\t\t","response":"arrowright","trial_type":"html-keyboard-response","trial_index":17,"time_elapsed":106484,"internal_node_id":"0.0-3.0-3.2","prolific_id":"62e12eafa1f5eeafaf30f23b","session_id":"643c25205c63c85aa9b81c0a","study_id":"64370a36d30bfa807bc7e43c"},{"rt":4772,"response":{"prediction":"5"},"trial_type":"survey-text","trial_index":18,"time_elapsed":111260,"internal_node_id":"0.0-3.0-0.3","prolific_id":"62e12eafa1f5eeafaf30f23b","session_id":"643c25205c63c85aa9b81c0a","study_id":"64370a36d30bfa807bc7e43c"},{"rt":5187,"response":{"prior knowledge":0,"curiosity":1},"accuracy":[],"trial_type":"survey","trial_index":19,"time_elapsed":116470,"internal_node_id":"0.0-3.0-1.3","prolific_id":"62e12eafa1f5eeafaf30f23b","session_id":"643c25205c63c85aa9b81c0a","study_id":"64370a36d30bfa807bc7e43c"},{"rt":null,"stimulus":"\n\t\t\t<div class=\"flip_card\">\n\t\t\t\t<div class=\"flip_card_inner\">\n\t\t\t\t\t<div class=\"flip_card_front\">\n\t\t\t\t\t\t<img src=img/4.png>\n\t\t\t\t\t</div>\n\t\t\t\t\t<div class=\"flip_card_back\">\n\t\t\t\t\t\t<h2>How many moons does Neptune have?</h2>\n\t\t\t\t\t\t<br>\n\t\t\t\t\t\t<p>Answer: <strong>14</strong></p>\n\t\t\t\t\t</div>\n\t\t\t\t</div>\n\t\t\t</div>\n\t\t\t","response":null,"trial_type":"html-keyboard-response","trial_index":20,"time_elapsed":121475,"internal_node_id":"0.0-3.0-2.3","prolific_id":"62e12eafa1f5eeafaf30f23b","session_id":"643c25205c63c85aa9b81c0a","study_id":"64370a36d30bfa807bc7e43c"},{"rt":1350,"stimulus":"\n\t\t\t\t\t<div>\n\t\t\t\t\t<h2>Trial 4 is over</h2>\n\t\t\t\t\t<p>Press <span style=\"color: red\"><strong>any key</strong></span> to continue to the next trial</p>\n\t\t\t\t\t</div>\n\t\t\t\t","response":"arrowright","trial_type":"html-keyboard-response","trial_index":21,"time_elapsed":122826,"internal_node_id":"0.0-3.0-3.3","prolific_id":"62e12eafa1f5eeafaf30f23b","session_id":"643c25205c63c85aa9b81c0a","study_id":"64370a36d30bfa807bc7e43c"},{"rt":5024,"response":{"prediction":"3"},"trial_type":"survey-text","trial_index":22,"time_elapsed":127854,"internal_node_id":"0.0-3.0-0.4","prolific_id":"62e12eafa1f5eeafaf30f23b","session_id":"643c25205c63c85aa9b81c0a","study_id":"64370a36d30bfa807bc7e43c"},{"rt":4020,"response":{"prior knowledge":1,"curiosity":0},"accuracy":[],"trial_type":"survey","trial_index":23,"time_elapsed":131894,"internal_node_id":"0.0-3.0-1.4","prolific_id":"62e12eafa1f5eeafaf30f23b","session_id":"643c25205c63c85aa9b81c0a","study_id":"64370a36d30bfa807bc7e43c"},{"rt":null,"stimulus":"\n\t\t\t<div class=\"flip_card\">\n\t\t\t\t<div class=\"flip_card_inner\">\n\t\t\t\t\t<div class=\"flip_card_front\">\n\t\t\t\t\t\t<img src=img/5.png>\n\t\t\t\t\t</div>\n\t\t\t\t\t<div class=\"flip_card_back\">\n\t\t\t\t\t\t<h2>How many times a day do Muslims pray?</h2>\n\t\t\t\t\t\t<br>\n\t\t\t\t\t\t<p>Answer: <strong>5</strong></p>\n\t\t\t\t\t</div>\n\t\t\t\t</div>\n\t\t\t</div>\n\t\t\t","response":null,"trial_type":"html-keyboard-response","trial_index":24,"time_elapsed":136902,"internal_node_id":"0.0-3.0-2.4","prolific_id":"62e12eafa1f5eeafaf30f23b","session_id":"643c25205c63c85aa9b81c0a","study_id":"64370a36d30bfa807bc7e43c"},{"rt":1175,"stimulus":"\n\t\t\t\t\t<div>\n\t\t\t\t\t<h2>Trial 5 is over</h2>\n\t\t\t\t\t<p>Press <span style=\"color: red\"><strong>any key</strong></span> to continue to the next trial</p>\n\t\t\t\t\t</div>\n\t\t\t\t","response":"arrowright","trial_type":"html-keyboard-response","trial_index":25,"time_elapsed":138078,"internal_node_id":"0.0-3.0-3.4","prolific_id":"62e12eafa1f5eeafaf30f23b","session_id":"643c25205c63c85aa9b81c0a","study_id":"64370a36d30bfa807bc7e43c"},{"rt":5895,"response":{"prediction":"12"},"trial_type":"survey-text","trial_index":26,"time_elapsed":143977,"internal_node_id":"0.0-3.0-0.5","prolific_id":"62e12eafa1f5eeafaf30f23b","session_id":"643c25205c63c85aa9b81c0a","study_id":"64370a36d30bfa807bc7e43c"},{"rt":7376,"response":{"prior knowledge":1,"curiosity":1},"accuracy":[],"trial_type":"survey","trial_index":27,"time_elapsed":151373,"internal_node_id":"0.0-3.0-1.5","prolific_id":"62e12eafa1f5eeafaf30f23b","session_id":"643c25205c63c85aa9b81c0a","study_id":"64370a36d30bfa807bc7e43c"},{"rt":null,"stimulus":"\n\t\t\t<div class=\"flip_card\">\n\t\t\t\t<div class=\"flip_card_inner\">\n\t\t\t\t\t<div class=\"flip_card_front\">\n\t\t\t\t\t\t<img src=img/14.png>\n\t\t\t\t\t</div>\n\t\t\t\t\t<div class=\"flip_card_back\">\n\t\t\t\t\t\t<h2>How many different animals (real or imaginary) are represented in the Chinese calendar?</h2>\n\t\t\t\t\t\t<br>\n\t\t\t\t\t\t<p>Answer: <strong>12</strong></p>\n\t\t\t\t\t</div>\n\t\t\t\t</div>\n\t\t\t</div>\n\t\t\t","response":null,"trial_type":"html-keyboard-response","trial_index":28,"time_elapsed":156377,"internal_node_id":"0.0-3.0-2.5","prolific_id":"62e12eafa1f5eeafaf30f23b","session_id":"643c25205c63c85aa9b81c0a","study_id":"64370a36d30bfa807bc7e43c"},{"rt":6575,"stimulus":"\n\t\t\t\t\t<div>\n\t\t\t\t\t<h2>Trial 6 is over</h2>\n\t\t\t\t\t<p>Press <span style=\"color: red\"><strong>any key</strong></span> to continue to the next trial</p>\n\t\t\t\t\t</div>\n\t\t\t\t","response":"arrowright","trial_type":"html-keyboard-response","trial_index":29,"time_elapsed":162953,"internal_node_id":"0.0-3.0-3.5","prolific_id":"62e12eafa1f5eeafaf30f23b","session_id":"643c25205c63c85aa9b81c0a","study_id":"64370a36d30bfa807bc7e43c"},{"rt":4557,"response":{"prediction":"4"},"trial_type":"survey-text","trial_index":30,"time_elapsed":167513,"internal_node_id":"0.0-3.0-0.6","prolific_id":"62e12eafa1f5eeafaf30f23b","session_id":"643c25205c63c85aa9b81c0a","study_id":"64370a36d30bfa807bc7e43c"},{"rt":4157,"response":{"prior knowledge":2,"curiosity":0},"accuracy":[],"trial_type":"survey","trial_index":31,"time_elapsed":171688,"internal_node_id":"0.0-3.0-1.6","prolific_id":"62e12eafa1f5eeafaf30f23b","session_id":"643c25205c63c85aa9b81c0a","study_id":"64370a36d30bfa807bc7e43c"},{"rt":null,"stimulus":"\n\t\t\t<div class=\"flip_card\">\n\t\t\t\t<div class=\"flip_card_inner\">\n\t\t\t\t\t<div class=\"flip_card_front\">\n\t\t\t\t\t\t<img src=img/30.png>\n\t\t\t\t\t</div>\n\t\t\t\t\t<div class=\"flip_card_back\">\n\t\t\t\t\t\t<h2>How many main islands make up Japan?</h2>\n\t\t\t\t\t\t<br>\n\t\t\t\t\t\t<p>Answer: <strong>4</strong></p>\n\t\t\t\t\t</div>\n\t\t\t\t</div>\n\t\t\t</div>\n\t\t\t","response":null,"trial_type":"html-keyboard-response","trial_index":32,"time_elapsed":176700,"internal_node_id":"0.0-3.0-2.6","prolific_id":"62e12eafa1f5eeafaf30f23b","session_id":"643c25205c63c85aa9b81c0a","study_id":"64370a36d30bfa807bc7e43c"},{"rt":1404,"stimulus":"\n\t\t\t\t\t<div>\n\t\t\t\t\t<h2>Trial 7 is over</h2>\n\t\t\t\t\t<p>Press <span style=\"color: red\"><strong>any key</strong></span> to continue to the next trial</p>\n\t\t\t\t\t</div>\n\t\t\t\t","response":"arrowright","trial_type":"html-keyboard-response","trial_index":33,"time_elapsed":178105,"internal_node_id":"0.0-3.0-3.6","prolific_id":"62e12eafa1f5eeafaf30f23b","session_id":"643c25205c63c85aa9b81c0a","study_id":"64370a36d30bfa807bc7e43c"},{"rt":4611,"response":{"prediction":"36"},"trial_type":"survey-text","trial_index":34,"time_elapsed":182719,"internal_node_id":"0.0-3.0-0.7","prolific_id":"62e12eafa1f5eeafaf30f23b","session_id":"643c25205c63c85aa9b81c0a","study_id":"64370a36d30bfa807bc7e43c"},{"rt":6529,"response":{"prior knowledge":2,"curiosity":1},"accuracy":[],"trial_type":"survey","trial_index":35,"time_elapsed":189265,"internal_node_id":"0.0-3.0-1.7","prolific_id":"62e12eafa1f5eeafaf30f23b","session_id":"643c25205c63c85aa9b81c0a","study_id":"64370a36d30bfa807bc7e43c"},{"rt":null,"stimulus":"\n\t\t\t<div class=\"flip_card\">\n\t\t\t\t<div class=\"flip_card_inner\">\n\t\t\t\t\t<div class=\"flip_card_front\">\n\t\t\t\t\t\t<img src=img/19.png>\n\t\t\t\t\t</div>\n\t\t\t\t\t<div class=\"flip_card_back\">\n\t\t\t\t\t\t<h2>How many books are in the Catholic Bible?</h2>\n\t\t\t\t\t\t<br>\n\t\t\t\t\t\t<p>Answer: <strong>73</strong></p>\n\t\t\t\t\t</div>\n\t\t\t\t</div>\n\t\t\t</div>\n\t\t\t","response":null,"trial_type":"html-keyboard-response","trial_index":36,"time_elapsed":194280,"internal_node_id":"0.0-3.0-2.7","prolific_id":"62e12eafa1f5eeafaf30f23b","session_id":"643c25205c63c85aa9b81c0a","study_id":"64370a36d30bfa807bc7e43c"},{"rt":1792,"stimulus":"\n\t\t\t\t\t<div>\n\t\t\t\t\t<h2>Trial 8 is over</h2>\n\t\t\t\t\t<p>Press <span style=\"color: red\"><strong>any key</strong></span> to continue to the next trial</p>\n\t\t\t\t\t</div>\n\t\t\t\t","response":"arrowright","trial_type":"html-keyboard-response","trial_index":37,"time_elapsed":196073,"internal_node_id":"0.0-3.0-3.7","prolific_id":"62e12eafa1f5eeafaf30f23b","session_id":"643c25205c63c85aa9b81c0a","study_id":"64370a36d30bfa807bc7e43c"},{"rt":4355,"response":{"prediction":"1903"},"trial_type":"survey-text","trial_index":38,"time_elapsed":200431,"internal_node_id":"0.0-3.0-0.8","prolific_id":"62e12eafa1f5eeafaf30f23b","session_id":"643c25205c63c85aa9b81c0a","study_id":"64370a36d30bfa807bc7e43c"},{"rt":5026,"response":{"prior knowledge":0,"curiosity":1},"accuracy":[],"trial_type":"survey","trial_index":39,"time_elapsed":205466,"internal_node_id":"0.0-3.0-1.8","prolific_id":"62e12eafa1f5eeafaf30f23b","session_id":"643c25205c63c85aa9b81c0a","study_id":"64370a36d30bfa807bc7e43c"},{"rt":null,"stimulus":"\n\t\t\t<div class=\"flip_card\">\n\t\t\t\t<div class=\"flip_card_inner\">\n\t\t\t\t\t<div class=\"flip_card_front\">\n\t\t\t\t\t\t<img src=img/17.png>\n\t\t\t\t\t</div>\n\t\t\t\t\t<div class=\"flip_card_back\">\n\t\t\t\t\t\t<h2>In what year was the first Nobel Prize awarded?</h2>\n\t\t\t\t\t\t<br>\n\t\t\t\t\t\t<p>Answer: <strong>1901</strong></p>\n\t\t\t\t\t</div>\n\t\t\t\t</div>\n\t\t\t</div>\n\t\t\t","response":null,"trial_type":"html-keyboard-response","trial_index":40,"time_elapsed":210471,"internal_node_id":"0.0-3.0-2.8","prolific_id":"62e12eafa1f5eeafaf30f23b","session_id":"643c25205c63c85aa9b81c0a","study_id":"64370a36d30bfa807bc7e43c"},{"rt":2007,"stimulus":"\n\t\t\t\t\t<div>\n\t\t\t\t\t<h2>Trial 9 is over</h2>\n\t\t\t\t\t<p>Press <span style=\"color: red\"><strong>any key</strong></span> to continue to the next trial</p>\n\t\t\t\t\t</div>\n\t\t\t\t","response":"arrowright","trial_type":"html-keyboard-response","trial_index":41,"time_elapsed":212479,"internal_node_id":"0.0-3.0-3.8","prolific_id":"62e12eafa1f5eeafaf30f23b","session_id":"643c25205c63c85aa9b81c0a","study_id":"64370a36d30bfa807bc7e43c"},{"rt":8274,"response":{"prediction":"3500"},"trial_type":"survey-text","trial_index":42,"time_elapsed":220756,"internal_node_id":"0.0-3.0-0.9","prolific_id":"62e12eafa1f5eeafaf30f23b","session_id":"643c25205c63c85aa9b81c0a","study_id":"64370a36d30bfa807bc7e43c"},{"rt":5372,"response":{"prior knowledge":0,"curiosity":3},"accuracy":[],"trial_type":"survey","trial_index":43,"time_elapsed":226149,"internal_node_id":"0.0-3.0-1.9","prolific_id":"62e12eafa1f5eeafaf30f23b","session_id":"643c25205c63c85aa9b81c0a","study_id":"64370a36d30bfa807bc7e43c"},{"rt":null,"stimulus":"\n\t\t\t<div class=\"flip_card\">\n\t\t\t\t<div class=\"flip_card_inner\">\n\t\t\t\t\t<div class=\"flip_card_front\">\n\t\t\t\t\t\t<img src=img/21.png>\n\t\t\t\t\t</div>\n\t\t\t\t\t<div class=\"flip_card_back\">\n\t\t\t\t\t\t<h2>How long is the Great Wall of China (in miles)?</h2>\n\t\t\t\t\t\t<br>\n\t\t\t\t\t\t<p>Answer: <strong>13171</strong></p>\n\t\t\t\t\t</div>\n\t\t\t\t</div>\n\t\t\t</div>\n\t\t\t","response":null,"trial_type":"html-keyboard-response","trial_index":44,"time_elapsed":231157,"internal_node_id":"0.0-3.0-2.9","prolific_id":"62e12eafa1f5eeafaf30f23b","session_id":"643c25205c63c85aa9b81c0a","study_id":"64370a36d30bfa807bc7e43c"},{"rt":1829,"stimulus":"\n\t\t\t\t\t<div>\n\t\t\t\t\t<h2>Trial 10 is over</h2>\n\t\t\t\t\t<p>Press <span style=\"color: red\"><strong>any key</strong></span> to continue to the next trial</p>\n\t\t\t\t\t</div>\n\t\t\t\t","response":"arrowright","trial_type":"html-keyboard-response","trial_index":45,"time_elapsed":232987,"internal_node_id":"0.0-3.0-3.9","prolific_id":"62e12eafa1f5eeafaf30f23b","session_id":"643c25205c63c85aa9b81c0a","study_id":"64370a36d30bfa807bc7e43c"},{"rt":5751,"response":{"prediction":"3"},"trial_type":"survey-text","trial_index":46,"time_elapsed":238740,"internal_node_id":"0.0-3.0-0.10","prolific_id":"62e12eafa1f5eeafaf30f23b","session_id":"643c25205c63c85aa9b81c0a","study_id":"64370a36d30bfa807bc7e43c"},{"rt":8264,"response":{"prior knowledge":1,"curiosity":2},"accuracy":[],"trial_type":"survey","trial_index":47,"time_elapsed":247022,"internal_node_id":"0.0-3.0-1.10","prolific_id":"62e12eafa1f5eeafaf30f23b","session_id":"643c25205c63c85aa9b81c0a","study_id":"64370a36d30bfa807bc7e43c"},{"rt":null,"stimulus":"\n\t\t\t<div class=\"flip_card\">\n\t\t\t\t<div class=\"flip_card_inner\">\n\t\t\t\t\t<div class=\"flip_card_front\">\n\t\t\t\t\t\t<img src=img/16.png>\n\t\t\t\t\t</div>\n\t\t\t\t\t<div class=\"flip_card_back\">\n\t\t\t\t\t\t<h2>How many countries have territory in the Arctic Circle?</h2>\n\t\t\t\t\t\t<br>\n\t\t\t\t\t\t<p>Answer: <strong>8</strong></p>\n\t\t\t\t\t</div>\n\t\t\t\t</div>\n\t\t\t</div>\n\t\t\t","response":null,"trial_type":"html-keyboard-response","trial_index":48,"time_elapsed":252034,"internal_node_id":"0.0-3.0-2.10","prolific_id":"62e12eafa1f5eeafaf30f23b","session_id":"643c25205c63c85aa9b81c0a","study_id":"64370a36d30bfa807bc7e43c"},{"rt":1777,"stimulus":"\n\t\t\t\t\t<div>\n\t\t\t\t\t<h2>Trial 11 is over</h2>\n\t\t\t\t\t<p>Press <span style=\"color: red\"><strong>any key</strong></span> to continue to the next trial</p>\n\t\t\t\t\t</div>\n\t\t\t\t","response":"arrowright","trial_type":"html-keyboard-response","trial_index":49,"time_elapsed":253812,"internal_node_id":"0.0-3.0-3.10","prolific_id":"62e12eafa1f5eeafaf30f23b","session_id":"643c25205c63c85aa9b81c0a","study_id":"64370a36d30bfa807bc7e43c"},{"rt":6981,"response":{"prediction":"1890"},"trial_type":"survey-text","trial_index":50,"time_elapsed":260796,"internal_node_id":"0.0-3.0-0.11","prolific_id":"62e12eafa1f5eeafaf30f23b","session_id":"643c25205c63c85aa9b81c0a","study_id":"64370a36d30bfa807bc7e43c"},{"rt":4821,"response":{"prior knowledge":0,"curiosity":0},"accuracy":[],"trial_type":"survey","trial_index":51,"time_elapsed":265636,"internal_node_id":"0.0-3.0-1.11","prolific_id":"62e12eafa1f5eeafaf30f23b","session_id":"643c25205c63c85aa9b81c0a","study_id":"64370a36d30bfa807bc7e43c"},{"rt":null,"stimulus":"\n\t\t\t<div class=\"flip_card\">\n\t\t\t\t<div class=\"flip_card_inner\">\n\t\t\t\t\t<div class=\"flip_card_front\">\n\t\t\t\t\t\t<img src=img/22.png>\n\t\t\t\t\t</div>\n\t\t\t\t\t<div class=\"flip_card_back\">\n\t\t\t\t\t\t<h2>In what year was the Mexican artist Frida Kahlo born?</h2>\n\t\t\t\t\t\t<br>\n\t\t\t\t\t\t<p>Answer: <strong>1907</strong></p>\n\t\t\t\t\t</div>\n\t\t\t\t</div>\n\t\t\t</div>\n\t\t\t","response":null,"trial_type":"html-keyboard-response","trial_index":52,"time_elapsed":270651,"internal_node_id":"0.0-3.0-2.11","prolific_id":"62e12eafa1f5eeafaf30f23b","session_id":"643c25205c63c85aa9b81c0a","study_id":"64370a36d30bfa807bc7e43c"},{"rt":359,"stimulus":"\n\t\t\t\t\t<div>\n\t\t\t\t\t<h2>Trial 12 is over</h2>\n\t\t\t\t\t<p>Press <span style=\"color: red\"><strong>any key</strong></span> to continue to the next trial</p>\n\t\t\t\t\t</div>\n\t\t\t\t","response":"arrowright","trial_type":"html-keyboard-response","trial_index":53,"time_elapsed":271011,"internal_node_id":"0.0-3.0-3.11","prolific_id":"62e12eafa1f5eeafaf30f23b","session_id":"643c25205c63c85aa9b81c0a","study_id":"64370a36d30bfa807bc7e43c"},{"rt":5504,"response":{"prediction":"60"},"trial_type":"survey-text","trial_index":54,"time_elapsed":276518,"internal_node_id":"0.0-3.0-0.12","prolific_id":"62e12eafa1f5eeafaf30f23b","session_id":"643c25205c63c85aa9b81c0a","study_id":"64370a36d30bfa807bc7e43c"},{"rt":3123,"response":{"prior knowledge":0,"curiosity":1},"accuracy":[],"trial_type":"survey","trial_index":55,"time_elapsed":279662,"internal_node_id":"0.0-3.0-1.12","prolific_id":"62e12eafa1f5eeafaf30f23b","session_id":"643c25205c63c85aa9b81c0a","study_id":"64370a36d30bfa807bc7e43c"},{"rt":null,"stimulus":"\n\t\t\t<div class=\"flip_card\">\n\t\t\t\t<div class=\"flip_card_inner\">\n\t\t\t\t\t<div class=\"flip_card_front\">\n\t\t\t\t\t\t<img src=img/11.png>\n\t\t\t\t\t</div>\n\t\t\t\t\t<div class=\"flip_card_back\">\n\t\t\t\t\t\t<h2>How many constellations are there?</h2>\n\t\t\t\t\t\t<br>\n\t\t\t\t\t\t<p>Answer: <strong>88</strong></p>\n\t\t\t\t\t</div>\n\t\t\t\t</div>\n\t\t\t</div>\n\t\t\t","response":null,"trial_type":"html-keyboard-response","trial_index":56,"time_elapsed":284667,"internal_node_id":"0.0-3.0-2.12","prolific_id":"62e12eafa1f5eeafaf30f23b","session_id":"643c25205c63c85aa9b81c0a","study_id":"64370a36d30bfa807bc7e43c"},{"rt":1672,"stimulus":"\n\t\t\t\t\t<div>\n\t\t\t\t\t<h2>Trial 13 is over</h2>\n\t\t\t\t\t<p>Press <span style=\"color: red\"><strong>any key</strong></span> to continue to the next trial</p>\n\t\t\t\t\t</div>\n\t\t\t\t","response":"arrowright","trial_type":"html-keyboard-response","trial_index":57,"time_elapsed":286340,"internal_node_id":"0.0-3.0-3.12","prolific_id":"62e12eafa1f5eeafaf30f23b","session_id":"643c25205c63c85aa9b81c0a","study_id":"64370a36d30bfa807bc7e43c"},{"rt":7767,"response":{"prediction":"20"},"trial_type":"survey-text","trial_index":58,"time_elapsed":294110,"internal_node_id":"0.0-3.0-0.13","prolific_id":"62e12eafa1f5eeafaf30f23b","session_id":"643c25205c63c85aa9b81c0a","study_id":"64370a36d30bfa807bc7e43c"},{"rt":4620,"response":{"prior knowledge":0,"curiosity":0},"accuracy":[],"trial_type":"survey","trial_index":59,"time_elapsed":298748,"internal_node_id":"0.0-3.0-1.13","prolific_id":"62e12eafa1f5eeafaf30f23b","session_id":"643c25205c63c85aa9b81c0a","study_id":"64370a36d30bfa807bc7e43c"},{"rt":null,"stimulus":"\n\t\t\t<div class=\"flip_card\">\n\t\t\t\t<div class=\"flip_card_inner\">\n\t\t\t\t\t<div class=\"flip_card_front\">\n\t\t\t\t\t\t<img src=img/15.png>\n\t\t\t\t\t</div>\n\t\t\t\t\t<div class=\"flip_card_back\">\n\t\t\t\t\t\t<h2>How many people are vegan globally (in millions)?</h2>\n\t\t\t\t\t\t<br>\n\t\t\t\t\t\t<p>Answer: <strong>79</strong></p>\n\t\t\t\t\t</div>\n\t\t\t\t</div>\n\t\t\t</div>\n\t\t\t","response":null,"trial_type":"html-keyboard-response","trial_index":60,"time_elapsed":303763,"internal_node_id":"0.0-3.0-2.13","prolific_id":"62e12eafa1f5eeafaf30f23b","session_id":"643c25205c63c85aa9b81c0a","study_id":"64370a36d30bfa807bc7e43c"},{"rt":1417,"stimulus":"\n\t\t\t\t\t<div>\n\t\t\t\t\t<h2>Trial 14 is over</h2>\n\t\t\t\t\t<p>Press <span style=\"color: red\"><strong>any key</strong></span> to continue to the next trial</p>\n\t\t\t\t\t</div>\n\t\t\t\t","response":"arrowright","trial_type":"html-keyboard-response","trial_index":61,"time_elapsed":305181,"internal_node_id":"0.0-3.0-3.13","prolific_id":"62e12eafa1f5eeafaf30f23b","session_id":"643c25205c63c85aa9b81c0a","study_id":"64370a36d30bfa807bc7e43c"},{"rt":4841,"response":{"prediction":"93"},"trial_type":"survey-text","trial_index":62,"time_elapsed":310025,"internal_node_id":"0.0-3.0-0.14","prolific_id":"62e12eafa1f5eeafaf30f23b","session_id":"643c25205c63c85aa9b81c0a","study_id":"64370a36d30bfa807bc7e43c"},{"rt":4596,"response":{"prior knowledge":1,"curiosity":3},"accuracy":[],"trial_type":"survey","trial_index":63,"time_elapsed":314639,"internal_node_id":"0.0-3.0-1.14","prolific_id":"62e12eafa1f5eeafaf30f23b","session_id":"643c25205c63c85aa9b81c0a","study_id":"64370a36d30bfa807bc7e43c"},{"rt":null,"stimulus":"\n\t\t\t<div class=\"flip_card\">\n\t\t\t\t<div class=\"flip_card_inner\">\n\t\t\t\t\t<div class=\"flip_card_front\">\n\t\t\t\t\t\t<img src=img/2.png>\n\t\t\t\t\t</div>\n\t\t\t\t\t<div class=\"flip_card_back\">\n\t\t\t\t\t\t<h2>How many countries are in Africa?</h2>\n\t\t\t\t\t\t<br>\n\t\t\t\t\t\t<p>Answer: <strong>54</strong></p>\n\t\t\t\t\t</div>\n\t\t\t\t</div>\n\t\t\t</div>\n\t\t\t","response":null,"trial_type":"html-keyboard-response","trial_index":64,"time_elapsed":319656,"internal_node_id":"0.0-3.0-2.14","prolific_id":"62e12eafa1f5eeafaf30f23b","session_id":"643c25205c63c85aa9b81c0a","study_id":"64370a36d30bfa807bc7e43c"},{"rt":1247,"stimulus":"\n\t\t\t\t\t<div>\n\t\t\t\t\t<h2>Trial 15 is over</h2>\n\t\t\t\t\t<p>Press <span style=\"color: red\"><strong>any key</strong></span> to continue to the next trial</p>\n\t\t\t\t\t</div>\n\t\t\t\t","response":"arrowright","trial_type":"html-keyboard-response","trial_index":65,"time_elapsed":320904,"internal_node_id":"0.0-3.0-3.14","prolific_id":"62e12eafa1f5eeafaf30f23b","session_id":"643c25205c63c85aa9b81c0a","study_id":"64370a36d30bfa807bc7e43c"},{"rt":4857,"response":{"prediction":"14"},"trial_type":"survey-text","trial_index":66,"time_elapsed":325765,"internal_node_id":"0.0-3.0-0.15","prolific_id":"62e12eafa1f5eeafaf30f23b","session_id":"643c25205c63c85aa9b81c0a","study_id":"64370a36d30bfa807bc7e43c"},{"rt":5609,"response":{"prior knowledge":2,"curiosity":1},"accuracy":[],"trial_type":"survey","trial_index":67,"time_elapsed":331392,"internal_node_id":"0.0-3.0-1.15","prolific_id":"62e12eafa1f5eeafaf30f23b","session_id":"643c25205c63c85aa9b81c0a","study_id":"64370a36d30bfa807bc7e43c"},{"rt":null,"stimulus":"\n\t\t\t<div class=\"flip_card\">\n\t\t\t\t<div class=\"flip_card_inner\">\n\t\t\t\t\t<div class=\"flip_card_front\">\n\t\t\t\t\t\t<img src=img/28.png>\n\t\t\t\t\t</div>\n\t\t\t\t\t<div class=\"flip_card_back\">\n\t\t\t\t\t\t<h2>How old was King Tut when he died?</h2>\n\t\t\t\t\t\t<br>\n\t\t\t\t\t\t<p>Answer: <strong>19</strong></p>\n\t\t\t\t\t</div>\n\t\t\t\t</div>\n\t\t\t</div>\n\t\t\t","response":null,"trial_type":"html-keyboard-response","trial_index":68,"time_elapsed":336407,"internal_node_id":"0.0-3.0-2.15","prolific_id":"62e12eafa1f5eeafaf30f23b","session_id":"643c25205c63c85aa9b81c0a","study_id":"64370a36d30bfa807bc7e43c"},{"rt":961,"stimulus":"\n\t\t\t\t\t<div>\n\t\t\t\t\t<h2>Trial 16 is over</h2>\n\t\t\t\t\t<p>Press <span style=\"color: red\"><strong>any key</strong></span> to continue to the next trial</p>\n\t\t\t\t\t</div>\n\t\t\t\t","response":"arrowright","trial_type":"html-keyboard-response","trial_index":69,"time_elapsed":337369,"internal_node_id":"0.0-3.0-3.15","prolific_id":"62e12eafa1f5eeafaf30f23b","session_id":"643c25205c63c85aa9b81c0a","study_id":"64370a36d30bfa807bc7e43c"},{"rt":6206,"response":{"prediction":"2007"},"trial_type":"survey-text","trial_index":70,"time_elapsed":343578,"internal_node_id":"0.0-3.0-0.16","prolific_id":"62e12eafa1f5eeafaf30f23b","session_id":"643c25205c63c85aa9b81c0a","study_id":"64370a36d30bfa807bc7e43c"},{"rt":4288,"response":{"prior knowledge":1,"curiosity":0},"accuracy":[],"trial_type":"survey","trial_index":71,"time_elapsed":347886,"internal_node_id":"0.0-3.0-1.16","prolific_id":"62e12eafa1f5eeafaf30f23b","session_id":"643c25205c63c85aa9b81c0a","study_id":"64370a36d30bfa807bc7e43c"},{"rt":null,"stimulus":"\n\t\t\t<div class=\"flip_card\">\n\t\t\t\t<div class=\"flip_card_inner\">\n\t\t\t\t\t<div class=\"flip_card_front\">\n\t\t\t\t\t\t<img src=img/23.png>\n\t\t\t\t\t</div>\n\t\t\t\t\t<div class=\"flip_card_back\">\n\t\t\t\t\t\t<h2>What year was the very first model of the iPhone released?</h2>\n\t\t\t\t\t\t<br>\n\t\t\t\t\t\t<p>Answer: <strong>2007</strong></p>\n\t\t\t\t\t</div>\n\t\t\t\t</div>\n\t\t\t</div>\n\t\t\t","response":null,"trial_type":"html-keyboard-response","trial_index":72,"time_elapsed":352891,"internal_node_id":"0.0-3.0-2.16","prolific_id":"62e12eafa1f5eeafaf30f23b","session_id":"643c25205c63c85aa9b81c0a","study_id":"64370a36d30bfa807bc7e43c"},{"rt":1164,"stimulus":"\n\t\t\t\t\t<div>\n\t\t\t\t\t<h2>Trial 17 is over</h2>\n\t\t\t\t\t<p>Press <span style=\"color: red\"><strong>any key</strong></span> to continue to the next trial</p>\n\t\t\t\t\t</div>\n\t\t\t\t","response":"arrowright","trial_type":"html-keyboard-response","trial_index":73,"time_elapsed":354056,"internal_node_id":"0.0-3.0-3.16","prolific_id":"62e12eafa1f5eeafaf30f23b","session_id":"643c25205c63c85aa9b81c0a","study_id":"64370a36d30bfa807bc7e43c"},{"rt":5004,"response":{"prediction":"1984"},"trial_type":"survey-text","trial_index":74,"time_elapsed":359063,"internal_node_id":"0.0-3.0-0.17","prolific_id":"62e12eafa1f5eeafaf30f23b","session_id":"643c25205c63c85aa9b81c0a","study_id":"64370a36d30bfa807bc7e43c"},{"rt":4922,"response":{"prior knowledge":3,"curiosity":1},"accuracy":[],"trial_type":"survey","trial_index":75,"time_elapsed":364004,"internal_node_id":"0.0-3.0-1.17","prolific_id":"62e12eafa1f5eeafaf30f23b","session_id":"643c25205c63c85aa9b81c0a","study_id":"64370a36d30bfa807bc7e43c"},{"rt":null,"stimulus":"\n\t\t\t<div class=\"flip_card\">\n\t\t\t\t<div class=\"flip_card_inner\">\n\t\t\t\t\t<div class=\"flip_card_front\">\n\t\t\t\t\t\t<img src=img/13.png>\n\t\t\t\t\t</div>\n\t\t\t\t\t<div class=\"flip_card_back\">\n\t\t\t\t\t\t<h2>What year did the Berlin Wall fall?</h2>\n\t\t\t\t\t\t<br>\n\t\t\t\t\t\t<p>Answer: <strong>1989</strong></p>\n\t\t\t\t\t</div>\n\t\t\t\t</div>\n\t\t\t</div>\n\t\t\t","response":null,"trial_type":"html-keyboard-response","trial_index":76,"time_elapsed":369009,"internal_node_id":"0.0-3.0-2.17","prolific_id":"62e12eafa1f5eeafaf30f23b","session_id":"643c25205c63c85aa9b81c0a","study_id":"64370a36d30bfa807bc7e43c"},{"rt":1167,"stimulus":"\n\t\t\t\t\t<div>\n\t\t\t\t\t<h2>Trial 18 is over</h2>\n\t\t\t\t\t<p>Press <span style=\"color: red\"><strong>any key</strong></span> to continue to the next trial</p>\n\t\t\t\t\t</div>\n\t\t\t\t","response":"arrowright","trial_type":"html-keyboard-response","trial_index":77,"time_elapsed":370177,"internal_node_id":"0.0-3.0-3.17","prolific_id":"62e12eafa1f5eeafaf30f23b","session_id":"643c25205c63c85aa9b81c0a","study_id":"64370a36d30bfa807bc7e43c"},{"rt":5970,"response":{"prediction":"1900"},"trial_type":"survey-text","trial_index":78,"time_elapsed":376150,"internal_node_id":"0.0-3.0-0.18","prolific_id":"62e12eafa1f5eeafaf30f23b","session_id":"643c25205c63c85aa9b81c0a","study_id":"64370a36d30bfa807bc7e43c"},{"rt":6149,"response":{"prior knowledge":0,"curiosity":0},"accuracy":[],"trial_type":"survey","trial_index":79,"time_elapsed":382318,"internal_node_id":"0.0-3.0-1.18","prolific_id":"62e12eafa1f5eeafaf30f23b","session_id":"643c25205c63c85aa9b81c0a","study_id":"64370a36d30bfa807bc7e43c"},{"rt":null,"stimulus":"\n\t\t\t<div class=\"flip_card\">\n\t\t\t\t<div class=\"flip_card_inner\">\n\t\t\t\t\t<div class=\"flip_card_front\">\n\t\t\t\t\t\t<img src=img/27.png>\n\t\t\t\t\t</div>\n\t\t\t\t\t<div class=\"flip_card_back\">\n\t\t\t\t\t\t<h2>In what year did the first Modern Olympic Games take place?</h2>\n\t\t\t\t\t\t<br>\n\t\t\t\t\t\t<p>Answer: <strong>1896</strong></p>\n\t\t\t\t\t</div>\n\t\t\t\t</div>\n\t\t\t</div>\n\t\t\t","response":null,"trial_type":"html-keyboard-response","trial_index":80,"time_elapsed":387327,"internal_node_id":"0.0-3.0-2.18","prolific_id":"62e12eafa1f5eeafaf30f23b","session_id":"643c25205c63c85aa9b81c0a","study_id":"64370a36d30bfa807bc7e43c"},{"rt":1266,"stimulus":"\n\t\t\t\t\t<div>\n\t\t\t\t\t<h2>Trial 19 is over</h2>\n\t\t\t\t\t<p>Press <span style=\"color: red\"><strong>any key</strong></span> to continue to the next trial</p>\n\t\t\t\t\t</div>\n\t\t\t\t","response":"arrowright","trial_type":"html-keyboard-response","trial_index":81,"time_elapsed":388594,"internal_node_id":"0.0-3.0-3.18","prolific_id":"62e12eafa1f5eeafaf30f23b","session_id":"643c25205c63c85aa9b81c0a","study_id":"64370a36d30bfa807bc7e43c"},{"rt":3546,"response":{"prediction":"1906"},"trial_type":"survey-text","trial_index":82,"time_elapsed":392143,"internal_node_id":"0.0-3.0-0.19","prolific_id":"62e12eafa1f5eeafaf30f23b","session_id":"643c25205c63c85aa9b81c0a","study_id":"64370a36d30bfa807bc7e43c"},{"rt":4912,"response":{"prior knowledge":1,"curiosity":0},"accuracy":[],"trial_type":"survey","trial_index":83,"time_elapsed":397075,"internal_node_id":"0.0-3.0-1.19","prolific_id":"62e12eafa1f5eeafaf30f23b","session_id":"643c25205c63c85aa9b81c0a","study_id":"64370a36d30bfa807bc7e43c"},{"rt":null,"stimulus":"\n\t\t\t<div class=\"flip_card\">\n\t\t\t\t<div class=\"flip_card_inner\">\n\t\t\t\t\t<div class=\"flip_card_front\">\n\t\t\t\t\t\t<img src=img/9.png>\n\t\t\t\t\t</div>\n\t\t\t\t\t<div class=\"flip_card_back\">\n\t\t\t\t\t\t<h2>What year did the titanic sink?</h2>\n\t\t\t\t\t\t<br>\n\t\t\t\t\t\t<p>Answer: <strong>1912</strong></p>\n\t\t\t\t\t</div>\n\t\t\t\t</div>\n\t\t\t</div>\n\t\t\t","response":null,"trial_type":"html-keyboard-response","trial_index":84,"time_elapsed":402091,"internal_node_id":"0.0-3.0-2.19","prolific_id":"62e12eafa1f5eeafaf30f23b","session_id":"643c25205c63c85aa9b81c0a","study_id":"64370a36d30bfa807bc7e43c"},{"rt":1093,"stimulus":"\n\t\t\t\t\t<div>\n\t\t\t\t\t<h2>Trial 20 is over</h2>\n\t\t\t\t\t<p>Press <span style=\"color: red\"><strong>any key</strong></span> to continue to the next trial</p>\n\t\t\t\t\t</div>\n\t\t\t\t","response":"arrowright","trial_type":"html-keyboard-response","trial_index":85,"time_elapsed":403185,"internal_node_id":"0.0-3.0-3.19","prolific_id":"62e12eafa1f5eeafaf30f23b","session_id":"643c25205c63c85aa9b81c0a","study_id":"64370a36d30bfa807bc7e43c"},{"rt":4299,"response":{"prediction":"30"},"trial_type":"survey-text","trial_index":86,"time_elapsed":407487,"internal_node_id":"0.0-3.0-0.20","prolific_id":"62e12eafa1f5eeafaf30f23b","session_id":"643c25205c63c85aa9b81c0a","study_id":"64370a36d30bfa807bc7e43c"},{"rt":3791,"response":{"prior knowledge":0,"curiosity":0},"accuracy":[],"trial_type":"survey","trial_index":87,"time_elapsed":411300,"internal_node_id":"0.0-3.0-1.20","prolific_id":"62e12eafa1f5eeafaf30f23b","session_id":"643c25205c63c85aa9b81c0a","study_id":"64370a36d30bfa807bc7e43c"},{"rt":null,"stimulus":"\n\t\t\t<div class=\"flip_card\">\n\t\t\t\t<div class=\"flip_card_inner\">\n\t\t\t\t\t<div class=\"flip_card_front\">\n\t\t\t\t\t\t<img src=img/24.png>\n\t\t\t\t\t</div>\n\t\t\t\t\t<div class=\"flip_card_back\">\n\t\t\t\t\t\t<h2>How many books has Stephen King published?</h2>\n\t\t\t\t\t\t<br>\n\t\t\t\t\t\t<p>Answer: <strong>65</strong></p>\n\t\t\t\t\t</div>\n\t\t\t\t</div>\n\t\t\t</div>\n\t\t\t","response":null,"trial_type":"html-keyboard-response","trial_index":88,"time_elapsed":416313,"internal_node_id":"0.0-3.0-2.20","prolific_id":"62e12eafa1f5eeafaf30f23b","session_id":"643c25205c63c85aa9b81c0a","study_id":"64370a36d30bfa807bc7e43c"},{"rt":1342,"stimulus":"\n\t\t\t\t\t<div>\n\t\t\t\t\t<h2>Trial 21 is over</h2>\n\t\t\t\t\t<p>Press <span style=\"color: red\"><strong>any key</strong></span> to continue to the next trial</p>\n\t\t\t\t\t</div>\n\t\t\t\t","response":"arrowright","trial_type":"html-keyboard-response","trial_index":89,"time_elapsed":417656,"internal_node_id":"0.0-3.0-3.20","prolific_id":"62e12eafa1f5eeafaf30f23b","session_id":"643c25205c63c85aa9b81c0a","study_id":"64370a36d30bfa807bc7e43c"},{"rt":2513,"response":{"prediction":"13"},"trial_type":"survey-text","trial_index":90,"time_elapsed":420173,"internal_node_id":"0.0-3.0-0.21","prolific_id":"62e12eafa1f5eeafaf30f23b","session_id":"643c25205c63c85aa9b81c0a","study_id":"64370a36d30bfa807bc7e43c"},{"rt":3682,"response":{"prior knowledge":5,"curiosity":0},"accuracy":[],"trial_type":"survey","trial_index":91,"time_elapsed":423875,"internal_node_id":"0.0-3.0-1.21","prolific_id":"62e12eafa1f5eeafaf30f23b","session_id":"643c25205c63c85aa9b81c0a","study_id":"64370a36d30bfa807bc7e43c"},{"rt":null,"stimulus":"\n\t\t\t<div class=\"flip_card\">\n\t\t\t\t<div class=\"flip_card_inner\">\n\t\t\t\t\t<div class=\"flip_card_front\">\n\t\t\t\t\t\t<img src=img/10.png>\n\t\t\t\t\t</div>\n\t\t\t\t\t<div class=\"flip_card_back\">\n\t\t\t\t\t\t<h2>How much is in a Baker's Dozen?</h2>\n\t\t\t\t\t\t<br>\n\t\t\t\t\t\t<p>Answer: <strong>13</strong></p>\n\t\t\t\t\t</div>\n\t\t\t\t</div>\n\t\t\t</div>\n\t\t\t","response":null,"trial_type":"html-keyboard-response","trial_index":92,"time_elapsed":428889,"internal_node_id":"0.0-3.0-2.21","prolific_id":"62e12eafa1f5eeafaf30f23b","session_id":"643c25205c63c85aa9b81c0a","study_id":"64370a36d30bfa807bc7e43c"},{"rt":742,"stimulus":"\n\t\t\t\t\t<div>\n\t\t\t\t\t<h2>Trial 22 is over</h2>\n\t\t\t\t\t<p>Press <span style=\"color: red\"><strong>any key</strong></span> to continue to the next trial</p>\n\t\t\t\t\t</div>\n\t\t\t\t","response":"arrowright","trial_type":"html-keyboard-response","trial_index":93,"time_elapsed":429631,"internal_node_id":"0.0-3.0-3.21","prolific_id":"62e12eafa1f5eeafaf30f23b","session_id":"643c25205c63c85aa9b81c0a","study_id":"64370a36d30bfa807bc7e43c"},{"rt":5045,"response":{"prediction":"4"},"trial_type":"survey-text","trial_index":94,"time_elapsed":434680,"internal_node_id":"0.0-3.0-0.22","prolific_id":"62e12eafa1f5eeafaf30f23b","session_id":"643c25205c63c85aa9b81c0a","study_id":"64370a36d30bfa807bc7e43c"},{"rt":3715,"response":{"prior knowledge":0,"curiosity":2},"accuracy":[],"trial_type":"survey","trial_index":95,"time_elapsed":438412,"internal_node_id":"0.0-3.0-1.22","prolific_id":"62e12eafa1f5eeafaf30f23b","session_id":"643c25205c63c85aa9b81c0a","study_id":"64370a36d30bfa807bc7e43c"},{"rt":null,"stimulus":"\n\t\t\t<div class=\"flip_card\">\n\t\t\t\t<div class=\"flip_card_inner\">\n\t\t\t\t\t<div class=\"flip_card_front\">\n\t\t\t\t\t\t<img src=img/25.png>\n\t\t\t\t\t</div>\n\t\t\t\t\t<div class=\"flip_card_back\">\n\t\t\t\t\t\t<h2>How many tones are in the Vietnamese language?</h2>\n\t\t\t\t\t\t<br>\n\t\t\t\t\t\t<p>Answer: <strong>6</strong></p>\n\t\t\t\t\t</div>\n\t\t\t\t</div>\n\t\t\t</div>\n\t\t\t","response":null,"trial_type":"html-keyboard-response","trial_index":96,"time_elapsed":443424,"internal_node_id":"0.0-3.0-2.22","prolific_id":"62e12eafa1f5eeafaf30f23b","session_id":"643c25205c63c85aa9b81c0a","study_id":"64370a36d30bfa807bc7e43c"},{"rt":1084,"stimulus":"\n\t\t\t\t\t<div>\n\t\t\t\t\t<h2>Trial 23 is over</h2>\n\t\t\t\t\t<p>Press <span style=\"color: red\"><strong>any key</strong></span> to continue to the next trial</p>\n\t\t\t\t\t</div>\n\t\t\t\t","response":"arrowdown","trial_type":"html-keyboard-response","trial_index":97,"time_elapsed":444509,"internal_node_id":"0.0-3.0-3.22","prolific_id":"62e12eafa1f5eeafaf30f23b","session_id":"643c25205c63c85aa9b81c0a","study_id":"64370a36d30bfa807bc7e43c"},{"rt":4394,"response":{"prediction":"11"},"trial_type":"survey-text","trial_index":98,"time_elapsed":448906,"internal_node_id":"0.0-3.0-0.23","prolific_id":"62e12eafa1f5eeafaf30f23b","session_id":"643c25205c63c85aa9b81c0a","study_id":"64370a36d30bfa807bc7e43c"},{"rt":4458,"response":{"prior knowledge":5,"curiosity":0},"accuracy":[],"trial_type":"survey","trial_index":99,"time_elapsed":453384,"internal_node_id":"0.0-3.0-1.23","prolific_id":"62e12eafa1f5eeafaf30f23b","session_id":"643c25205c63c85aa9b81c0a","study_id":"64370a36d30bfa807bc7e43c"},{"rt":null,"stimulus":"\n\t\t\t<div class=\"flip_card\">\n\t\t\t\t<div class=\"flip_card_inner\">\n\t\t\t\t\t<div class=\"flip_card_front\">\n\t\t\t\t\t\t<img src=img/8.png>\n\t\t\t\t\t</div>\n\t\t\t\t\t<div class=\"flip_card_back\">\n\t\t\t\t\t\t<h2>How many soccer players should each team have on the field at the start of each match?</h2>\n\t\t\t\t\t\t<br>\n\t\t\t\t\t\t<p>Answer: <strong>11</strong></p>\n\t\t\t\t\t</div>\n\t\t\t\t</div>\n\t\t\t</div>\n\t\t\t","response":null,"trial_type":"html-keyboard-response","trial_index":100,"time_elapsed":458392,"internal_node_id":"0.0-3.0-2.23","prolific_id":"62e12eafa1f5eeafaf30f23b","session_id":"643c25205c63c85aa9b81c0a","study_id":"64370a36d30bfa807bc7e43c"},{"rt":1636,"stimulus":"\n\t\t\t\t\t<div>\n\t\t\t\t\t<h2>Trial 24 is over</h2>\n\t\t\t\t\t<p>Press <span style=\"color: red\"><strong>any key</strong></span> to continue to the next trial</p>\n\t\t\t\t\t</div>\n\t\t\t\t","response":"arrowright","trial_type":"html-keyboard-response","trial_index":101,"time_elapsed":460028,"internal_node_id":"0.0-3.0-3.23","prolific_id":"62e12eafa1f5eeafaf30f23b","session_id":"643c25205c63c85aa9b81c0a","study_id":"64370a36d30bfa807bc7e43c"},{"rt":11994,"response":{"prediction":"150000"},"trial_type":"survey-text","trial_index":102,"time_elapsed":472025,"internal_node_id":"0.0-3.0-0.24","prolific_id":"62e12eafa1f5eeafaf30f23b","session_id":"643c25205c63c85aa9b81c0a","study_id":"64370a36d30bfa807bc7e43c"},{"rt":4331,"response":{"prior knowledge":1,"curiosity":4},"accuracy":[],"trial_type":"survey","trial_index":103,"time_elapsed":476377,"internal_node_id":"0.0-3.0-1.24","prolific_id":"62e12eafa1f5eeafaf30f23b","session_id":"643c25205c63c85aa9b81c0a","study_id":"64370a36d30bfa807bc7e43c"},{"rt":null,"stimulus":"\n\t\t\t<div class=\"flip_card\">\n\t\t\t\t<div class=\"flip_card_inner\">\n\t\t\t\t\t<div class=\"flip_card_front\">\n\t\t\t\t\t\t<img src=img/29.png>\n\t\t\t\t\t</div>\n\t\t\t\t\t<div class=\"flip_card_back\">\n\t\t\t\t\t\t<h2>What is the diameter of Earth in miles?</h2>\n\t\t\t\t\t\t<br>\n\t\t\t\t\t\t<p>Answer: <strong>7917.5</strong></p>\n\t\t\t\t\t</div>\n\t\t\t\t</div>\n\t\t\t</div>\n\t\t\t","response":null,"trial_type":"html-keyboard-response","trial_index":104,"time_elapsed":481389,"internal_node_id":"0.0-3.0-2.24","prolific_id":"62e12eafa1f5eeafaf30f23b","session_id":"643c25205c63c85aa9b81c0a","study_id":"64370a36d30bfa807bc7e43c"},{"rt":3729,"stimulus":"\n\t\t\t\t\t<div>\n\t\t\t\t\t<h2>Trial 25 is over</h2>\n\t\t\t\t\t<p>Press <span style=\"color: red\"><strong>any key</strong></span> to continue to the next trial</p>\n\t\t\t\t\t</div>\n\t\t\t\t","response":"arrowright","trial_type":"html-keyboard-response","trial_index":105,"time_elapsed":485118,"internal_node_id":"0.0-3.0-3.24","prolific_id":"62e12eafa1f5eeafaf30f23b","session_id":"643c25205c63c85aa9b81c0a","study_id":"64370a36d30bfa807bc7e43c"},{"rt":4311,"response":{"prediction":"15"},"trial_type":"survey-text","trial_index":106,"time_elapsed":489433,"internal_node_id":"0.0-3.0-0.25","prolific_id":"62e12eafa1f5eeafaf30f23b","session_id":"643c25205c63c85aa9b81c0a","study_id":"64370a36d30bfa807bc7e43c"},{"rt":4985,"response":{"prior knowledge":1,"curiosity":1},"accuracy":[],"trial_type":"survey","trial_index":107,"time_elapsed":494435,"internal_node_id":"0.0-3.0-1.25","prolific_id":"62e12eafa1f5eeafaf30f23b","session_id":"643c25205c63c85aa9b81c0a","study_id":"64370a36d30bfa807bc7e43c"},{"rt":null,"stimulus":"\n\t\t\t<div class=\"flip_card\">\n\t\t\t\t<div class=\"flip_card_inner\">\n\t\t\t\t\t<div class=\"flip_card_front\">\n\t\t\t\t\t\t<img src=img/12.png>\n\t\t\t\t\t</div>\n\t\t\t\t\t<div class=\"flip_card_back\">\n\t\t\t\t\t\t<h2>A bar mitzvah is traditionally celebrated when Jewish males turn what age?</h2>\n\t\t\t\t\t\t<br>\n\t\t\t\t\t\t<p>Answer: <strong>13</strong></p>\n\t\t\t\t\t</div>\n\t\t\t\t</div>\n\t\t\t</div>\n\t\t\t","response":null,"trial_type":"html-keyboard-response","trial_index":108,"time_elapsed":499453,"internal_node_id":"0.0-3.0-2.25","prolific_id":"62e12eafa1f5eeafaf30f23b","session_id":"643c25205c63c85aa9b81c0a","study_id":"64370a36d30bfa807bc7e43c"},{"rt":1167,"stimulus":"\n\t\t\t\t\t<div>\n\t\t\t\t\t<h2>Trial 26 is over</h2>\n\t\t\t\t\t<p>Press <span style=\"color: red\"><strong>any key</strong></span> to continue to the next trial</p>\n\t\t\t\t\t</div>\n\t\t\t\t","response":"arrowdown","trial_type":"html-keyboard-response","trial_index":109,"time_elapsed":500622,"internal_node_id":"0.0-3.0-3.25","prolific_id":"62e12eafa1f5eeafaf30f23b","session_id":"643c25205c63c85aa9b81c0a","study_id":"64370a36d30bfa807bc7e43c"},{"rt":4520,"response":{"prediction":"2"},"trial_type":"survey-text","trial_index":110,"time_elapsed":505144,"internal_node_id":"0.0-3.0-0.26","prolific_id":"62e12eafa1f5eeafaf30f23b","session_id":"643c25205c63c85aa9b81c0a","study_id":"64370a36d30bfa807bc7e43c"},{"rt":3943,"response":{"prior knowledge":0,"curiosity":0},"accuracy":[],"trial_type":"survey","trial_index":111,"time_elapsed":509108,"internal_node_id":"0.0-3.0-1.26","prolific_id":"62e12eafa1f5eeafaf30f23b","session_id":"643c25205c63c85aa9b81c0a","study_id":"64370a36d30bfa807bc7e43c"},{"rt":null,"stimulus":"\n\t\t\t<div class=\"flip_card\">\n\t\t\t\t<div class=\"flip_card_inner\">\n\t\t\t\t\t<div class=\"flip_card_front\">\n\t\t\t\t\t\t<img src=img/1.png>\n\t\t\t\t\t</div>\n\t\t\t\t\t<div class=\"flip_card_back\">\n\t\t\t\t\t\t<h2>How many native species of kangaroos are found in Australia?</h2>\n\t\t\t\t\t\t<br>\n\t\t\t\t\t\t<p>Answer: <strong>4</strong></p>\n\t\t\t\t\t</div>\n\t\t\t\t</div>\n\t\t\t</div>\n\t\t\t","response":null,"trial_type":"html-keyboard-response","trial_index":112,"time_elapsed":514110,"internal_node_id":"0.0-3.0-2.26","prolific_id":"62e12eafa1f5eeafaf30f23b","session_id":"643c25205c63c85aa9b81c0a","study_id":"64370a36d30bfa807bc7e43c"},{"rt":1277,"stimulus":"\n\t\t\t\t\t<div>\n\t\t\t\t\t<h2>Trial 27 is over</h2>\n\t\t\t\t\t<p>Press <span style=\"color: red\"><strong>any key</strong></span> to continue to the next trial</p>\n\t\t\t\t\t</div>\n\t\t\t\t","response":"arrowright","trial_type":"html-keyboard-response","trial_index":113,"time_elapsed":515387,"internal_node_id":"0.0-3.0-3.26","prolific_id":"62e12eafa1f5eeafaf30f23b","session_id":"643c25205c63c85aa9b81c0a","study_id":"64370a36d30bfa807bc7e43c"},{"rt":4106,"response":{"prediction":"10"},"trial_type":"survey-text","trial_index":114,"time_elapsed":519497,"internal_node_id":"0.0-3.0-0.27","prolific_id":"62e12eafa1f5eeafaf30f23b","session_id":"643c25205c63c85aa9b81c0a","study_id":"64370a36d30bfa807bc7e43c"},{"rt":3774,"response":{"prior knowledge":5,"curiosity":0},"accuracy":[],"trial_type":"survey","trial_index":115,"time_elapsed":523288,"internal_node_id":"0.0-3.0-1.27","prolific_id":"62e12eafa1f5eeafaf30f23b","session_id":"643c25205c63c85aa9b81c0a","study_id":"64370a36d30bfa807bc7e43c"},{"rt":null,"stimulus":"\n\t\t\t<div class=\"flip_card\">\n\t\t\t\t<div class=\"flip_card_inner\">\n\t\t\t\t\t<div class=\"flip_card_front\">\n\t\t\t\t\t\t<img src=img/20.png>\n\t\t\t\t\t</div>\n\t\t\t\t\t<div class=\"flip_card_back\">\n\t\t\t\t\t\t<h2>How many lines are in a sonnet?</h2>\n\t\t\t\t\t\t<br>\n\t\t\t\t\t\t<p>Answer: <strong>14</strong></p>\n\t\t\t\t\t</div>\n\t\t\t\t</div>\n\t\t\t</div>\n\t\t\t","response":null,"trial_type":"html-keyboard-response","trial_index":116,"time_elapsed":528305,"internal_node_id":"0.0-3.0-2.27","prolific_id":"62e12eafa1f5eeafaf30f23b","session_id":"643c25205c63c85aa9b81c0a","study_id":"64370a36d30bfa807bc7e43c"},{"rt":1138,"stimulus":"\n\t\t\t\t\t<div>\n\t\t\t\t\t<h2>Trial 28 is over</h2>\n\t\t\t\t\t<p>Press <span style=\"color: red\"><strong>any key</strong></span> to continue to the next trial</p>\n\t\t\t\t\t</div>\n\t\t\t\t","response":"arrowright","trial_type":"html-keyboard-response","trial_index":117,"time_elapsed":529443,"internal_node_id":"0.0-3.0-3.27","prolific_id":"62e12eafa1f5eeafaf30f23b","session_id":"643c25205c63c85aa9b81c0a","study_id":"64370a36d30bfa807bc7e43c"},{"rt":5164,"response":{"prediction":"72"},"trial_type":"survey-text","trial_index":118,"time_elapsed":534610,"internal_node_id":"0.0-3.0-0.28","prolific_id":"62e12eafa1f5eeafaf30f23b","session_id":"643c25205c63c85aa9b81c0a","study_id":"64370a36d30bfa807bc7e43c"},{"rt":5672,"response":{"prior knowledge":1,"curiosity":2},"accuracy":[],"trial_type":"survey","trial_index":119,"time_elapsed":540302,"internal_node_id":"0.0-3.0-1.28","prolific_id":"62e12eafa1f5eeafaf30f23b","session_id":"643c25205c63c85aa9b81c0a","study_id":"64370a36d30bfa807bc7e43c"},{"rt":null,"stimulus":"\n\t\t\t<div class=\"flip_card\">\n\t\t\t\t<div class=\"flip_card_inner\">\n\t\t\t\t\t<div class=\"flip_card_front\">\n\t\t\t\t\t\t<img src=img/26.png>\n\t\t\t\t\t</div>\n\t\t\t\t\t<div class=\"flip_card_back\">\n\t\t\t\t\t\t<h2>How many double stitches does a baseball have?</h2>\n\t\t\t\t\t\t<br>\n\t\t\t\t\t\t<p>Answer: <strong>108</strong></p>\n\t\t\t\t\t</div>\n\t\t\t\t</div>\n\t\t\t</div>\n\t\t\t","response":null,"trial_type":"html-keyboard-response","trial_index":120,"time_elapsed":545312,"internal_node_id":"0.0-3.0-2.28","prolific_id":"62e12eafa1f5eeafaf30f23b","session_id":"643c25205c63c85aa9b81c0a","study_id":"64370a36d30bfa807bc7e43c"},{"rt":1073,"stimulus":"\n\t\t\t\t\t<div>\n\t\t\t\t\t<h2>Trial 29 is over</h2>\n\t\t\t\t\t<p>Press <span style=\"color: red\"><strong>any key</strong></span> to continue to the next trial</p>\n\t\t\t\t\t</div>\n\t\t\t\t","response":"arrowright","trial_type":"html-keyboard-response","trial_index":121,"time_elapsed":546385,"internal_node_id":"0.0-3.0-3.28","prolific_id":"62e12eafa1f5eeafaf30f23b","session_id":"643c25205c63c85aa9b81c0a","study_id":"64370a36d30bfa807bc7e43c"},{"rt":5049,"response":{"prediction":"120"},"trial_type":"survey-text","trial_index":122,"time_elapsed":551438,"internal_node_id":"0.0-3.0-0.29","prolific_id":"62e12eafa1f5eeafaf30f23b","session_id":"643c25205c63c85aa9b81c0a","study_id":"64370a36d30bfa807bc7e43c"},{"rt":3837,"response":{"prior knowledge":0,"curiosity":3},"accuracy":[],"trial_type":"survey","trial_index":123,"time_elapsed":555295,"internal_node_id":"0.0-3.0-1.29","prolific_id":"62e12eafa1f5eeafaf30f23b","session_id":"643c25205c63c85aa9b81c0a","study_id":"64370a36d30bfa807bc7e43c"},{"rt":null,"stimulus":"\n\t\t\t<div class=\"flip_card\">\n\t\t\t\t<div class=\"flip_card_inner\">\n\t\t\t\t\t<div class=\"flip_card_front\">\n\t\t\t\t\t\t<img src=img/3.png>\n\t\t\t\t\t</div>\n\t\t\t\t\t<div class=\"flip_card_back\">\n\t\t\t\t\t\t<h2>How many floors are in the Burj Khalifa, the tallest building in the world?</h2>\n\t\t\t\t\t\t<br>\n\t\t\t\t\t\t<p>Answer: <strong>163</strong></p>\n\t\t\t\t\t</div>\n\t\t\t\t</div>\n\t\t\t</div>\n\t\t\t","response":null,"trial_type":"html-keyboard-response","trial_index":124,"time_elapsed":560307,"internal_node_id":"0.0-3.0-2.29","prolific_id":"62e12eafa1f5eeafaf30f23b","session_id":"643c25205c63c85aa9b81c0a","study_id":"64370a36d30bfa807bc7e43c"},{"rt":1337,"stimulus":"\n\t\t\t\t\t<div>\n\t\t\t\t\t<h2>Trial 30 is over</h2>\n\t\t\t\t\t<p>Press <span style=\"color: red\"><strong>any key</strong></span> to continue to the next trial</p>\n\t\t\t\t\t</div>\n\t\t\t\t","response":"arrowright","trial_type":"html-keyboard-response","trial_index":125,"time_elapsed":561645,"internal_node_id":"0.0-3.0-3.29","prolific_id":"62e12eafa1f5eeafaf30f23b","session_id":"643c25205c63c85aa9b81c0a","study_id":"64370a36d30bfa807bc7e43c"},{"rt":null,"stimulus":"\n\t\t\t<h2>Good job! You've finished the 30 trials:p</h2>\n\t\t\t<p>In the next session, you will see two cards on the screen in each trial.</p>\n\t\t\t<p>On one card is a pattern that you have seen before in the experiment,\n\t\t\t\tand on the other card is one you have not seen.</p><br>\n\t\t\t<p>Your task is to choose the one you think you <em>have</em> seen before for every trial.</p>\n\t\t\t<p>Press '<span style=\"color: red;\"><strong>F</strong></span>' to choose the card on the left,\n\t\t\t\tand '<span style=\"color: red;\"><strong>J</strong></span>' to choose the card on the right.</p>\n\t\t\t<p>Have fun!</p>\n\t\t\t<br>\n\t\t\t<p>The trials will begin in 30 seconds</p>\n\t\t\t","response":null,"trial_type":"html-keyboard-response","trial_index":126,"time_elapsed":591655,"internal_node_id":"0.0-4.0","prolific_id":"62e12eafa1f5eeafaf30f23b","session_id":"643c25205c63c85aa9b81c0a","study_id":"64370a36d30bfa807bc7e43c"},{"rt":1486,"stimulus":"\n\t\t\t\t\t\t<div class=\"two_card_container\">\n\t\t\t\t\t\t<div class=\"card_container\">\n\t\t\t\t\t\t<img src=img/14.png>\n\t\t\t\t\t\t</div>\n\n\t\t\t\t\t\t<div class=\"card_container\">\n\t\t\t\t\t\t<img src=img/35.png>\n\t\t\t\t\t\t</div>","response":"f","task":"response","correct_response":"f","trial_type":"html-keyboard-response","trial_index":127,"time_elapsed":593144,"internal_node_id":"0.0-5.0-0.0","prolific_id":"62e12eafa1f5eeafaf30f23b","session_id":"643c25205c63c85aa9b81c0a","study_id":"64370a36d30bfa807bc7e43c","correct":true},{"rt":null,"stimulus":"\n\t\t\t\t\t<p>Correct!</p>\n\t\t\t\t\t","response":null,"trial_type":"html-keyboard-response","trial_index":128,"time_elapsed":594161,"internal_node_id":"0.0-5.0-1.0","prolific_id":"62e12eafa1f5eeafaf30f23b","session_id":"643c25205c63c85aa9b81c0a","study_id":"64370a36d30bfa807bc7e43c"},{"rt":1112,"stimulus":"\n\t\t\t\t\t\t<div class=\"two_card_container\">\n\t\t\t\t\t\t<div class=\"card_container\">\n\t\t\t\t\t\t<img src=img/34.png>\n\t\t\t\t\t\t</div>\n\n\t\t\t\t\t\t<div class=\"card_container\">\n\t\t\t\t\t\t<img src=img/2.png>\n\t\t\t\t\t\t</div>","response":"j","task":"response","correct_response":"j","trial_type":"html-keyboard-response","trial_index":129,"time_elapsed":595274,"internal_node_id":"0.0-5.0-0.1","prolific_id":"62e12eafa1f5eeafaf30f23b","session_id":"643c25205c63c85aa9b81c0a","study_id":"64370a36d30bfa807bc7e43c","correct":true},{"rt":null,"stimulus":"\n\t\t\t\t\t<p>Correct!</p>\n\t\t\t\t\t","response":null,"trial_type":"html-keyboard-response","trial_index":130,"time_elapsed":596289,"internal_node_id":"0.0-5.0-1.1","prolific_id":"62e12eafa1f5eeafaf30f23b","session_id":"643c25205c63c85aa9b81c0a","study_id":"64370a36d30bfa807bc7e43c"},{"rt":807,"stimulus":"\n\t\t\t\t\t\t<div class=\"two_card_container\">\n\t\t\t\t\t\t<div class=\"card_container\">\n\t\t\t\t\t\t<img src=img/26.png>\n\t\t\t\t\t\t</div>\n\n\t\t\t\t\t\t<div class=\"card_container\">\n\t\t\t\t\t\t<img src=img/36.png>\n\t\t\t\t\t\t</div>","response":"f","task":"response","correct_response":"f","trial_type":"html-keyboard-response","trial_index":131,"time_elapsed":597096,"internal_node_id":"0.0-5.0-0.2","prolific_id":"62e12eafa1f5eeafaf30f23b","session_id":"643c25205c63c85aa9b81c0a","study_id":"64370a36d30bfa807bc7e43c","correct":true},{"rt":null,"stimulus":"\n\t\t\t\t\t<p>Correct!</p>\n\t\t\t\t\t","response":null,"trial_type":"html-keyboard-response","trial_index":132,"time_elapsed":598105,"internal_node_id":"0.0-5.0-1.2","prolific_id":"62e12eafa1f5eeafaf30f23b","session_id":"643c25205c63c85aa9b81c0a","study_id":"64370a36d30bfa807bc7e43c"},{"rt":803,"stimulus":"\n\t\t\t\t\t\t<div class=\"two_card_container\">\n\t\t\t\t\t\t<div class=\"card_container\">\n\t\t\t\t\t\t<img src=img/10.png>\n\t\t\t\t\t\t</div>\n\n\t\t\t\t\t\t<div class=\"card_container\">\n\t\t\t\t\t\t<img src=img/33.png>\n\t\t\t\t\t\t</div>","response":"f","task":"response","correct_response":"f","trial_type":"html-keyboard-response","trial_index":133,"time_elapsed":598909,"internal_node_id":"0.0-5.0-0.3","prolific_id":"62e12eafa1f5eeafaf30f23b","session_id":"643c25205c63c85aa9b81c0a","study_id":"64370a36d30bfa807bc7e43c","correct":true},{"rt":null,"stimulus":"\n\t\t\t\t\t<p>Correct!</p>\n\t\t\t\t\t","response":null,"trial_type":"html-keyboard-response","trial_index":134,"time_elapsed":599921,"internal_node_id":"0.0-5.0-1.3","prolific_id":"62e12eafa1f5eeafaf30f23b","session_id":"643c25205c63c85aa9b81c0a","study_id":"64370a36d30bfa807bc7e43c"},{"rt":1441,"stimulus":"\n\t\t\t\t\t\t<div class=\"two_card_container\">\n\t\t\t\t\t\t<div class=\"card_container\">\n\t\t\t\t\t\t<img src=img/27.png>\n\t\t\t\t\t\t</div>\n\n\t\t\t\t\t\t<div class=\"card_container\">\n\t\t\t\t\t\t<img src=img/38.png>\n\t\t\t\t\t\t</div>","response":"f","task":"response","correct_response":"f","trial_type":"html-keyboard-response","trial_index":135,"time_elapsed":601363,"internal_node_id":"0.0-5.0-0.4","prolific_id":"62e12eafa1f5eeafaf30f23b","session_id":"643c25205c63c85aa9b81c0a","study_id":"64370a36d30bfa807bc7e43c","correct":true},{"rt":null,"stimulus":"\n\t\t\t\t\t<p>Correct!</p>\n\t\t\t\t\t","response":null,"trial_type":"html-keyboard-response","trial_index":136,"time_elapsed":602370,"internal_node_id":"0.0-5.0-1.4","prolific_id":"62e12eafa1f5eeafaf30f23b","session_id":"643c25205c63c85aa9b81c0a","study_id":"64370a36d30bfa807bc7e43c"},{"rt":1279,"stimulus":"\n\t\t\t\t\t\t<div class=\"two_card_container\">\n\t\t\t\t\t\t<div class=\"card_container\">\n\t\t\t\t\t\t<img src=img/31.png>\n\t\t\t\t\t\t</div>\n\n\t\t\t\t\t\t<div class=\"card_container\">\n\t\t\t\t\t\t<img src=img/11.png>\n\t\t\t\t\t\t</div>","response":"j","task":"response","correct_response":"j","trial_type":"html-keyboard-response","trial_index":137,"time_elapsed":603651,"internal_node_id":"0.0-5.0-0.5","prolific_id":"62e12eafa1f5eeafaf30f23b","session_id":"643c25205c63c85aa9b81c0a","study_id":"64370a36d30bfa807bc7e43c","correct":true},{"rt":null,"stimulus":"\n\t\t\t\t\t<p>Correct!</p>\n\t\t\t\t\t","response":null,"trial_type":"html-keyboard-response","trial_index":138,"time_elapsed":604664,"internal_node_id":"0.0-5.0-1.5","prolific_id":"62e12eafa1f5eeafaf30f23b","session_id":"643c25205c63c85aa9b81c0a","study_id":"64370a36d30bfa807bc7e43c"},{"rt":1002,"stimulus":"\n\t\t\t\t\t\t<div class=\"two_card_container\">\n\t\t\t\t\t\t<div class=\"card_container\">\n\t\t\t\t\t\t<img src=img/32.png>\n\t\t\t\t\t\t</div>\n\n\t\t\t\t\t\t<div class=\"card_container\">\n\t\t\t\t\t\t<img src=img/29.png>\n\t\t\t\t\t\t</div>","response":"j","task":"response","correct_response":"j","trial_type":"html-keyboard-response","trial_index":139,"time_elapsed":605667,"internal_node_id":"0.0-5.0-0.6","prolific_id":"62e12eafa1f5eeafaf30f23b","session_id":"643c25205c63c85aa9b81c0a","study_id":"64370a36d30bfa807bc7e43c","correct":true},{"rt":null,"stimulus":"\n\t\t\t\t\t<p>Correct!</p>\n\t\t\t\t\t","response":null,"trial_type":"html-keyboard-response","trial_index":140,"time_elapsed":606676,"internal_node_id":"0.0-5.0-1.6","prolific_id":"62e12eafa1f5eeafaf30f23b","session_id":"643c25205c63c85aa9b81c0a","study_id":"64370a36d30bfa807bc7e43c"},{"rt":715,"stimulus":"\n\t\t\t\t\t\t<div class=\"two_card_container\">\n\t\t\t\t\t\t<div class=\"card_container\">\n\t\t\t\t\t\t<img src=img/40.png>\n\t\t\t\t\t\t</div>\n\n\t\t\t\t\t\t<div class=\"card_container\">\n\t\t\t\t\t\t<img src=img/5.png>\n\t\t\t\t\t\t</div>","response":"j","task":"response","correct_response":"j","trial_type":"html-keyboard-response","trial_index":141,"time_elapsed":607393,"internal_node_id":"0.0-5.0-0.7","prolific_id":"62e12eafa1f5eeafaf30f23b","session_id":"643c25205c63c85aa9b81c0a","study_id":"64370a36d30bfa807bc7e43c","correct":true},{"rt":null,"stimulus":"\n\t\t\t\t\t<p>Correct!</p>\n\t\t\t\t\t","response":null,"trial_type":"html-keyboard-response","trial_index":142,"time_elapsed":608410,"internal_node_id":"0.0-5.0-1.7","prolific_id":"62e12eafa1f5eeafaf30f23b","session_id":"643c25205c63c85aa9b81c0a","study_id":"64370a36d30bfa807bc7e43c"},{"rt":680,"stimulus":"\n\t\t\t\t\t\t<div class=\"two_card_container\">\n\t\t\t\t\t\t<div class=\"card_container\">\n\t\t\t\t\t\t<img src=img/37.png>\n\t\t\t\t\t\t</div>\n\n\t\t\t\t\t\t<div class=\"card_container\">\n\t\t\t\t\t\t<img src=img/9.png>\n\t\t\t\t\t\t</div>","response":"j","task":"response","correct_response":"j","trial_type":"html-keyboard-response","trial_index":143,"time_elapsed":609091,"internal_node_id":"0.0-5.0-0.8","prolific_id":"62e12eafa1f5eeafaf30f23b","session_id":"643c25205c63c85aa9b81c0a","study_id":"64370a36d30bfa807bc7e43c","correct":true},{"rt":null,"stimulus":"\n\t\t\t\t\t<p>Correct!</p>\n\t\t\t\t\t","response":null,"trial_type":"html-keyboard-response","trial_index":144,"time_elapsed":610093,"internal_node_id":"0.0-5.0-1.8","prolific_id":"62e12eafa1f5eeafaf30f23b","session_id":"643c25205c63c85aa9b81c0a","study_id":"64370a36d30bfa807bc7e43c"},{"rt":1652,"stimulus":"\n\t\t\t\t\t\t<div class=\"two_card_container\">\n\t\t\t\t\t\t<div class=\"card_container\">\n\t\t\t\t\t\t<img src=img/12.png>\n\t\t\t\t\t\t</div>\n\n\t\t\t\t\t\t<div class=\"card_container\">\n\t\t\t\t\t\t<img src=img/39.png>\n\t\t\t\t\t\t</div>","response":"f","task":"response","correct_response":"f","trial_type":"html-keyboard-response","trial_index":145,"time_elapsed":611746,"internal_node_id":"0.0-5.0-0.9","prolific_id":"62e12eafa1f5eeafaf30f23b","session_id":"643c25205c63c85aa9b81c0a","study_id":"64370a36d30bfa807bc7e43c","correct":true},{"rt":null,"stimulus":"\n\t\t\t\t\t<p>Correct!</p>\n\t\t\t\t\t","response":null,"trial_type":"html-keyboard-response","trial_index":146,"time_elapsed":612763,"internal_node_id":"0.0-5.0-1.9","prolific_id":"62e12eafa1f5eeafaf30f23b","session_id":"643c25205c63c85aa9b81c0a","study_id":"64370a36d30bfa807bc7e43c"},{"rt":null,"stimulus":"\n\t\t\t<h2>Good job :p</h2>\n\t\t\t<p>In the next session, you will see a trivia question on the screen in each trial.</p>\n\t\t\t<p>Each of these trivia questions is chosen from the questions you have already seen in the first session of the experiment.</p><br>\n\t\t\t<p>Your task is to answer the trivia question based on what you remember as accurately as you can.</p>\n\t\t\t<p>Have fun!</p>\n\t\t\t<br>\n\t\t\t<p>The trials will begin in 30 seconds</p>\n\t\t\t","response":null,"trial_type":"html-keyboard-response","trial_index":147,"time_elapsed":642777,"internal_node_id":"0.0-6.0","prolific_id":"62e12eafa1f5eeafaf30f23b","session_id":"643c25205c63c85aa9b81c0a","study_id":"64370a36d30bfa807bc7e43c"},{"rt":5274,"response":{"answer":"1901"},"task":"response","correct_response":"1901","trial_type":"survey-text","trial_index":148,"time_elapsed":648054,"internal_node_id":"0.0-7.0-0.0","prolific_id":"62e12eafa1f5eeafaf30f23b","session_id":"643c25205c63c85aa9b81c0a","study_id":"64370a36d30bfa807bc7e43c","difference":0},{"rt":null,"stimulus":"<h2>The correct answer is 1901.</h2><p>Your answer was different from the answer by 0.</p><p>You got the right answer. Amazing work!</p>","response":null,"trial_type":"html-keyboard-response","trial_index":149,"time_elapsed":650562,"internal_node_id":"0.0-7.0-1.0","prolific_id":"62e12eafa1f5eeafaf30f23b","session_id":"643c25205c63c85aa9b81c0a","study_id":"64370a36d30bfa807bc7e43c"},{"rt":2062,"response":{"answer":"53"},"task":"response","correct_response":"54","trial_type":"survey-text","trial_index":150,"time_elapsed":652626,"internal_node_id":"0.0-7.0-0.1","prolific_id":"62e12eafa1f5eeafaf30f23b","session_id":"643c25205c63c85aa9b81c0a","study_id":"64370a36d30bfa807bc7e43c","difference":2},{"rt":null,"stimulus":"<h2>The correct answer is 54.</h2><p>Your answer was different from the answer by 1.</p><p>Excellent. Kudos to you!</p>","response":null,"trial_type":"html-keyboard-response","trial_index":151,"time_elapsed":655141,"internal_node_id":"0.0-7.0-1.1","prolific_id":"62e12eafa1f5eeafaf30f23b","session_id":"643c25205c63c85aa9b81c0a","study_id":"64370a36d30bfa807bc7e43c"},{"rt":1867,"response":{"answer":"6"},"task":"response","correct_response":"6","trial_type":"survey-text","trial_index":152,"time_elapsed":657011,"internal_node_id":"0.0-7.0-0.2","prolific_id":"62e12eafa1f5eeafaf30f23b","session_id":"643c25205c63c85aa9b81c0a","study_id":"64370a36d30bfa807bc7e43c","difference":0},{"rt":null,"stimulus":"<h2>The correct answer is 6.</h2><p>Your answer was different from the answer by 0.</p><p>You got the right answer. Amazing work!</p>","response":null,"trial_type":"html-keyboard-response","trial_index":153,"time_elapsed":659523,"internal_node_id":"0.0-7.0-1.2","prolific_id":"62e12eafa1f5eeafaf30f23b","session_id":"643c25205c63c85aa9b81c0a","study_id":"64370a36d30bfa807bc7e43c"},{"rt":3198,"response":{"answer":"1912"},"task":"response","correct_response":"1912","trial_type":"survey-text","trial_index":154,"time_elapsed":662723,"internal_node_id":"0.0-7.0-0.3","prolific_id":"62e12eafa1f5eeafaf30f23b","session_id":"643c25205c63c85aa9b81c0a","study_id":"64370a36d30bfa807bc7e43c","difference":0},{"rt":null,"stimulus":"<h2>The correct answer is 1912.</h2><p>Your answer was different from the answer by 0.</p><p>You got the right answer. Amazing work!</p>","response":null,"trial_type":"html-keyboard-response","trial_index":155,"time_elapsed":665230,"internal_node_id":"0.0-7.0-1.3","prolific_id":"62e12eafa1f5eeafaf30f23b","session_id":"643c25205c63c85aa9b81c0a","study_id":"64370a36d30bfa807bc7e43c"},{"rt":3308,"response":{"answer":"1989"},"task":"response","correct_response":"1989","trial_type":"survey-text","trial_index":156,"time_elapsed":668541,"internal_node_id":"0.0-7.0-0.4","prolific_id":"62e12eafa1f5eeafaf30f23b","session_id":"643c25205c63c85aa9b81c0a","study_id":"64370a36d30bfa807bc7e43c","difference":0},{"rt":null,"stimulus":"<h2>The correct answer is 1989.</h2><p>Your answer was different from the answer by 0.</p><p>You got the right answer. Amazing work!</p>","response":null,"trial_type":"html-keyboard-response","trial_index":157,"time_elapsed":671054,"internal_node_id":"0.0-7.0-1.4","prolific_id":"62e12eafa1f5eeafaf30f23b","session_id":"643c25205c63c85aa9b81c0a","study_id":"64370a36d30bfa807bc7e43c"},{"rt":2713,"response":{"answer":"8"},"task":"response","correct_response":"8","trial_type":"survey-text","trial_index":158,"time_elapsed":673769,"internal_node_id":"0.0-7.0-0.5","prolific_id":"62e12eafa1f5eeafaf30f23b","session_id":"643c25205c63c85aa9b81c0a","study_id":"64370a36d30bfa807bc7e43c","difference":0},{"rt":null,"stimulus":"<h2>The correct answer is 8.</h2><p>Your answer was different from the answer by 0.</p><p>You got the right answer. Amazing work!</p>","response":null,"trial_type":"html-keyboard-response","trial_index":159,"time_elapsed":676271,"internal_node_id":"0.0-7.0-1.5","prolific_id":"62e12eafa1f5eeafaf30f23b","session_id":"643c25205c63c85aa9b81c0a","study_id":"64370a36d30bfa807bc7e43c"},{"rt":3207,"response":{"answer":"103"},"task":"response","correct_response":"108","trial_type":"survey-text","trial_index":160,"time_elapsed":679481,"internal_node_id":"0.0-7.0-0.6","prolific_id":"62e12eafa1f5eeafaf30f23b","session_id":"643c25205c63c85aa9b81c0a","study_id":"64370a36d30bfa807bc7e43c","difference":5},{"rt":null,"stimulus":"<h2>The correct answer is 108.</h2><p>Your answer was different from the answer by 5.</p><p>Excellent. Kudos to you!</p>","response":null,"trial_type":"html-keyboard-response","trial_index":161,"time_elapsed":681984,"internal_node_id":"0.0-7.0-1.6","prolific_id":"62e12eafa1f5eeafaf30f23b","session_id":"643c25205c63c85aa9b81c0a","study_id":"64370a36d30bfa807bc7e43c"},{"rt":5831,"response":{"answer":"40"},"task":"response","correct_response":"28","trial_type":"survey-text","trial_index":162,"time_elapsed":687817,"internal_node_id":"0.0-7.0-0.7","prolific_id":"62e12eafa1f5eeafaf30f23b","session_id":"643c25205c63c85aa9b81c0a","study_id":"64370a36d30bfa807bc7e43c","difference":43},{"rt":null,"stimulus":"<h2>The correct answer is 28.</h2><p>Your answer was different from the answer by 12.</p><p>Not the worst. Can you do better on the next?</p>","response":null,"trial_type":"html-keyboard-response","trial_index":163,"time_elapsed":690325,"internal_node_id":"0.0-7.0-1.7","prolific_id":"62e12eafa1f5eeafaf30f23b","session_id":"643c25205c63c85aa9b81c0a","study_id":"64370a36d30bfa807bc7e43c"},{"rt":2991,"response":{"answer":"4"},"task":"response","correct_response":"4","trial_type":"survey-text","trial_index":164,"time_elapsed":693318,"internal_node_id":"0.0-7.0-0.8","prolific_id":"62e12eafa1f5eeafaf30f23b","session_id":"643c25205c63c85aa9b81c0a","study_id":"64370a36d30bfa807bc7e43c","difference":0},{"rt":null,"stimulus":"<h2>The correct answer is 4.</h2><p>Your answer was different from the answer by 0.</p><p>You got the right answer. Amazing work!</p>","response":null,"trial_type":"html-keyboard-response","trial_index":165,"time_elapsed":695826,"internal_node_id":"0.0-7.0-1.8","prolific_id":"62e12eafa1f5eeafaf30f23b","session_id":"643c25205c63c85aa9b81c0a","study_id":"64370a36d30bfa807bc7e43c"},{"rt":3341,"response":{"answer":"19"},"task":"response","correct_response":"19","trial_type":"survey-text","trial_index":166,"time_elapsed":699171,"internal_node_id":"0.0-7.0-0.9","prolific_id":"62e12eafa1f5eeafaf30f23b","session_id":"643c25205c63c85aa9b81c0a","study_id":"64370a36d30bfa807bc7e43c","difference":0},{"rt":null,"stimulus":"<h2>The correct answer is 19.</h2><p>Your answer was different from the answer by 0.</p><p>You got the right answer. Amazing work!</p>","response":null,"trial_type":"html-keyboard-response","trial_index":167,"time_elapsed":701682,"internal_node_id":"0.0-7.0-1.9","prolific_id":"62e12eafa1f5eeafaf30f23b","session_id":"643c25205c63c85aa9b81c0a","study_id":"64370a36d30bfa807bc7e43c"}]