[{"success":true,"timeout":false,"failed_images":[],"failed_audio":[],"failed_video":[],"trial_type":"preload","trial_index":0,"time_elapsed":76881,"internal_node_id":"0.0-0.0","prolific_id":"6310a8e72d2a091bb08a0c97","session_id":"643c1bde1e3d205e9596d524","study_id":"64370a36d30bfa807bc7e43c"},{"rt":45653,"stimulus":"\n\t\t\t\t\t<p>Welcome and thank you for participating in this study!</p>\n\t\t\t\t\t<p>In each trial, you will be given a trivia question and then be asked to:</p><br>\n\t\t\t\t\t<div class=\"list\">\n\t\t\t\t\t<p>1) Predict the answer</p>\n\t\t\t\t\t<p>2) Rate how much you already know about the topic</p>\n\t\t\t\t\t<p>3) Rate how much you want to know the answer</p>\n\t\t\t\t\t</div>\n\t\t\t\t\t<br>\n\t\t\t\t\t<p>Then, you will see a card that flips over to reveal the answer.</p>\n\t\t\t\t\t<br>\n\t\t\t\t\t<p>Let's try a practice round. Press <span style=\"color: red\"><strong>any key</strong></span> to move to the next slide</p>\n\t\t\t\t\t","response":" ","trial_type":"html-keyboard-response","trial_index":1,"time_elapsed":122533,"internal_node_id":"0.0-1.0","prolific_id":"6310a8e72d2a091bb08a0c97","session_id":"643c1bde1e3d205e9596d524","study_id":"64370a36d30bfa807bc7e43c"},{"rt":9920,"response":{"practice prediction":"8"},"task":"practice","trial_type":"survey-text","trial_index":2,"time_elapsed":132541,"internal_node_id":"0.0-2.0-0.0","prolific_id":"6310a8e72d2a091bb08a0c97","session_id":"643c1bde1e3d205e9596d524","study_id":"64370a36d30bfa807bc7e43c"},{"rt":9030,"response":{"practice":5},"accuracy":[],"trial_type":"survey","trial_index":3,"time_elapsed":141847,"internal_node_id":"0.0-2.0-1.0","prolific_id":"6310a8e72d2a091bb08a0c97","session_id":"643c1bde1e3d205e9596d524","study_id":"64370a36d30bfa807bc7e43c"},{"rt":null,"stimulus":"\n\t\t\t\t<div class=\"flip_card\">\n\t\t\t\t\t<div class=\"flip_card_inner\">\n\t\t\t\t\t\t<div class=\"flip_card_front\">\n\t\t\t\t\t\t\t<img src=img/practice.png>\n\t\t\t\t\t\t</div>\n\t\t\t\t\t\t<div class=\"flip_card_back\">\n\t\t\t\t\t\t\t<h2>\"How many legs does a lobster have?\"</h2>\n\t\t\t\t\t\t    <br>\n\t\t\t\t\t\t    <p>Answer: <strong>\"10\"</strong></p>\n\t\t\t\t\t    </div>\n\t\t\t\t    </div>\n\t\t\t    </div>\n\t\t\t\t","response":null,"trial_type":"html-keyboard-response","trial_index":4,"time_elapsed":146853,"internal_node_id":"0.0-2.0-2.0","prolific_id":"6310a8e72d2a091bb08a0c97","session_id":"643c1bde1e3d205e9596d524","study_id":"64370a36d30bfa807bc7e43c"},{"rt":2681,"stimulus":"\n\t\t\t\t\t<div>\n\t\t\t\t\t<h2>The practice round is over</h2>\n\t\t\t\t\t<p>Press <span style=\"color: red\"><strong>any key</strong></span> to continue to the actual trials</p>\n\t\t\t\t\t<p>Good Luck!</p>\n\t\t\t\t\t</div>\n\t\t\t\t\t","response":" ","trial_type":"html-keyboard-response","trial_index":5,"time_elapsed":149536,"internal_node_id":"0.0-2.0-3.0","prolific_id":"6310a8e72d2a091bb08a0c97","session_id":"643c1bde1e3d205e9596d524","study_id":"64370a36d30bfa807bc7e43c"},{"rt":17273,"response":{"prediction":"50000"},"trial_type":"survey-text","trial_index":6,"time_elapsed":166828,"internal_node_id":"0.0-3.0-0.0","prolific_id":"6310a8e72d2a091bb08a0c97","session_id":"643c1bde1e3d205e9596d524","study_id":"64370a36d30bfa807bc7e43c"},{"rt":6286,"response":{"prior knowledge":0,"curiosity":5},"accuracy":[],"trial_type":"survey","trial_index":7,"time_elapsed":173166,"internal_node_id":"0.0-3.0-1.0","prolific_id":"6310a8e72d2a091bb08a0c97","session_id":"643c1bde1e3d205e9596d524","study_id":"64370a36d30bfa807bc7e43c"},{"rt":null,"stimulus":"\n\t\t\t<div class=\"flip_card\">\n\t\t\t\t<div class=\"flip_card_inner\">\n\t\t\t\t\t<div class=\"flip_card_front\">\n\t\t\t\t\t\t<img src=img/17.png>\n\t\t\t\t\t</div>\n\t\t\t\t\t<div class=\"flip_card_back\">\n\t\t\t\t\t\t<h2>What is the diameter of Earth in miles?</h2>\n\t\t\t\t\t\t<br>\n\t\t\t\t\t\t<p>Answer: <strong>7917.5</strong></p>\n\t\t\t\t\t</div>\n\t\t\t\t</div>\n\t\t\t</div>\n\t\t\t","response":null,"trial_type":"html-keyboard-response","trial_index":8,"time_elapsed":178176,"internal_node_id":"0.0-3.0-2.0","prolific_id":"6310a8e72d2a091bb08a0c97","session_id":"643c1bde1e3d205e9596d524","study_id":"64370a36d30bfa807bc7e43c"},{"rt":3243,"stimulus":"\n\t\t\t\t\t<div>\n\t\t\t\t\t<h2>Trial 1 is over</h2>\n\t\t\t\t\t<p>Press <span style=\"color: red\"><strong>any key</strong></span> to continue to the next trial</p>\n\t\t\t\t\t</div>\n\t\t\t\t","response":" ","trial_type":"html-keyboard-response","trial_index":9,"time_elapsed":181421,"internal_node_id":"0.0-3.0-3.0","prolific_id":"6310a8e72d2a091bb08a0c97","session_id":"643c1bde1e3d205e9596d524","study_id":"64370a36d30bfa807bc7e43c"},{"rt":3982,"response":{"prediction":"6"},"trial_type":"survey-text","trial_index":10,"time_elapsed":185440,"internal_node_id":"0.0-3.0-0.1","prolific_id":"6310a8e72d2a091bb08a0c97","session_id":"643c1bde1e3d205e9596d524","study_id":"64370a36d30bfa807bc7e43c"},{"rt":7040,"response":{"prior knowledge":0,"curiosity":5},"accuracy":[],"trial_type":"survey","trial_index":11,"time_elapsed":192530,"internal_node_id":"0.0-3.0-1.1","prolific_id":"6310a8e72d2a091bb08a0c97","session_id":"643c1bde1e3d205e9596d524","study_id":"64370a36d30bfa807bc7e43c"},{"rt":null,"stimulus":"\n\t\t\t<div class=\"flip_card\">\n\t\t\t\t<div class=\"flip_card_inner\">\n\t\t\t\t\t<div class=\"flip_card_front\">\n\t\t\t\t\t\t<img src=img/25.png>\n\t\t\t\t\t</div>\n\t\t\t\t\t<div class=\"flip_card_back\">\n\t\t\t\t\t\t<h2>How many moons does Neptune have?</h2>\n\t\t\t\t\t\t<br>\n\t\t\t\t\t\t<p>Answer: <strong>14</strong></p>\n\t\t\t\t\t</div>\n\t\t\t\t</div>\n\t\t\t</div>\n\t\t\t","response":null,"trial_type":"html-keyboard-response","trial_index":12,"time_elapsed":197538,"internal_node_id":"0.0-3.0-2.1","prolific_id":"6310a8e72d2a091bb08a0c97","session_id":"643c1bde1e3d205e9596d524","study_id":"64370a36d30bfa807bc7e43c"},{"rt":954,"stimulus":"\n\t\t\t\t\t<div>\n\t\t\t\t\t<h2>Trial 2 is over</h2>\n\t\t\t\t\t<p>Press <span style=\"color: red\"><strong>any key</strong></span> to continue to the next trial</p>\n\t\t\t\t\t</div>\n\t\t\t\t","response":" ","trial_type":"html-keyboard-response","trial_index":13,"time_elapsed":198495,"internal_node_id":"0.0-3.0-3.1","prolific_id":"6310a8e72d2a091bb08a0c97","session_id":"643c1bde1e3d205e9596d524","study_id":"64370a36d30bfa807bc7e43c"},{"rt":11901,"response":{"prediction":"1980"},"trial_type":"survey-text","trial_index":14,"time_elapsed":210416,"internal_node_id":"0.0-3.0-0.2","prolific_id":"6310a8e72d2a091bb08a0c97","session_id":"643c1bde1e3d205e9596d524","study_id":"64370a36d30bfa807bc7e43c"},{"rt":5815,"response":{"prior knowledge":0,"curiosity":5},"accuracy":[],"trial_type":"survey","trial_index":15,"time_elapsed":216278,"internal_node_id":"0.0-3.0-1.2","prolific_id":"6310a8e72d2a091bb08a0c97","session_id":"643c1bde1e3d205e9596d524","study_id":"64370a36d30bfa807bc7e43c"},{"rt":null,"stimulus":"\n\t\t\t<div class=\"flip_card\">\n\t\t\t\t<div class=\"flip_card_inner\">\n\t\t\t\t\t<div class=\"flip_card_front\">\n\t\t\t\t\t\t<img src=img/29.png>\n\t\t\t\t\t</div>\n\t\t\t\t\t<div class=\"flip_card_back\">\n\t\t\t\t\t\t<h2>In what year did the first Modern Olympic Games take place?</h2>\n\t\t\t\t\t\t<br>\n\t\t\t\t\t\t<p>Answer: <strong>1896</strong></p>\n\t\t\t\t\t</div>\n\t\t\t\t</div>\n\t\t\t</div>\n\t\t\t","response":null,"trial_type":"html-keyboard-response","trial_index":16,"time_elapsed":221296,"internal_node_id":"0.0-3.0-2.2","prolific_id":"6310a8e72d2a091bb08a0c97","session_id":"643c1bde1e3d205e9596d524","study_id":"64370a36d30bfa807bc7e43c"},{"rt":1941,"stimulus":"\n\t\t\t\t\t<div>\n\t\t\t\t\t<h2>Trial 3 is over</h2>\n\t\t\t\t\t<p>Press <span style=\"color: red\"><strong>any key</strong></span> to continue to the next trial</p>\n\t\t\t\t\t</div>\n\t\t\t\t","response":" ","trial_type":"html-keyboard-response","trial_index":17,"time_elapsed":223239,"internal_node_id":"0.0-3.0-3.2","prolific_id":"6310a8e72d2a091bb08a0c97","session_id":"643c1bde1e3d205e9596d524","study_id":"64370a36d30bfa807bc7e43c"},{"rt":8527,"response":{"prediction":"2001"},"trial_type":"survey-text","trial_index":18,"time_elapsed":231785,"internal_node_id":"0.0-3.0-0.3","prolific_id":"6310a8e72d2a091bb08a0c97","session_id":"643c1bde1e3d205e9596d524","study_id":"64370a36d30bfa807bc7e43c"},{"rt":8404,"response":{"prior knowledge":1,"curiosity":5},"accuracy":[],"trial_type":"survey","trial_index":19,"time_elapsed":240238,"internal_node_id":"0.0-3.0-1.3","prolific_id":"6310a8e72d2a091bb08a0c97","session_id":"643c1bde1e3d205e9596d524","study_id":"64370a36d30bfa807bc7e43c"},{"rt":null,"stimulus":"\n\t\t\t<div class=\"flip_card\">\n\t\t\t\t<div class=\"flip_card_inner\">\n\t\t\t\t\t<div class=\"flip_card_front\">\n\t\t\t\t\t\t<img src=img/4.png>\n\t\t\t\t\t</div>\n\t\t\t\t\t<div class=\"flip_card_back\">\n\t\t\t\t\t\t<h2>What year was the very first model of the iPhone released?</h2>\n\t\t\t\t\t\t<br>\n\t\t\t\t\t\t<p>Answer: <strong>2007</strong></p>\n\t\t\t\t\t</div>\n\t\t\t\t</div>\n\t\t\t</div>\n\t\t\t","response":null,"trial_type":"html-keyboard-response","trial_index":20,"time_elapsed":245258,"internal_node_id":"0.0-3.0-2.3","prolific_id":"6310a8e72d2a091bb08a0c97","session_id":"643c1bde1e3d205e9596d524","study_id":"64370a36d30bfa807bc7e43c"},{"rt":2201,"stimulus":"\n\t\t\t\t\t<div>\n\t\t\t\t\t<h2>Trial 4 is over</h2>\n\t\t\t\t\t<p>Press <span style=\"color: red\"><strong>any key</strong></span> to continue to the next trial</p>\n\t\t\t\t\t</div>\n\t\t\t\t","response":" ","trial_type":"html-keyboard-response","trial_index":21,"time_elapsed":247460,"internal_node_id":"0.0-3.0-3.3","prolific_id":"6310a8e72d2a091bb08a0c97","session_id":"643c1bde1e3d205e9596d524","study_id":"64370a36d30bfa807bc7e43c"},{"rt":12109,"response":{"prediction":"118"},"trial_type":"survey-text","trial_index":22,"time_elapsed":259610,"internal_node_id":"0.0-3.0-0.4","prolific_id":"6310a8e72d2a091bb08a0c97","session_id":"643c1bde1e3d205e9596d524","study_id":"64370a36d30bfa807bc7e43c"},{"rt":5538,"response":{"prior knowledge":0,"curiosity":5},"accuracy":[],"trial_type":"survey","trial_index":23,"time_elapsed":265190,"internal_node_id":"0.0-3.0-1.4","prolific_id":"6310a8e72d2a091bb08a0c97","session_id":"643c1bde1e3d205e9596d524","study_id":"64370a36d30bfa807bc7e43c"},{"rt":null,"stimulus":"\n\t\t\t<div class=\"flip_card\">\n\t\t\t\t<div class=\"flip_card_inner\">\n\t\t\t\t\t<div class=\"flip_card_front\">\n\t\t\t\t\t\t<img src=img/15.png>\n\t\t\t\t\t</div>\n\t\t\t\t\t<div class=\"flip_card_back\">\n\t\t\t\t\t\t<h2>How many floors are in the Burj Khalifa, the tallest building in the world?</h2>\n\t\t\t\t\t\t<br>\n\t\t\t\t\t\t<p>Answer: <strong>163</strong></p>\n\t\t\t\t\t</div>\n\t\t\t\t</div>\n\t\t\t</div>\n\t\t\t","response":null,"trial_type":"html-keyboard-response","trial_index":24,"time_elapsed":270206,"internal_node_id":"0.0-3.0-2.4","prolific_id":"6310a8e72d2a091bb08a0c97","session_id":"643c1bde1e3d205e9596d524","study_id":"64370a36d30bfa807bc7e43c"},{"rt":1841,"stimulus":"\n\t\t\t\t\t<div>\n\t\t\t\t\t<h2>Trial 5 is over</h2>\n\t\t\t\t\t<p>Press <span style=\"color: red\"><strong>any key</strong></span> to continue to the next trial</p>\n\t\t\t\t\t</div>\n\t\t\t\t","response":" ","trial_type":"html-keyboard-response","trial_index":25,"time_elapsed":272048,"internal_node_id":"0.0-3.0-3.4","prolific_id":"6310a8e72d2a091bb08a0c97","session_id":"643c1bde1e3d205e9596d524","study_id":"64370a36d30bfa807bc7e43c"},{"rt":11768,"response":{"prediction":"12"},"trial_type":"survey-text","trial_index":26,"time_elapsed":283841,"internal_node_id":"0.0-3.0-0.5","prolific_id":"6310a8e72d2a091bb08a0c97","session_id":"643c1bde1e3d205e9596d524","study_id":"64370a36d30bfa807bc7e43c"},{"rt":6143,"response":{"prior knowledge":0,"curiosity":5},"accuracy":[],"trial_type":"survey","trial_index":27,"time_elapsed":290022,"internal_node_id":"0.0-3.0-1.5","prolific_id":"6310a8e72d2a091bb08a0c97","session_id":"643c1bde1e3d205e9596d524","study_id":"64370a36d30bfa807bc7e43c"},{"rt":null,"stimulus":"\n\t\t\t<div class=\"flip_card\">\n\t\t\t\t<div class=\"flip_card_inner\">\n\t\t\t\t\t<div class=\"flip_card_front\">\n\t\t\t\t\t\t<img src=img/14.png>\n\t\t\t\t\t</div>\n\t\t\t\t\t<div class=\"flip_card_back\">\n\t\t\t\t\t\t<h2>How many countries have territory in the Arctic Circle?</h2>\n\t\t\t\t\t\t<br>\n\t\t\t\t\t\t<p>Answer: <strong>8</strong></p>\n\t\t\t\t\t</div>\n\t\t\t\t</div>\n\t\t\t</div>\n\t\t\t","response":null,"trial_type":"html-keyboard-response","trial_index":28,"time_elapsed":295030,"internal_node_id":"0.0-3.0-2.5","prolific_id":"6310a8e72d2a091bb08a0c97","session_id":"643c1bde1e3d205e9596d524","study_id":"64370a36d30bfa807bc7e43c"},{"rt":1845,"stimulus":"\n\t\t\t\t\t<div>\n\t\t\t\t\t<h2>Trial 6 is over</h2>\n\t\t\t\t\t<p>Press <span style=\"color: red\"><strong>any key</strong></span> to continue to the next trial</p>\n\t\t\t\t\t</div>\n\t\t\t\t","response":" ","trial_type":"html-keyboard-response","trial_index":29,"time_elapsed":296877,"internal_node_id":"0.0-3.0-3.5","prolific_id":"6310a8e72d2a091bb08a0c97","session_id":"643c1bde1e3d205e9596d524","study_id":"64370a36d30bfa807bc7e43c"},{"rt":5789,"response":{"prediction":"4"},"trial_type":"survey-text","trial_index":30,"time_elapsed":302682,"internal_node_id":"0.0-3.0-0.6","prolific_id":"6310a8e72d2a091bb08a0c97","session_id":"643c1bde1e3d205e9596d524","study_id":"64370a36d30bfa807bc7e43c"},{"rt":6726,"response":{"prior knowledge":0,"curiosity":5},"accuracy":[],"trial_type":"survey","trial_index":31,"time_elapsed":309445,"internal_node_id":"0.0-3.0-1.6","prolific_id":"6310a8e72d2a091bb08a0c97","session_id":"643c1bde1e3d205e9596d524","study_id":"64370a36d30bfa807bc7e43c"},{"rt":null,"stimulus":"\n\t\t\t<div class=\"flip_card\">\n\t\t\t\t<div class=\"flip_card_inner\">\n\t\t\t\t\t<div class=\"flip_card_front\">\n\t\t\t\t\t\t<img src=img/7.png>\n\t\t\t\t\t</div>\n\t\t\t\t\t<div class=\"flip_card_back\">\n\t\t\t\t\t\t<h2>How many main islands make up Japan?</h2>\n\t\t\t\t\t\t<br>\n\t\t\t\t\t\t<p>Answer: <strong>4</strong></p>\n\t\t\t\t\t</div>\n\t\t\t\t</div>\n\t\t\t</div>\n\t\t\t","response":null,"trial_type":"html-keyboard-response","trial_index":32,"time_elapsed":314461,"internal_node_id":"0.0-3.0-2.6","prolific_id":"6310a8e72d2a091bb08a0c97","session_id":"643c1bde1e3d205e9596d524","study_id":"64370a36d30bfa807bc7e43c"},{"rt":2046,"stimulus":"\n\t\t\t\t\t<div>\n\t\t\t\t\t<h2>Trial 7 is over</h2>\n\t\t\t\t\t<p>Press <span style=\"color: red\"><strong>any key</strong></span> to continue to the next trial</p>\n\t\t\t\t\t</div>\n\t\t\t\t","response":" ","trial_type":"html-keyboard-response","trial_index":33,"time_elapsed":316508,"internal_node_id":"0.0-3.0-3.6","prolific_id":"6310a8e72d2a091bb08a0c97","session_id":"643c1bde1e3d205e9596d524","study_id":"64370a36d30bfa807bc7e43c"},{"rt":47653,"response":{"prediction":"1912"},"trial_type":"survey-text","trial_index":34,"time_elapsed":364178,"internal_node_id":"0.0-3.0-0.7","prolific_id":"6310a8e72d2a091bb08a0c97","session_id":"643c1bde1e3d205e9596d524","study_id":"64370a36d30bfa807bc7e43c"},{"rt":5148,"response":{"prior knowledge":2,"curiosity":5},"accuracy":[],"trial_type":"survey","trial_index":35,"time_elapsed":369367,"internal_node_id":"0.0-3.0-1.7","prolific_id":"6310a8e72d2a091bb08a0c97","session_id":"643c1bde1e3d205e9596d524","study_id":"64370a36d30bfa807bc7e43c"},{"rt":null,"stimulus":"\n\t\t\t<div class=\"flip_card\">\n\t\t\t\t<div class=\"flip_card_inner\">\n\t\t\t\t\t<div class=\"flip_card_front\">\n\t\t\t\t\t\t<img src=img/27.png>\n\t\t\t\t\t</div>\n\t\t\t\t\t<div class=\"flip_card_back\">\n\t\t\t\t\t\t<h2>What year did the titanic sink?</h2>\n\t\t\t\t\t\t<br>\n\t\t\t\t\t\t<p>Answer: <strong>1912</strong></p>\n\t\t\t\t\t</div>\n\t\t\t\t</div>\n\t\t\t</div>\n\t\t\t","response":null,"trial_type":"html-keyboard-response","trial_index":36,"time_elapsed":374394,"internal_node_id":"0.0-3.0-2.7","prolific_id":"6310a8e72d2a091bb08a0c97","session_id":"643c1bde1e3d205e9596d524","study_id":"64370a36d30bfa807bc7e43c"},{"rt":865,"stimulus":"\n\t\t\t\t\t<div>\n\t\t\t\t\t<h2>Trial 8 is over</h2>\n\t\t\t\t\t<p>Press <span style=\"color: red\"><strong>any key</strong></span> to continue to the next trial</p>\n\t\t\t\t\t</div>\n\t\t\t\t","response":" ","trial_type":"html-keyboard-response","trial_index":37,"time_elapsed":375261,"internal_node_id":"0.0-3.0-3.7","prolific_id":"6310a8e72d2a091bb08a0c97","session_id":"643c1bde1e3d205e9596d524","study_id":"64370a36d30bfa807bc7e43c"},{"rt":10473,"response":{"prediction":"15"},"trial_type":"survey-text","trial_index":38,"time_elapsed":385770,"internal_node_id":"0.0-3.0-0.8","prolific_id":"6310a8e72d2a091bb08a0c97","session_id":"643c1bde1e3d205e9596d524","study_id":"64370a36d30bfa807bc7e43c"},{"rt":8922,"response":{"prior knowledge":0,"curiosity":5},"accuracy":[],"trial_type":"survey","trial_index":39,"time_elapsed":394736,"internal_node_id":"0.0-3.0-1.8","prolific_id":"6310a8e72d2a091bb08a0c97","session_id":"643c1bde1e3d205e9596d524","study_id":"64370a36d30bfa807bc7e43c"},{"rt":null,"stimulus":"\n\t\t\t<div class=\"flip_card\">\n\t\t\t\t<div class=\"flip_card_inner\">\n\t\t\t\t\t<div class=\"flip_card_front\">\n\t\t\t\t\t\t<img src=img/12.png>\n\t\t\t\t\t</div>\n\t\t\t\t\t<div class=\"flip_card_back\">\n\t\t\t\t\t\t<h2>How many different animals (real or imaginary) are represented in the Chinese calendar?</h2>\n\t\t\t\t\t\t<br>\n\t\t\t\t\t\t<p>Answer: <strong>12</strong></p>\n\t\t\t\t\t</div>\n\t\t\t\t</div>\n\t\t\t</div>\n\t\t\t","response":null,"trial_type":"html-keyboard-response","trial_index":40,"time_elapsed":399744,"internal_node_id":"0.0-3.0-2.8","prolific_id":"6310a8e72d2a091bb08a0c97","session_id":"643c1bde1e3d205e9596d524","study_id":"64370a36d30bfa807bc7e43c"},{"rt":1109,"stimulus":"\n\t\t\t\t\t<div>\n\t\t\t\t\t<h2>Trial 9 is over</h2>\n\t\t\t\t\t<p>Press <span style=\"color: red\"><strong>any key</strong></span> to continue to the next trial</p>\n\t\t\t\t\t</div>\n\t\t\t\t","response":" ","trial_type":"html-keyboard-response","trial_index":41,"time_elapsed":400857,"internal_node_id":"0.0-3.0-3.8","prolific_id":"6310a8e72d2a091bb08a0c97","session_id":"643c1bde1e3d205e9596d524","study_id":"64370a36d30bfa807bc7e43c"},{"rt":5551,"response":{"prediction":"4"},"trial_type":"survey-text","trial_index":42,"time_elapsed":406434,"internal_node_id":"0.0-3.0-0.9","prolific_id":"6310a8e72d2a091bb08a0c97","session_id":"643c1bde1e3d205e9596d524","study_id":"64370a36d30bfa807bc7e43c"},{"rt":4635,"response":{"prior knowledge":0,"curiosity":5},"accuracy":[],"trial_type":"survey","trial_index":43,"time_elapsed":411131,"internal_node_id":"0.0-3.0-1.9","prolific_id":"6310a8e72d2a091bb08a0c97","session_id":"643c1bde1e3d205e9596d524","study_id":"64370a36d30bfa807bc7e43c"},{"rt":null,"stimulus":"\n\t\t\t<div class=\"flip_card\">\n\t\t\t\t<div class=\"flip_card_inner\">\n\t\t\t\t\t<div class=\"flip_card_front\">\n\t\t\t\t\t\t<img src=img/16.png>\n\t\t\t\t\t</div>\n\t\t\t\t\t<div class=\"flip_card_back\">\n\t\t\t\t\t\t<h2>How many native species of kangaroos are found in Australia?</h2>\n\t\t\t\t\t\t<br>\n\t\t\t\t\t\t<p>Answer: <strong>4</strong></p>\n\t\t\t\t\t</div>\n\t\t\t\t</div>\n\t\t\t</div>\n\t\t\t","response":null,"trial_type":"html-keyboard-response","trial_index":44,"time_elapsed":416141,"internal_node_id":"0.0-3.0-2.9","prolific_id":"6310a8e72d2a091bb08a0c97","session_id":"643c1bde1e3d205e9596d524","study_id":"64370a36d30bfa807bc7e43c"},{"rt":2229,"stimulus":"\n\t\t\t\t\t<div>\n\t\t\t\t\t<h2>Trial 10 is over</h2>\n\t\t\t\t\t<p>Press <span style=\"color: red\"><strong>any key</strong></span> to continue to the next trial</p>\n\t\t\t\t\t</div>\n\t\t\t\t","response":" ","trial_type":"html-keyboard-response","trial_index":45,"time_elapsed":418369,"internal_node_id":"0.0-3.0-3.9","prolific_id":"6310a8e72d2a091bb08a0c97","session_id":"643c1bde1e3d205e9596d524","study_id":"64370a36d30bfa807bc7e43c"},{"rt":11824,"response":{"prediction":"1929"},"trial_type":"survey-text","trial_index":46,"time_elapsed":430212,"internal_node_id":"0.0-3.0-0.10","prolific_id":"6310a8e72d2a091bb08a0c97","session_id":"643c1bde1e3d205e9596d524","study_id":"64370a36d30bfa807bc7e43c"},{"rt":4287,"response":{"prior knowledge":0,"curiosity":5},"accuracy":[],"trial_type":"survey","trial_index":47,"time_elapsed":434542,"internal_node_id":"0.0-3.0-1.10","prolific_id":"6310a8e72d2a091bb08a0c97","session_id":"643c1bde1e3d205e9596d524","study_id":"64370a36d30bfa807bc7e43c"},{"rt":null,"stimulus":"\n\t\t\t<div class=\"flip_card\">\n\t\t\t\t<div class=\"flip_card_inner\">\n\t\t\t\t\t<div class=\"flip_card_front\">\n\t\t\t\t\t\t<img src=img/8.png>\n\t\t\t\t\t</div>\n\t\t\t\t\t<div class=\"flip_card_back\">\n\t\t\t\t\t\t<h2>What year did the Berlin Wall fall?</h2>\n\t\t\t\t\t\t<br>\n\t\t\t\t\t\t<p>Answer: <strong>1989</strong></p>\n\t\t\t\t\t</div>\n\t\t\t\t</div>\n\t\t\t</div>\n\t\t\t","response":null,"trial_type":"html-keyboard-response","trial_index":48,"time_elapsed":439552,"internal_node_id":"0.0-3.0-2.10","prolific_id":"6310a8e72d2a091bb08a0c97","session_id":"643c1bde1e3d205e9596d524","study_id":"64370a36d30bfa807bc7e43c"},{"rt":1213,"stimulus":"\n\t\t\t\t\t<div>\n\t\t\t\t\t<h2>Trial 11 is over</h2>\n\t\t\t\t\t<p>Press <span style=\"color: red\"><strong>any key</strong></span> to continue to the next trial</p>\n\t\t\t\t\t</div>\n\t\t\t\t","response":" ","trial_type":"html-keyboard-response","trial_index":49,"time_elapsed":440766,"internal_node_id":"0.0-3.0-3.10","prolific_id":"6310a8e72d2a091bb08a0c97","session_id":"643c1bde1e3d205e9596d524","study_id":"64370a36d30bfa807bc7e43c"},{"rt":10595,"response":{"prediction":"200"},"trial_type":"survey-text","trial_index":50,"time_elapsed":451378,"internal_node_id":"0.0-3.0-0.11","prolific_id":"6310a8e72d2a091bb08a0c97","session_id":"643c1bde1e3d205e9596d524","study_id":"64370a36d30bfa807bc7e43c"},{"rt":5389,"response":{"prior knowledge":0,"curiosity":5},"accuracy":[],"trial_type":"survey","trial_index":51,"time_elapsed":456828,"internal_node_id":"0.0-3.0-1.11","prolific_id":"6310a8e72d2a091bb08a0c97","session_id":"643c1bde1e3d205e9596d524","study_id":"64370a36d30bfa807bc7e43c"},{"rt":null,"stimulus":"\n\t\t\t<div class=\"flip_card\">\n\t\t\t\t<div class=\"flip_card_inner\">\n\t\t\t\t\t<div class=\"flip_card_front\">\n\t\t\t\t\t\t<img src=img/23.png>\n\t\t\t\t\t</div>\n\t\t\t\t\t<div class=\"flip_card_back\">\n\t\t\t\t\t\t<h2>How long is the Great Wall of China (in miles)?</h2>\n\t\t\t\t\t\t<br>\n\t\t\t\t\t\t<p>Answer: <strong>13171</strong></p>\n\t\t\t\t\t</div>\n\t\t\t\t</div>\n\t\t\t</div>\n\t\t\t","response":null,"trial_type":"html-keyboard-response","trial_index":52,"time_elapsed":461842,"internal_node_id":"0.0-3.0-2.11","prolific_id":"6310a8e72d2a091bb08a0c97","session_id":"643c1bde1e3d205e9596d524","study_id":"64370a36d30bfa807bc7e43c"},{"rt":2838,"stimulus":"\n\t\t\t\t\t<div>\n\t\t\t\t\t<h2>Trial 12 is over</h2>\n\t\t\t\t\t<p>Press <span style=\"color: red\"><strong>any key</strong></span> to continue to the next trial</p>\n\t\t\t\t\t</div>\n\t\t\t\t","response":" ","trial_type":"html-keyboard-response","trial_index":53,"time_elapsed":464681,"internal_node_id":"0.0-3.0-3.11","prolific_id":"6310a8e72d2a091bb08a0c97","session_id":"643c1bde1e3d205e9596d524","study_id":"64370a36d30bfa807bc7e43c"},{"rt":6811,"response":{"prediction":"1955"},"trial_type":"survey-text","trial_index":54,"time_elapsed":471504,"internal_node_id":"0.0-3.0-0.12","prolific_id":"6310a8e72d2a091bb08a0c97","session_id":"643c1bde1e3d205e9596d524","study_id":"64370a36d30bfa807bc7e43c"},{"rt":5547,"response":{"prior knowledge":0,"curiosity":5},"accuracy":[],"trial_type":"survey","trial_index":55,"time_elapsed":477096,"internal_node_id":"0.0-3.0-1.12","prolific_id":"6310a8e72d2a091bb08a0c97","session_id":"643c1bde1e3d205e9596d524","study_id":"64370a36d30bfa807bc7e43c"},{"rt":null,"stimulus":"\n\t\t\t<div class=\"flip_card\">\n\t\t\t\t<div class=\"flip_card_inner\">\n\t\t\t\t\t<div class=\"flip_card_front\">\n\t\t\t\t\t\t<img src=img/22.png>\n\t\t\t\t\t</div>\n\t\t\t\t\t<div class=\"flip_card_back\">\n\t\t\t\t\t\t<h2>In what year was the first Nobel Prize awarded?</h2>\n\t\t\t\t\t\t<br>\n\t\t\t\t\t\t<p>Answer: <strong>1901</strong></p>\n\t\t\t\t\t</div>\n\t\t\t\t</div>\n\t\t\t</div>\n\t\t\t","response":null,"trial_type":"html-keyboard-response","trial_index":56,"time_elapsed":482115,"internal_node_id":"0.0-3.0-2.12","prolific_id":"6310a8e72d2a091bb08a0c97","session_id":"643c1bde1e3d205e9596d524","study_id":"64370a36d30bfa807bc7e43c"},{"rt":921,"stimulus":"\n\t\t\t\t\t<div>\n\t\t\t\t\t<h2>Trial 13 is over</h2>\n\t\t\t\t\t<p>Press <span style=\"color: red\"><strong>any key</strong></span> to continue to the next trial</p>\n\t\t\t\t\t</div>\n\t\t\t\t","response":" ","trial_type":"html-keyboard-response","trial_index":57,"time_elapsed":483039,"internal_node_id":"0.0-3.0-3.12","prolific_id":"6310a8e72d2a091bb08a0c97","session_id":"643c1bde1e3d205e9596d524","study_id":"64370a36d30bfa807bc7e43c"},{"rt":4602,"response":{"prediction":"12"},"trial_type":"survey-text","trial_index":58,"time_elapsed":487657,"internal_node_id":"0.0-3.0-0.13","prolific_id":"6310a8e72d2a091bb08a0c97","session_id":"643c1bde1e3d205e9596d524","study_id":"64370a36d30bfa807bc7e43c"},{"rt":6010,"response":{"prior knowledge":0,"curiosity":5},"accuracy":[],"trial_type":"survey","trial_index":59,"time_elapsed":493710,"internal_node_id":"0.0-3.0-1.13","prolific_id":"6310a8e72d2a091bb08a0c97","session_id":"643c1bde1e3d205e9596d524","study_id":"64370a36d30bfa807bc7e43c"},{"rt":null,"stimulus":"\n\t\t\t<div class=\"flip_card\">\n\t\t\t\t<div class=\"flip_card_inner\">\n\t\t\t\t\t<div class=\"flip_card_front\">\n\t\t\t\t\t\t<img src=img/21.png>\n\t\t\t\t\t</div>\n\t\t\t\t\t<div class=\"flip_card_back\">\n\t\t\t\t\t\t<h2>How much is in a Baker's Dozen?</h2>\n\t\t\t\t\t\t<br>\n\t\t\t\t\t\t<p>Answer: <strong>13</strong></p>\n\t\t\t\t\t</div>\n\t\t\t\t</div>\n\t\t\t</div>\n\t\t\t","response":null,"trial_type":"html-keyboard-response","trial_index":60,"time_elapsed":498721,"internal_node_id":"0.0-3.0-2.13","prolific_id":"6310a8e72d2a091bb08a0c97","session_id":"643c1bde1e3d205e9596d524","study_id":"64370a36d30bfa807bc7e43c"},{"rt":959,"stimulus":"\n\t\t\t\t\t<div>\n\t\t\t\t\t<h2>Trial 14 is over</h2>\n\t\t\t\t\t<p>Press <span style=\"color: red\"><strong>any key</strong></span> to continue to the next trial</p>\n\t\t\t\t\t</div>\n\t\t\t\t","response":" ","trial_type":"html-keyboard-response","trial_index":61,"time_elapsed":499681,"internal_node_id":"0.0-3.0-3.13","prolific_id":"6310a8e72d2a091bb08a0c97","session_id":"643c1bde1e3d205e9596d524","study_id":"64370a36d30bfa807bc7e43c"},{"rt":5874,"response":{"prediction":"500"},"trial_type":"survey-text","trial_index":62,"time_elapsed":505573,"internal_node_id":"0.0-3.0-0.14","prolific_id":"6310a8e72d2a091bb08a0c97","session_id":"643c1bde1e3d205e9596d524","study_id":"64370a36d30bfa807bc7e43c"},{"rt":3965,"response":{"prior knowledge":0,"curiosity":5},"accuracy":[],"trial_type":"survey","trial_index":63,"time_elapsed":509577,"internal_node_id":"0.0-3.0-1.14","prolific_id":"6310a8e72d2a091bb08a0c97","session_id":"643c1bde1e3d205e9596d524","study_id":"64370a36d30bfa807bc7e43c"},{"rt":null,"stimulus":"\n\t\t\t<div class=\"flip_card\">\n\t\t\t\t<div class=\"flip_card_inner\">\n\t\t\t\t\t<div class=\"flip_card_front\">\n\t\t\t\t\t\t<img src=img/19.png>\n\t\t\t\t\t</div>\n\t\t\t\t\t<div class=\"flip_card_back\">\n\t\t\t\t\t\t<h2>How many constellations are there?</h2>\n\t\t\t\t\t\t<br>\n\t\t\t\t\t\t<p>Answer: <strong>88</strong></p>\n\t\t\t\t\t</div>\n\t\t\t\t</div>\n\t\t\t</div>\n\t\t\t","response":null,"trial_type":"html-keyboard-response","trial_index":64,"time_elapsed":514587,"internal_node_id":"0.0-3.0-2.14","prolific_id":"6310a8e72d2a091bb08a0c97","session_id":"643c1bde1e3d205e9596d524","study_id":"64370a36d30bfa807bc7e43c"},{"rt":603,"stimulus":"\n\t\t\t\t\t<div>\n\t\t\t\t\t<h2>Trial 15 is over</h2>\n\t\t\t\t\t<p>Press <span style=\"color: red\"><strong>any key</strong></span> to continue to the next trial</p>\n\t\t\t\t\t</div>\n\t\t\t\t","response":" ","trial_type":"html-keyboard-response","trial_index":65,"time_elapsed":515193,"internal_node_id":"0.0-3.0-3.14","prolific_id":"6310a8e72d2a091bb08a0c97","session_id":"643c1bde1e3d205e9596d524","study_id":"64370a36d30bfa807bc7e43c"},{"rt":8445,"response":{"prediction":"25"},"trial_type":"survey-text","trial_index":66,"time_elapsed":523666,"internal_node_id":"0.0-3.0-0.15","prolific_id":"6310a8e72d2a091bb08a0c97","session_id":"643c1bde1e3d205e9596d524","study_id":"64370a36d30bfa807bc7e43c"},{"rt":4057,"response":{"prior knowledge":0,"curiosity":5},"accuracy":[],"trial_type":"survey","trial_index":67,"time_elapsed":527758,"internal_node_id":"0.0-3.0-1.15","prolific_id":"6310a8e72d2a091bb08a0c97","session_id":"643c1bde1e3d205e9596d524","study_id":"64370a36d30bfa807bc7e43c"},{"rt":null,"stimulus":"\n\t\t\t<div class=\"flip_card\">\n\t\t\t\t<div class=\"flip_card_inner\">\n\t\t\t\t\t<div class=\"flip_card_front\">\n\t\t\t\t\t\t<img src=img/5.png>\n\t\t\t\t\t</div>\n\t\t\t\t\t<div class=\"flip_card_back\">\n\t\t\t\t\t\t<h2>How many double stitches does a baseball have?</h2>\n\t\t\t\t\t\t<br>\n\t\t\t\t\t\t<p>Answer: <strong>108</strong></p>\n\t\t\t\t\t</div>\n\t\t\t\t</div>\n\t\t\t</div>\n\t\t\t","response":null,"trial_type":"html-keyboard-response","trial_index":68,"time_elapsed":532765,"internal_node_id":"0.0-3.0-2.15","prolific_id":"6310a8e72d2a091bb08a0c97","session_id":"643c1bde1e3d205e9596d524","study_id":"64370a36d30bfa807bc7e43c"},{"rt":1269,"stimulus":"\n\t\t\t\t\t<div>\n\t\t\t\t\t<h2>Trial 16 is over</h2>\n\t\t\t\t\t<p>Press <span style=\"color: red\"><strong>any key</strong></span> to continue to the next trial</p>\n\t\t\t\t\t</div>\n\t\t\t\t","response":" ","trial_type":"html-keyboard-response","trial_index":69,"time_elapsed":534036,"internal_node_id":"0.0-3.0-3.15","prolific_id":"6310a8e72d2a091bb08a0c97","session_id":"643c1bde1e3d205e9596d524","study_id":"64370a36d30bfa807bc7e43c"},{"rt":11649,"response":{"prediction":"50"},"trial_type":"survey-text","trial_index":70,"time_elapsed":545697,"internal_node_id":"0.0-3.0-0.16","prolific_id":"6310a8e72d2a091bb08a0c97","session_id":"643c1bde1e3d205e9596d524","study_id":"64370a36d30bfa807bc7e43c"},{"rt":7726,"response":{"prior knowledge":0,"curiosity":5},"accuracy":[],"trial_type":"survey","trial_index":71,"time_elapsed":553488,"internal_node_id":"0.0-3.0-1.16","prolific_id":"6310a8e72d2a091bb08a0c97","session_id":"643c1bde1e3d205e9596d524","study_id":"64370a36d30bfa807bc7e43c"},{"rt":null,"stimulus":"\n\t\t\t<div class=\"flip_card\">\n\t\t\t\t<div class=\"flip_card_inner\">\n\t\t\t\t\t<div class=\"flip_card_front\">\n\t\t\t\t\t\t<img src=img/9.png>\n\t\t\t\t\t</div>\n\t\t\t\t\t<div class=\"flip_card_back\">\n\t\t\t\t\t\t<h2>How many people are vegan globally (in millions)?</h2>\n\t\t\t\t\t\t<br>\n\t\t\t\t\t\t<p>Answer: <strong>79</strong></p>\n\t\t\t\t\t</div>\n\t\t\t\t</div>\n\t\t\t</div>\n\t\t\t","response":null,"trial_type":"html-keyboard-response","trial_index":72,"time_elapsed":558502,"internal_node_id":"0.0-3.0-2.16","prolific_id":"6310a8e72d2a091bb08a0c97","session_id":"643c1bde1e3d205e9596d524","study_id":"64370a36d30bfa807bc7e43c"},{"rt":546,"stimulus":"\n\t\t\t\t\t<div>\n\t\t\t\t\t<h2>Trial 17 is over</h2>\n\t\t\t\t\t<p>Press <span style=\"color: red\"><strong>any key</strong></span> to continue to the next trial</p>\n\t\t\t\t\t</div>\n\t\t\t\t","response":" ","trial_type":"html-keyboard-response","trial_index":73,"time_elapsed":559048,"internal_node_id":"0.0-3.0-3.16","prolific_id":"6310a8e72d2a091bb08a0c97","session_id":"643c1bde1e3d205e9596d524","study_id":"64370a36d30bfa807bc7e43c"},{"rt":3715,"response":{"prediction":"3"},"trial_type":"survey-text","trial_index":74,"time_elapsed":562779,"internal_node_id":"0.0-3.0-0.17","prolific_id":"6310a8e72d2a091bb08a0c97","session_id":"643c1bde1e3d205e9596d524","study_id":"64370a36d30bfa807bc7e43c"},{"rt":3307,"response":{"prior knowledge":0,"curiosity":5},"accuracy":[],"trial_type":"survey","trial_index":75,"time_elapsed":566126,"internal_node_id":"0.0-3.0-1.17","prolific_id":"6310a8e72d2a091bb08a0c97","session_id":"643c1bde1e3d205e9596d524","study_id":"64370a36d30bfa807bc7e43c"},{"rt":null,"stimulus":"\n\t\t\t<div class=\"flip_card\">\n\t\t\t\t<div class=\"flip_card_inner\">\n\t\t\t\t\t<div class=\"flip_card_front\">\n\t\t\t\t\t\t<img src=img/13.png>\n\t\t\t\t\t</div>\n\t\t\t\t\t<div class=\"flip_card_back\">\n\t\t\t\t\t\t<h2>How many tones are in the Vietnamese language?</h2>\n\t\t\t\t\t\t<br>\n\t\t\t\t\t\t<p>Answer: <strong>6</strong></p>\n\t\t\t\t\t</div>\n\t\t\t\t</div>\n\t\t\t</div>\n\t\t\t","response":null,"trial_type":"html-keyboard-response","trial_index":76,"time_elapsed":571144,"internal_node_id":"0.0-3.0-2.17","prolific_id":"6310a8e72d2a091bb08a0c97","session_id":"643c1bde1e3d205e9596d524","study_id":"64370a36d30bfa807bc7e43c"},{"rt":1326,"stimulus":"\n\t\t\t\t\t<div>\n\t\t\t\t\t<h2>Trial 18 is over</h2>\n\t\t\t\t\t<p>Press <span style=\"color: red\"><strong>any key</strong></span> to continue to the next trial</p>\n\t\t\t\t\t</div>\n\t\t\t\t","response":" ","trial_type":"html-keyboard-response","trial_index":77,"time_elapsed":572471,"internal_node_id":"0.0-3.0-3.17","prolific_id":"6310a8e72d2a091bb08a0c97","session_id":"643c1bde1e3d205e9596d524","study_id":"64370a36d30bfa807bc7e43c"},{"rt":5981,"response":{"prediction":"17"},"trial_type":"survey-text","trial_index":78,"time_elapsed":578465,"internal_node_id":"0.0-3.0-0.18","prolific_id":"6310a8e72d2a091bb08a0c97","session_id":"643c1bde1e3d205e9596d524","study_id":"64370a36d30bfa807bc7e43c"},{"rt":3765,"response":{"prior knowledge":0,"curiosity":5},"accuracy":[],"trial_type":"survey","trial_index":79,"time_elapsed":582274,"internal_node_id":"0.0-3.0-1.18","prolific_id":"6310a8e72d2a091bb08a0c97","session_id":"643c1bde1e3d205e9596d524","study_id":"64370a36d30bfa807bc7e43c"},{"rt":null,"stimulus":"\n\t\t\t<div class=\"flip_card\">\n\t\t\t\t<div class=\"flip_card_inner\">\n\t\t\t\t\t<div class=\"flip_card_front\">\n\t\t\t\t\t\t<img src=img/11.png>\n\t\t\t\t\t</div>\n\t\t\t\t\t<div class=\"flip_card_back\">\n\t\t\t\t\t\t<h2>How old was King Tut when he died?</h2>\n\t\t\t\t\t\t<br>\n\t\t\t\t\t\t<p>Answer: <strong>19</strong></p>\n\t\t\t\t\t</div>\n\t\t\t\t</div>\n\t\t\t</div>\n\t\t\t","response":null,"trial_type":"html-keyboard-response","trial_index":80,"time_elapsed":587285,"internal_node_id":"0.0-3.0-2.18","prolific_id":"6310a8e72d2a091bb08a0c97","session_id":"643c1bde1e3d205e9596d524","study_id":"64370a36d30bfa807bc7e43c"},{"rt":988,"stimulus":"\n\t\t\t\t\t<div>\n\t\t\t\t\t<h2>Trial 19 is over</h2>\n\t\t\t\t\t<p>Press <span style=\"color: red\"><strong>any key</strong></span> to continue to the next trial</p>\n\t\t\t\t\t</div>\n\t\t\t\t","response":" ","trial_type":"html-keyboard-response","trial_index":81,"time_elapsed":588275,"internal_node_id":"0.0-3.0-3.18","prolific_id":"6310a8e72d2a091bb08a0c97","session_id":"643c1bde1e3d205e9596d524","study_id":"64370a36d30bfa807bc7e43c"},{"rt":7937,"response":{"prediction":"6"},"trial_type":"survey-text","trial_index":82,"time_elapsed":596233,"internal_node_id":"0.0-3.0-0.19","prolific_id":"6310a8e72d2a091bb08a0c97","session_id":"643c1bde1e3d205e9596d524","study_id":"64370a36d30bfa807bc7e43c"},{"rt":4817,"response":{"prior knowledge":0,"curiosity":5},"accuracy":[],"trial_type":"survey","trial_index":83,"time_elapsed":601110,"internal_node_id":"0.0-3.0-1.19","prolific_id":"6310a8e72d2a091bb08a0c97","session_id":"643c1bde1e3d205e9596d524","study_id":"64370a36d30bfa807bc7e43c"},{"rt":null,"stimulus":"\n\t\t\t<div class=\"flip_card\">\n\t\t\t\t<div class=\"flip_card_inner\">\n\t\t\t\t\t<div class=\"flip_card_front\">\n\t\t\t\t\t\t<img src=img/26.png>\n\t\t\t\t\t</div>\n\t\t\t\t\t<div class=\"flip_card_back\">\n\t\t\t\t\t\t<h2>How many single hand gestures, or mudras, are used in Indian classical dance?</h2>\n\t\t\t\t\t\t<br>\n\t\t\t\t\t\t<p>Answer: <strong>28</strong></p>\n\t\t\t\t\t</div>\n\t\t\t\t</div>\n\t\t\t</div>\n\t\t\t","response":null,"trial_type":"html-keyboard-response","trial_index":84,"time_elapsed":606128,"internal_node_id":"0.0-3.0-2.19","prolific_id":"6310a8e72d2a091bb08a0c97","session_id":"643c1bde1e3d205e9596d524","study_id":"64370a36d30bfa807bc7e43c"},{"rt":2196,"stimulus":"\n\t\t\t\t\t<div>\n\t\t\t\t\t<h2>Trial 20 is over</h2>\n\t\t\t\t\t<p>Press <span style=\"color: red\"><strong>any key</strong></span> to continue to the next trial</p>\n\t\t\t\t\t</div>\n\t\t\t\t","response":" ","trial_type":"html-keyboard-response","trial_index":85,"time_elapsed":608326,"internal_node_id":"0.0-3.0-3.19","prolific_id":"6310a8e72d2a091bb08a0c97","session_id":"643c1bde1e3d205e9596d524","study_id":"64370a36d30bfa807bc7e43c"},{"rt":28307,"response":{"prediction":"300"},"trial_type":"survey-text","trial_index":86,"time_elapsed":636648,"internal_node_id":"0.0-3.0-0.20","prolific_id":"6310a8e72d2a091bb08a0c97","session_id":"643c1bde1e3d205e9596d524","study_id":"64370a36d30bfa807bc7e43c"},{"rt":7533,"response":{"prior knowledge":0,"curiosity":5},"accuracy":[],"trial_type":"survey","trial_index":87,"time_elapsed":644215,"internal_node_id":"0.0-3.0-1.20","prolific_id":"6310a8e72d2a091bb08a0c97","session_id":"643c1bde1e3d205e9596d524","study_id":"64370a36d30bfa807bc7e43c"},{"rt":null,"stimulus":"\n\t\t\t<div class=\"flip_card\">\n\t\t\t\t<div class=\"flip_card_inner\">\n\t\t\t\t\t<div class=\"flip_card_front\">\n\t\t\t\t\t\t<img src=img/3.png>\n\t\t\t\t\t</div>\n\t\t\t\t\t<div class=\"flip_card_back\">\n\t\t\t\t\t\t<h2>How many bones is a human baby born with?</h2>\n\t\t\t\t\t\t<br>\n\t\t\t\t\t\t<p>Answer: <strong>300</strong></p>\n\t\t\t\t\t</div>\n\t\t\t\t</div>\n\t\t\t</div>\n\t\t\t","response":null,"trial_type":"html-keyboard-response","trial_index":88,"time_elapsed":649225,"internal_node_id":"0.0-3.0-2.20","prolific_id":"6310a8e72d2a091bb08a0c97","session_id":"643c1bde1e3d205e9596d524","study_id":"64370a36d30bfa807bc7e43c"},{"rt":4872,"stimulus":"\n\t\t\t\t\t<div>\n\t\t\t\t\t<h2>Trial 21 is over</h2>\n\t\t\t\t\t<p>Press <span style=\"color: red\"><strong>any key</strong></span> to continue to the next trial</p>\n\t\t\t\t\t</div>\n\t\t\t\t","response":" ","trial_type":"html-keyboard-response","trial_index":89,"time_elapsed":654099,"internal_node_id":"0.0-3.0-3.20","prolific_id":"6310a8e72d2a091bb08a0c97","session_id":"643c1bde1e3d205e9596d524","study_id":"64370a36d30bfa807bc7e43c"},{"rt":6233,"response":{"prediction":"6"},"trial_type":"survey-text","trial_index":90,"time_elapsed":660345,"internal_node_id":"0.0-3.0-0.21","prolific_id":"6310a8e72d2a091bb08a0c97","session_id":"643c1bde1e3d205e9596d524","study_id":"64370a36d30bfa807bc7e43c"},{"rt":4182,"response":{"prior knowledge":0,"curiosity":5},"accuracy":[],"trial_type":"survey","trial_index":91,"time_elapsed":664567,"internal_node_id":"0.0-3.0-1.21","prolific_id":"6310a8e72d2a091bb08a0c97","session_id":"643c1bde1e3d205e9596d524","study_id":"64370a36d30bfa807bc7e43c"},{"rt":null,"stimulus":"\n\t\t\t<div class=\"flip_card\">\n\t\t\t\t<div class=\"flip_card_inner\">\n\t\t\t\t\t<div class=\"flip_card_front\">\n\t\t\t\t\t\t<img src=img/18.png>\n\t\t\t\t\t</div>\n\t\t\t\t\t<div class=\"flip_card_back\">\n\t\t\t\t\t\t<h2>How many countries in Africa have French as the official language?</h2>\n\t\t\t\t\t\t<br>\n\t\t\t\t\t\t<p>Answer: <strong>21</strong></p>\n\t\t\t\t\t</div>\n\t\t\t\t</div>\n\t\t\t</div>\n\t\t\t","response":null,"trial_type":"html-keyboard-response","trial_index":92,"time_elapsed":669576,"internal_node_id":"0.0-3.0-2.21","prolific_id":"6310a8e72d2a091bb08a0c97","session_id":"643c1bde1e3d205e9596d524","study_id":"64370a36d30bfa807bc7e43c"},{"rt":598,"stimulus":"\n\t\t\t\t\t<div>\n\t\t\t\t\t<h2>Trial 22 is over</h2>\n\t\t\t\t\t<p>Press <span style=\"color: red\"><strong>any key</strong></span> to continue to the next trial</p>\n\t\t\t\t\t</div>\n\t\t\t\t","response":" ","trial_type":"html-keyboard-response","trial_index":93,"time_elapsed":670176,"internal_node_id":"0.0-3.0-3.21","prolific_id":"6310a8e72d2a091bb08a0c97","session_id":"643c1bde1e3d205e9596d524","study_id":"64370a36d30bfa807bc7e43c"},{"rt":2810,"response":{"prediction":"3"},"trial_type":"survey-text","trial_index":94,"time_elapsed":673005,"internal_node_id":"0.0-3.0-0.22","prolific_id":"6310a8e72d2a091bb08a0c97","session_id":"643c1bde1e3d205e9596d524","study_id":"64370a36d30bfa807bc7e43c"},{"rt":3690,"response":{"prior knowledge":0,"curiosity":5},"accuracy":[],"trial_type":"survey","trial_index":95,"time_elapsed":676735,"internal_node_id":"0.0-3.0-1.22","prolific_id":"6310a8e72d2a091bb08a0c97","session_id":"643c1bde1e3d205e9596d524","study_id":"64370a36d30bfa807bc7e43c"},{"rt":null,"stimulus":"\n\t\t\t<div class=\"flip_card\">\n\t\t\t\t<div class=\"flip_card_inner\">\n\t\t\t\t\t<div class=\"flip_card_front\">\n\t\t\t\t\t\t<img src=img/2.png>\n\t\t\t\t\t</div>\n\t\t\t\t\t<div class=\"flip_card_back\">\n\t\t\t\t\t\t<h2>How many books are in the Catholic Bible?</h2>\n\t\t\t\t\t\t<br>\n\t\t\t\t\t\t<p>Answer: <strong>73</strong></p>\n\t\t\t\t\t</div>\n\t\t\t\t</div>\n\t\t\t</div>\n\t\t\t","response":null,"trial_type":"html-keyboard-response","trial_index":96,"time_elapsed":681748,"internal_node_id":"0.0-3.0-2.22","prolific_id":"6310a8e72d2a091bb08a0c97","session_id":"643c1bde1e3d205e9596d524","study_id":"64370a36d30bfa807bc7e43c"},{"rt":1295,"stimulus":"\n\t\t\t\t\t<div>\n\t\t\t\t\t<h2>Trial 23 is over</h2>\n\t\t\t\t\t<p>Press <span style=\"color: red\"><strong>any key</strong></span> to continue to the next trial</p>\n\t\t\t\t\t</div>\n\t\t\t\t","response":" ","trial_type":"html-keyboard-response","trial_index":97,"time_elapsed":683044,"internal_node_id":"0.0-3.0-3.22","prolific_id":"6310a8e72d2a091bb08a0c97","session_id":"643c1bde1e3d205e9596d524","study_id":"64370a36d30bfa807bc7e43c"},{"rt":9169,"response":{"prediction":"23"},"trial_type":"survey-text","trial_index":98,"time_elapsed":692226,"internal_node_id":"0.0-3.0-0.23","prolific_id":"6310a8e72d2a091bb08a0c97","session_id":"643c1bde1e3d205e9596d524","study_id":"64370a36d30bfa807bc7e43c"},{"rt":6926,"response":{"prior knowledge":0,"curiosity":5},"accuracy":[],"trial_type":"survey","trial_index":99,"time_elapsed":699200,"internal_node_id":"0.0-3.0-1.23","prolific_id":"6310a8e72d2a091bb08a0c97","session_id":"643c1bde1e3d205e9596d524","study_id":"64370a36d30bfa807bc7e43c"},{"rt":null,"stimulus":"\n\t\t\t<div class=\"flip_card\">\n\t\t\t\t<div class=\"flip_card_inner\">\n\t\t\t\t\t<div class=\"flip_card_front\">\n\t\t\t\t\t\t<img src=img/1.png>\n\t\t\t\t\t</div>\n\t\t\t\t\t<div class=\"flip_card_back\">\n\t\t\t\t\t\t<h2>How many countries are in Africa?</h2>\n\t\t\t\t\t\t<br>\n\t\t\t\t\t\t<p>Answer: <strong>54</strong></p>\n\t\t\t\t\t</div>\n\t\t\t\t</div>\n\t\t\t</div>\n\t\t\t","response":null,"trial_type":"html-keyboard-response","trial_index":100,"time_elapsed":704208,"internal_node_id":"0.0-3.0-2.23","prolific_id":"6310a8e72d2a091bb08a0c97","session_id":"643c1bde1e3d205e9596d524","study_id":"64370a36d30bfa807bc7e43c"},{"rt":1816,"stimulus":"\n\t\t\t\t\t<div>\n\t\t\t\t\t<h2>Trial 24 is over</h2>\n\t\t\t\t\t<p>Press <span style=\"color: red\"><strong>any key</strong></span> to continue to the next trial</p>\n\t\t\t\t\t</div>\n\t\t\t\t","response":" ","trial_type":"html-keyboard-response","trial_index":101,"time_elapsed":706026,"internal_node_id":"0.0-3.0-3.23","prolific_id":"6310a8e72d2a091bb08a0c97","session_id":"643c1bde1e3d205e9596d524","study_id":"64370a36d30bfa807bc7e43c"},{"rt":3215,"response":{"prediction":"3"},"trial_type":"survey-text","trial_index":102,"time_elapsed":709253,"internal_node_id":"0.0-3.0-0.24","prolific_id":"6310a8e72d2a091bb08a0c97","session_id":"643c1bde1e3d205e9596d524","study_id":"64370a36d30bfa807bc7e43c"},{"rt":5705,"response":{"prior knowledge":0,"curiosity":5},"accuracy":[],"trial_type":"survey","trial_index":103,"time_elapsed":714998,"internal_node_id":"0.0-3.0-1.24","prolific_id":"6310a8e72d2a091bb08a0c97","session_id":"643c1bde1e3d205e9596d524","study_id":"64370a36d30bfa807bc7e43c"},{"rt":null,"stimulus":"\n\t\t\t<div class=\"flip_card\">\n\t\t\t\t<div class=\"flip_card_inner\">\n\t\t\t\t\t<div class=\"flip_card_front\">\n\t\t\t\t\t\t<img src=img/10.png>\n\t\t\t\t\t</div>\n\t\t\t\t\t<div class=\"flip_card_back\">\n\t\t\t\t\t\t<h2>How many times a day do Muslims pray?</h2>\n\t\t\t\t\t\t<br>\n\t\t\t\t\t\t<p>Answer: <strong>5</strong></p>\n\t\t\t\t\t</div>\n\t\t\t\t</div>\n\t\t\t</div>\n\t\t\t","response":null,"trial_type":"html-keyboard-response","trial_index":104,"time_elapsed":720009,"internal_node_id":"0.0-3.0-2.24","prolific_id":"6310a8e72d2a091bb08a0c97","session_id":"643c1bde1e3d205e9596d524","study_id":"64370a36d30bfa807bc7e43c"},{"rt":1721,"stimulus":"\n\t\t\t\t\t<div>\n\t\t\t\t\t<h2>Trial 25 is over</h2>\n\t\t\t\t\t<p>Press <span style=\"color: red\"><strong>any key</strong></span> to continue to the next trial</p>\n\t\t\t\t\t</div>\n\t\t\t\t","response":" ","trial_type":"html-keyboard-response","trial_index":105,"time_elapsed":721731,"internal_node_id":"0.0-3.0-3.24","prolific_id":"6310a8e72d2a091bb08a0c97","session_id":"643c1bde1e3d205e9596d524","study_id":"64370a36d30bfa807bc7e43c"},{"rt":8259,"response":{"prediction":"8"},"trial_type":"survey-text","trial_index":106,"time_elapsed":730000,"internal_node_id":"0.0-3.0-0.25","prolific_id":"6310a8e72d2a091bb08a0c97","session_id":"643c1bde1e3d205e9596d524","study_id":"64370a36d30bfa807bc7e43c"},{"rt":6984,"response":{"prior knowledge":0,"curiosity":5},"accuracy":[],"trial_type":"survey","trial_index":107,"time_elapsed":737053,"internal_node_id":"0.0-3.0-1.25","prolific_id":"6310a8e72d2a091bb08a0c97","session_id":"643c1bde1e3d205e9596d524","study_id":"64370a36d30bfa807bc7e43c"},{"rt":null,"stimulus":"\n\t\t\t<div class=\"flip_card\">\n\t\t\t\t<div class=\"flip_card_inner\">\n\t\t\t\t\t<div class=\"flip_card_front\">\n\t\t\t\t\t\t<img src=img/24.png>\n\t\t\t\t\t</div>\n\t\t\t\t\t<div class=\"flip_card_back\">\n\t\t\t\t\t\t<h2>How many soccer players should each team have on the field at the start of each match?</h2>\n\t\t\t\t\t\t<br>\n\t\t\t\t\t\t<p>Answer: <strong>11</strong></p>\n\t\t\t\t\t</div>\n\t\t\t\t</div>\n\t\t\t</div>\n\t\t\t","response":null,"trial_type":"html-keyboard-response","trial_index":108,"time_elapsed":742073,"internal_node_id":"0.0-3.0-2.25","prolific_id":"6310a8e72d2a091bb08a0c97","session_id":"643c1bde1e3d205e9596d524","study_id":"64370a36d30bfa807bc7e43c"},{"rt":946,"stimulus":"\n\t\t\t\t\t<div>\n\t\t\t\t\t<h2>Trial 26 is over</h2>\n\t\t\t\t\t<p>Press <span style=\"color: red\"><strong>any key</strong></span> to continue to the next trial</p>\n\t\t\t\t\t</div>\n\t\t\t\t","response":" ","trial_type":"html-keyboard-response","trial_index":109,"time_elapsed":743022,"internal_node_id":"0.0-3.0-3.25","prolific_id":"6310a8e72d2a091bb08a0c97","session_id":"643c1bde1e3d205e9596d524","study_id":"64370a36d30bfa807bc7e43c"},{"rt":8649,"response":{"prediction":"15"},"trial_type":"survey-text","trial_index":110,"time_elapsed":751688,"internal_node_id":"0.0-3.0-0.26","prolific_id":"6310a8e72d2a091bb08a0c97","session_id":"643c1bde1e3d205e9596d524","study_id":"64370a36d30bfa807bc7e43c"},{"rt":4215,"response":{"prior knowledge":0,"curiosity":5},"accuracy":[],"trial_type":"survey","trial_index":111,"time_elapsed":755967,"internal_node_id":"0.0-3.0-1.26","prolific_id":"6310a8e72d2a091bb08a0c97","session_id":"643c1bde1e3d205e9596d524","study_id":"64370a36d30bfa807bc7e43c"},{"rt":null,"stimulus":"\n\t\t\t<div class=\"flip_card\">\n\t\t\t\t<div class=\"flip_card_inner\">\n\t\t\t\t\t<div class=\"flip_card_front\">\n\t\t\t\t\t\t<img src=img/28.png>\n\t\t\t\t\t</div>\n\t\t\t\t\t<div class=\"flip_card_back\">\n\t\t\t\t\t\t<h2>A bar mitzvah is traditionally celebrated when Jewish males turn what age?</h2>\n\t\t\t\t\t\t<br>\n\t\t\t\t\t\t<p>Answer: <strong>13</strong></p>\n\t\t\t\t\t</div>\n\t\t\t\t</div>\n\t\t\t</div>\n\t\t\t","response":null,"trial_type":"html-keyboard-response","trial_index":112,"time_elapsed":760984,"internal_node_id":"0.0-3.0-2.26","prolific_id":"6310a8e72d2a091bb08a0c97","session_id":"643c1bde1e3d205e9596d524","study_id":"64370a36d30bfa807bc7e43c"},{"rt":693,"stimulus":"\n\t\t\t\t\t<div>\n\t\t\t\t\t<h2>Trial 27 is over</h2>\n\t\t\t\t\t<p>Press <span style=\"color: red\"><strong>any key</strong></span> to continue to the next trial</p>\n\t\t\t\t\t</div>\n\t\t\t\t","response":" ","trial_type":"html-keyboard-response","trial_index":113,"time_elapsed":761679,"internal_node_id":"0.0-3.0-3.26","prolific_id":"6310a8e72d2a091bb08a0c97","session_id":"643c1bde1e3d205e9596d524","study_id":"64370a36d30bfa807bc7e43c"},{"rt":5520,"response":{"prediction":"125"},"trial_type":"survey-text","trial_index":114,"time_elapsed":767240,"internal_node_id":"0.0-3.0-0.27","prolific_id":"6310a8e72d2a091bb08a0c97","session_id":"643c1bde1e3d205e9596d524","study_id":"64370a36d30bfa807bc7e43c"},{"rt":5308,"response":{"prior knowledge":0,"curiosity":5},"accuracy":[],"trial_type":"survey","trial_index":115,"time_elapsed":772589,"internal_node_id":"0.0-3.0-1.27","prolific_id":"6310a8e72d2a091bb08a0c97","session_id":"643c1bde1e3d205e9596d524","study_id":"64370a36d30bfa807bc7e43c"},{"rt":null,"stimulus":"\n\t\t\t<div class=\"flip_card\">\n\t\t\t\t<div class=\"flip_card_inner\">\n\t\t\t\t\t<div class=\"flip_card_front\">\n\t\t\t\t\t\t<img src=img/6.png>\n\t\t\t\t\t</div>\n\t\t\t\t\t<div class=\"flip_card_back\">\n\t\t\t\t\t\t<h2>How many books has Stephen King published?</h2>\n\t\t\t\t\t\t<br>\n\t\t\t\t\t\t<p>Answer: <strong>65</strong></p>\n\t\t\t\t\t</div>\n\t\t\t\t</div>\n\t\t\t</div>\n\t\t\t","response":null,"trial_type":"html-keyboard-response","trial_index":116,"time_elapsed":777598,"internal_node_id":"0.0-3.0-2.27","prolific_id":"6310a8e72d2a091bb08a0c97","session_id":"643c1bde1e3d205e9596d524","study_id":"64370a36d30bfa807bc7e43c"},{"rt":703,"stimulus":"\n\t\t\t\t\t<div>\n\t\t\t\t\t<h2>Trial 28 is over</h2>\n\t\t\t\t\t<p>Press <span style=\"color: red\"><strong>any key</strong></span> to continue to the next trial</p>\n\t\t\t\t\t</div>\n\t\t\t\t","response":" ","trial_type":"html-keyboard-response","trial_index":117,"time_elapsed":778302,"internal_node_id":"0.0-3.0-3.27","prolific_id":"6310a8e72d2a091bb08a0c97","session_id":"643c1bde1e3d205e9596d524","study_id":"64370a36d30bfa807bc7e43c"},{"rt":8089,"response":{"prediction":"1970"},"trial_type":"survey-text","trial_index":118,"time_elapsed":786424,"internal_node_id":"0.0-3.0-0.28","prolific_id":"6310a8e72d2a091bb08a0c97","session_id":"643c1bde1e3d205e9596d524","study_id":"64370a36d30bfa807bc7e43c"},{"rt":6166,"response":{"prior knowledge":0,"curiosity":5},"accuracy":[],"trial_type":"survey","trial_index":119,"time_elapsed":792632,"internal_node_id":"0.0-3.0-1.28","prolific_id":"6310a8e72d2a091bb08a0c97","session_id":"643c1bde1e3d205e9596d524","study_id":"64370a36d30bfa807bc7e43c"},{"rt":null,"stimulus":"\n\t\t\t<div class=\"flip_card\">\n\t\t\t\t<div class=\"flip_card_inner\">\n\t\t\t\t\t<div class=\"flip_card_front\">\n\t\t\t\t\t\t<img src=img/20.png>\n\t\t\t\t\t</div>\n\t\t\t\t\t<div class=\"flip_card_back\">\n\t\t\t\t\t\t<h2>In what year was the Mexican artist Frida Kahlo born?</h2>\n\t\t\t\t\t\t<br>\n\t\t\t\t\t\t<p>Answer: <strong>1907</strong></p>\n\t\t\t\t\t</div>\n\t\t\t\t</div>\n\t\t\t</div>\n\t\t\t","response":null,"trial_type":"html-keyboard-response","trial_index":120,"time_elapsed":797648,"internal_node_id":"0.0-3.0-2.28","prolific_id":"6310a8e72d2a091bb08a0c97","session_id":"643c1bde1e3d205e9596d524","study_id":"64370a36d30bfa807bc7e43c"},{"rt":1622,"stimulus":"\n\t\t\t\t\t<div>\n\t\t\t\t\t<h2>Trial 29 is over</h2>\n\t\t\t\t\t<p>Press <span style=\"color: red\"><strong>any key</strong></span> to continue to the next trial</p>\n\t\t\t\t\t</div>\n\t\t\t\t","response":" ","trial_type":"html-keyboard-response","trial_index":121,"time_elapsed":799272,"internal_node_id":"0.0-3.0-3.28","prolific_id":"6310a8e72d2a091bb08a0c97","session_id":"643c1bde1e3d205e9596d524","study_id":"64370a36d30bfa807bc7e43c"},{"rt":4456,"response":{"prediction":"7"},"trial_type":"survey-text","trial_index":122,"time_elapsed":803744,"internal_node_id":"0.0-3.0-0.29","prolific_id":"6310a8e72d2a091bb08a0c97","session_id":"643c1bde1e3d205e9596d524","study_id":"64370a36d30bfa807bc7e43c"},{"rt":3923,"response":{"prior knowledge":0,"curiosity":5},"accuracy":[],"trial_type":"survey","trial_index":123,"time_elapsed":807719,"internal_node_id":"0.0-3.0-1.29","prolific_id":"6310a8e72d2a091bb08a0c97","session_id":"643c1bde1e3d205e9596d524","study_id":"64370a36d30bfa807bc7e43c"},{"rt":null,"stimulus":"\n\t\t\t<div class=\"flip_card\">\n\t\t\t\t<div class=\"flip_card_inner\">\n\t\t\t\t\t<div class=\"flip_card_front\">\n\t\t\t\t\t\t<img src=img/30.png>\n\t\t\t\t\t</div>\n\t\t\t\t\t<div class=\"flip_card_back\">\n\t\t\t\t\t\t<h2>How many lines are in a sonnet?</h2>\n\t\t\t\t\t\t<br>\n\t\t\t\t\t\t<p>Answer: <strong>14</strong></p>\n\t\t\t\t\t</div>\n\t\t\t\t</div>\n\t\t\t</div>\n\t\t\t","response":null,"trial_type":"html-keyboard-response","trial_index":124,"time_elapsed":812736,"internal_node_id":"0.0-3.0-2.29","prolific_id":"6310a8e72d2a091bb08a0c97","session_id":"643c1bde1e3d205e9596d524","study_id":"64370a36d30bfa807bc7e43c"},{"rt":1699,"stimulus":"\n\t\t\t\t\t<div>\n\t\t\t\t\t<h2>Trial 30 is over</h2>\n\t\t\t\t\t<p>Press <span style=\"color: red\"><strong>any key</strong></span> to continue to the next trial</p>\n\t\t\t\t\t</div>\n\t\t\t\t","response":" ","trial_type":"html-keyboard-response","trial_index":125,"time_elapsed":814437,"internal_node_id":"0.0-3.0-3.29","prolific_id":"6310a8e72d2a091bb08a0c97","session_id":"643c1bde1e3d205e9596d524","study_id":"64370a36d30bfa807bc7e43c"},{"rt":20378,"stimulus":"\n\t\t\t<h2>Good job! You've finished the 30 trials:p</h2>\n\t\t\t<p>In the next session, you will see two cards on the screen in each trial.</p>\n\t\t\t<p>On one card is a pattern that you have seen before in the experiment,\n\t\t\t\tand on the other card is one you have not seen.</p><br>\n\t\t\t<p>Your task is to choose the one you think you <em>have</em> seen before for every trial.</p>\n\t\t\t<p>Press '<span style=\"color: red;\"><strong>F</strong></span>' to choose the card on the left,\n\t\t\t\tand '<span style=\"color: red;\"><strong>J</strong></span>' to choose the card on the right.</p>\n\t\t\t<p>Have fun!</p>\n\t\t\t<br>\n\t\t\t<p>The trials will begin in 30 seconds</p>\n\t\t\t","response":" ","trial_type":"html-keyboard-response","trial_index":126,"time_elapsed":834818,"internal_node_id":"0.0-4.0","prolific_id":"6310a8e72d2a091bb08a0c97","session_id":"643c1bde1e3d205e9596d524","study_id":"64370a36d30bfa807bc7e43c"},{"rt":3600,"stimulus":"\n\t\t\t\t\t\t<div class=\"two_card_container\">\n\t\t\t\t\t\t<div class=\"card_container\">\n\t\t\t\t\t\t<img src=img/21.png>\n\t\t\t\t\t\t</div>\n\n\t\t\t\t\t\t<div class=\"card_container\">\n\t\t\t\t\t\t<img src=img/31.png>\n\t\t\t\t\t\t</div>","response":"j","task":"response","correct_response":"f","trial_type":"html-keyboard-response","trial_index":127,"time_elapsed":838423,"internal_node_id":"0.0-5.0-0.0","prolific_id":"6310a8e72d2a091bb08a0c97","session_id":"643c1bde1e3d205e9596d524","study_id":"64370a36d30bfa807bc7e43c","correct":false},{"rt":null,"stimulus":"\n\t\t\t\t\t<p>Wrong answer</p>\n\t\t\t\t\t","response":null,"trial_type":"html-keyboard-response","trial_index":128,"time_elapsed":839440,"internal_node_id":"0.0-5.0-1.0","prolific_id":"6310a8e72d2a091bb08a0c97","session_id":"643c1bde1e3d205e9596d524","study_id":"64370a36d30bfa807bc7e43c"},{"rt":2580,"stimulus":"\n\t\t\t\t\t\t<div class=\"two_card_container\">\n\t\t\t\t\t\t<div class=\"card_container\">\n\t\t\t\t\t\t<img src=img/19.png>\n\t\t\t\t\t\t</div>\n\n\t\t\t\t\t\t<div class=\"card_container\">\n\t\t\t\t\t\t<img src=img/34.png>\n\t\t\t\t\t\t</div>","response":"f","task":"response","correct_response":"f","trial_type":"html-keyboard-response","trial_index":129,"time_elapsed":842023,"internal_node_id":"0.0-5.0-0.1","prolific_id":"6310a8e72d2a091bb08a0c97","session_id":"643c1bde1e3d205e9596d524","study_id":"64370a36d30bfa807bc7e43c","correct":true},{"rt":null,"stimulus":"\n\t\t\t\t\t<p>Correct!</p>\n\t\t\t\t\t","response":null,"trial_type":"html-keyboard-response","trial_index":130,"time_elapsed":843036,"internal_node_id":"0.0-5.0-1.1","prolific_id":"6310a8e72d2a091bb08a0c97","session_id":"643c1bde1e3d205e9596d524","study_id":"64370a36d30bfa807bc7e43c"},{"rt":2224,"stimulus":"\n\t\t\t\t\t\t<div class=\"two_card_container\">\n\t\t\t\t\t\t<div class=\"card_container\">\n\t\t\t\t\t\t<img src=img/36.png>\n\t\t\t\t\t\t</div>\n\n\t\t\t\t\t\t<div class=\"card_container\">\n\t\t\t\t\t\t<img src=img/27.png>\n\t\t\t\t\t\t</div>","response":"f","task":"response","correct_response":"j","trial_type":"html-keyboard-response","trial_index":131,"time_elapsed":845263,"internal_node_id":"0.0-5.0-0.2","prolific_id":"6310a8e72d2a091bb08a0c97","session_id":"643c1bde1e3d205e9596d524","study_id":"64370a36d30bfa807bc7e43c","correct":false},{"rt":null,"stimulus":"\n\t\t\t\t\t<p>Wrong answer</p>\n\t\t\t\t\t","response":null,"trial_type":"html-keyboard-response","trial_index":132,"time_elapsed":846272,"internal_node_id":"0.0-5.0-1.2","prolific_id":"6310a8e72d2a091bb08a0c97","session_id":"643c1bde1e3d205e9596d524","study_id":"64370a36d30bfa807bc7e43c"},{"rt":2033,"stimulus":"\n\t\t\t\t\t\t<div class=\"two_card_container\">\n\t\t\t\t\t\t<div class=\"card_container\">\n\t\t\t\t\t\t<img src=img/32.png>\n\t\t\t\t\t\t</div>\n\n\t\t\t\t\t\t<div class=\"card_container\">\n\t\t\t\t\t\t<img src=img/29.png>\n\t\t\t\t\t\t</div>","response":"j","task":"response","correct_response":"j","trial_type":"html-keyboard-response","trial_index":133,"time_elapsed":848308,"internal_node_id":"0.0-5.0-0.3","prolific_id":"6310a8e72d2a091bb08a0c97","session_id":"643c1bde1e3d205e9596d524","study_id":"64370a36d30bfa807bc7e43c","correct":true},{"rt":null,"stimulus":"\n\t\t\t\t\t<p>Correct!</p>\n\t\t\t\t\t","response":null,"trial_type":"html-keyboard-response","trial_index":134,"time_elapsed":849323,"internal_node_id":"0.0-5.0-1.3","prolific_id":"6310a8e72d2a091bb08a0c97","session_id":"643c1bde1e3d205e9596d524","study_id":"64370a36d30bfa807bc7e43c"},{"rt":2439,"stimulus":"\n\t\t\t\t\t\t<div class=\"two_card_container\">\n\t\t\t\t\t\t<div class=\"card_container\">\n\t\t\t\t\t\t<img src=img/37.png>\n\t\t\t\t\t\t</div>\n\n\t\t\t\t\t\t<div class=\"card_container\">\n\t\t\t\t\t\t<img src=img/10.png>\n\t\t\t\t\t\t</div>","response":"j","task":"response","correct_response":"j","trial_type":"html-keyboard-response","trial_index":135,"time_elapsed":851766,"internal_node_id":"0.0-5.0-0.4","prolific_id":"6310a8e72d2a091bb08a0c97","session_id":"643c1bde1e3d205e9596d524","study_id":"64370a36d30bfa807bc7e43c","correct":true},{"rt":null,"stimulus":"\n\t\t\t\t\t<p>Correct!</p>\n\t\t\t\t\t","response":null,"trial_type":"html-keyboard-response","trial_index":136,"time_elapsed":852778,"internal_node_id":"0.0-5.0-1.4","prolific_id":"6310a8e72d2a091bb08a0c97","session_id":"643c1bde1e3d205e9596d524","study_id":"64370a36d30bfa807bc7e43c"},{"rt":1669,"stimulus":"\n\t\t\t\t\t\t<div class=\"two_card_container\">\n\t\t\t\t\t\t<div class=\"card_container\">\n\t\t\t\t\t\t<img src=img/14.png>\n\t\t\t\t\t\t</div>\n\n\t\t\t\t\t\t<div class=\"card_container\">\n\t\t\t\t\t\t<img src=img/40.png>\n\t\t\t\t\t\t</div>","response":"j","task":"response","correct_response":"f","trial_type":"html-keyboard-response","trial_index":137,"time_elapsed":854450,"internal_node_id":"0.0-5.0-0.5","prolific_id":"6310a8e72d2a091bb08a0c97","session_id":"643c1bde1e3d205e9596d524","study_id":"64370a36d30bfa807bc7e43c","correct":false},{"rt":null,"stimulus":"\n\t\t\t\t\t<p>Wrong answer</p>\n\t\t\t\t\t","response":null,"trial_type":"html-keyboard-response","trial_index":138,"time_elapsed":855457,"internal_node_id":"0.0-5.0-1.5","prolific_id":"6310a8e72d2a091bb08a0c97","session_id":"643c1bde1e3d205e9596d524","study_id":"64370a36d30bfa807bc7e43c"},{"rt":1909,"stimulus":"\n\t\t\t\t\t\t<div class=\"two_card_container\">\n\t\t\t\t\t\t<div class=\"card_container\">\n\t\t\t\t\t\t<img src=img/33.png>\n\t\t\t\t\t\t</div>\n\n\t\t\t\t\t\t<div class=\"card_container\">\n\t\t\t\t\t\t<img src=img/12.png>\n\t\t\t\t\t\t</div>","response":"f","task":"response","correct_response":"j","trial_type":"html-keyboard-response","trial_index":139,"time_elapsed":857369,"internal_node_id":"0.0-5.0-0.6","prolific_id":"6310a8e72d2a091bb08a0c97","session_id":"643c1bde1e3d205e9596d524","study_id":"64370a36d30bfa807bc7e43c","correct":false},{"rt":null,"stimulus":"\n\t\t\t\t\t<p>Wrong answer</p>\n\t\t\t\t\t","response":null,"trial_type":"html-keyboard-response","trial_index":140,"time_elapsed":858379,"internal_node_id":"0.0-5.0-1.6","prolific_id":"6310a8e72d2a091bb08a0c97","session_id":"643c1bde1e3d205e9596d524","study_id":"64370a36d30bfa807bc7e43c"},{"rt":1322,"stimulus":"\n\t\t\t\t\t\t<div class=\"two_card_container\">\n\t\t\t\t\t\t<div class=\"card_container\">\n\t\t\t\t\t\t<img src=img/38.png>\n\t\t\t\t\t\t</div>\n\n\t\t\t\t\t\t<div class=\"card_container\">\n\t\t\t\t\t\t<img src=img/9.png>\n\t\t\t\t\t\t</div>","response":"f","task":"response","correct_response":"j","trial_type":"html-keyboard-response","trial_index":141,"time_elapsed":859704,"internal_node_id":"0.0-5.0-0.7","prolific_id":"6310a8e72d2a091bb08a0c97","session_id":"643c1bde1e3d205e9596d524","study_id":"64370a36d30bfa807bc7e43c","correct":false},{"rt":null,"stimulus":"\n\t\t\t\t\t<p>Wrong answer</p>\n\t\t\t\t\t","response":null,"trial_type":"html-keyboard-response","trial_index":142,"time_elapsed":860715,"internal_node_id":"0.0-5.0-1.7","prolific_id":"6310a8e72d2a091bb08a0c97","session_id":"643c1bde1e3d205e9596d524","study_id":"64370a36d30bfa807bc7e43c"},{"rt":2010,"stimulus":"\n\t\t\t\t\t\t<div class=\"two_card_container\">\n\t\t\t\t\t\t<div class=\"card_container\">\n\t\t\t\t\t\t<img src=img/4.png>\n\t\t\t\t\t\t</div>\n\n\t\t\t\t\t\t<div class=\"card_container\">\n\t\t\t\t\t\t<img src=img/35.png>\n\t\t\t\t\t\t</div>","response":"f","task":"response","correct_response":"f","trial_type":"html-keyboard-response","trial_index":143,"time_elapsed":862728,"internal_node_id":"0.0-5.0-0.8","prolific_id":"6310a8e72d2a091bb08a0c97","session_id":"643c1bde1e3d205e9596d524","study_id":"64370a36d30bfa807bc7e43c","correct":true},{"rt":null,"stimulus":"\n\t\t\t\t\t<p>Correct!</p>\n\t\t\t\t\t","response":null,"trial_type":"html-keyboard-response","trial_index":144,"time_elapsed":863743,"internal_node_id":"0.0-5.0-1.8","prolific_id":"6310a8e72d2a091bb08a0c97","session_id":"643c1bde1e3d205e9596d524","study_id":"64370a36d30bfa807bc7e43c"},{"rt":2835,"stimulus":"\n\t\t\t\t\t\t<div class=\"two_card_container\">\n\t\t\t\t\t\t<div class=\"card_container\">\n\t\t\t\t\t\t<img src=img/3.png>\n\t\t\t\t\t\t</div>\n\n\t\t\t\t\t\t<div class=\"card_container\">\n\t\t\t\t\t\t<img src=img/39.png>\n\t\t\t\t\t\t</div>","response":"j","task":"response","correct_response":"f","trial_type":"html-keyboard-response","trial_index":145,"time_elapsed":866581,"internal_node_id":"0.0-5.0-0.9","prolific_id":"6310a8e72d2a091bb08a0c97","session_id":"643c1bde1e3d205e9596d524","study_id":"64370a36d30bfa807bc7e43c","correct":false},{"rt":null,"stimulus":"\n\t\t\t\t\t<p>Wrong answer</p>\n\t\t\t\t\t","response":null,"trial_type":"html-keyboard-response","trial_index":146,"time_elapsed":867584,"internal_node_id":"0.0-5.0-1.9","prolific_id":"6310a8e72d2a091bb08a0c97","session_id":"643c1bde1e3d205e9596d524","study_id":"64370a36d30bfa807bc7e43c"},{"rt":10375,"stimulus":"\n\t\t\t<h2>Good job :p</h2>\n\t\t\t<p>In the next session, you will see a trivia question on the screen in each trial.</p>\n\t\t\t<p>Each of these trivia questions is chosen from the questions you have already seen in the first session of the experiment.</p><br>\n\t\t\t<p>Your task is to answer the trivia question based on what you remember as accurately as you can.</p>\n\t\t\t<p>Have fun!</p>\n\t\t\t<br>\n\t\t\t<p>The trials will begin in 30 seconds</p>\n\t\t\t","response":"enter","trial_type":"html-keyboard-response","trial_index":147,"time_elapsed":877961,"internal_node_id":"0.0-6.0","prolific_id":"6310a8e72d2a091bb08a0c97","session_id":"643c1bde1e3d205e9596d524","study_id":"64370a36d30bfa807bc7e43c"},{"rt":6161,"response":{"answer":"1985"},"task":"response","correct_response":"1896","trial_type":"survey-text","trial_index":148,"time_elapsed":884136,"internal_node_id":"0.0-7.0-0.0","prolific_id":"6310a8e72d2a091bb08a0c97","session_id":"643c1bde1e3d205e9596d524","study_id":"64370a36d30bfa807bc7e43c","difference":5},{"rt":null,"stimulus":"<h2>The correct answer is 1896.</h2><p>Your answer was different from the answer by 89.</p><p>Excellent. Kudos to you!</p>","response":null,"trial_type":"html-keyboard-response","trial_index":149,"time_elapsed":886650,"internal_node_id":"0.0-7.0-1.0","prolific_id":"6310a8e72d2a091bb08a0c97","session_id":"643c1bde1e3d205e9596d524","study_id":"64370a36d30bfa807bc7e43c"},{"rt":8023,"response":{"answer":"88"},"task":"response","correct_response":"88","trial_type":"survey-text","trial_index":150,"time_elapsed":894681,"internal_node_id":"0.0-7.0-0.1","prolific_id":"6310a8e72d2a091bb08a0c97","session_id":"643c1bde1e3d205e9596d524","study_id":"64370a36d30bfa807bc7e43c","difference":0},{"rt":null,"stimulus":"<h2>The correct answer is 88.</h2><p>Your answer was different from the answer by 0.</p><p>You got the right answer. Amazing work!</p>","response":null,"trial_type":"html-keyboard-response","trial_index":151,"time_elapsed":897188,"internal_node_id":"0.0-7.0-1.1","prolific_id":"6310a8e72d2a091bb08a0c97","session_id":"643c1bde1e3d205e9596d524","study_id":"64370a36d30bfa807bc7e43c"},{"rt":7267,"response":{"answer":"5552"},"task":"response","correct_response":"13171","trial_type":"survey-text","trial_index":152,"time_elapsed":904466,"internal_node_id":"0.0-7.0-0.2","prolific_id":"6310a8e72d2a091bb08a0c97","session_id":"643c1bde1e3d205e9596d524","study_id":"64370a36d30bfa807bc7e43c","difference":58},{"rt":null,"stimulus":"<h2>The correct answer is 13171.</h2><p>Your answer was different from the answer by 7619.</p><p>Not even close... do better next time!</p>","response":null,"trial_type":"html-keyboard-response","trial_index":153,"time_elapsed":906979,"internal_node_id":"0.0-7.0-1.2","prolific_id":"6310a8e72d2a091bb08a0c97","session_id":"643c1bde1e3d205e9596d524","study_id":"64370a36d30bfa807bc7e43c"},{"rt":5812,"response":{"answer":"25"},"task":"response","correct_response":"4","trial_type":"survey-text","trial_index":154,"time_elapsed":912800,"internal_node_id":"0.0-7.0-0.3","prolific_id":"6310a8e72d2a091bb08a0c97","session_id":"643c1bde1e3d205e9596d524","study_id":"64370a36d30bfa807bc7e43c","difference":100},{"rt":null,"stimulus":"<h2>The correct answer is 4.</h2><p>Your answer was different from the answer by 21.</p><p>Not even close... do better next time!</p>","response":null,"trial_type":"html-keyboard-response","trial_index":155,"time_elapsed":915310,"internal_node_id":"0.0-7.0-1.3","prolific_id":"6310a8e72d2a091bb08a0c97","session_id":"643c1bde1e3d205e9596d524","study_id":"64370a36d30bfa807bc7e43c"},{"rt":4553,"response":{"answer":"12"},"task":"response","correct_response":"6","trial_type":"survey-text","trial_index":156,"time_elapsed":919897,"internal_node_id":"0.0-7.0-0.4","prolific_id":"6310a8e72d2a091bb08a0c97","session_id":"643c1bde1e3d205e9596d524","study_id":"64370a36d30bfa807bc7e43c","difference":100},{"rt":null,"stimulus":"<h2>The correct answer is 6.</h2><p>Your answer was different from the answer by 6.</p><p>Not even close... do better next time!</p>","response":null,"trial_type":"html-keyboard-response","trial_index":157,"time_elapsed":922407,"internal_node_id":"0.0-7.0-1.4","prolific_id":"6310a8e72d2a091bb08a0c97","session_id":"643c1bde1e3d205e9596d524","study_id":"64370a36d30bfa807bc7e43c"},{"rt":4994,"response":{"answer":"21"},"task":"response","correct_response":"14","trial_type":"survey-text","trial_index":158,"time_elapsed":927408,"internal_node_id":"0.0-7.0-0.5","prolific_id":"6310a8e72d2a091bb08a0c97","session_id":"643c1bde1e3d205e9596d524","study_id":"64370a36d30bfa807bc7e43c","difference":50},{"rt":null,"stimulus":"<h2>The correct answer is 14.</h2><p>Your answer was different from the answer by 7.</p><p>Not the worst. Can you do better on the next?</p>","response":null,"trial_type":"html-keyboard-response","trial_index":159,"time_elapsed":929911,"internal_node_id":"0.0-7.0-1.5","prolific_id":"6310a8e72d2a091bb08a0c97","session_id":"643c1bde1e3d205e9596d524","study_id":"64370a36d30bfa807bc7e43c"},{"rt":3602,"response":{"answer":"11"},"task":"response","correct_response":"11","trial_type":"survey-text","trial_index":160,"time_elapsed":933520,"internal_node_id":"0.0-7.0-0.6","prolific_id":"6310a8e72d2a091bb08a0c97","session_id":"643c1bde1e3d205e9596d524","study_id":"64370a36d30bfa807bc7e43c","difference":0},{"rt":null,"stimulus":"<h2>The correct answer is 11.</h2><p>Your answer was different from the answer by 0.</p><p>You got the right answer. Amazing work!</p>","response":null,"trial_type":"html-keyboard-response","trial_index":161,"time_elapsed":936032,"internal_node_id":"0.0-7.0-1.6","prolific_id":"6310a8e72d2a091bb08a0c97","session_id":"643c1bde1e3d205e9596d524","study_id":"64370a36d30bfa807bc7e43c"},{"rt":8337,"response":{"answer":"1914"},"task":"response","correct_response":"1901","trial_type":"survey-text","trial_index":162,"time_elapsed":944376,"internal_node_id":"0.0-7.0-0.7","prolific_id":"6310a8e72d2a091bb08a0c97","session_id":"643c1bde1e3d205e9596d524","study_id":"64370a36d30bfa807bc7e43c","difference":1},{"rt":null,"stimulus":"<h2>The correct answer is 1901.</h2><p>Your answer was different from the answer by 13.</p><p>Excellent. Kudos to you!</p>","response":null,"trial_type":"html-keyboard-response","trial_index":163,"time_elapsed":946885,"internal_node_id":"0.0-7.0-1.7","prolific_id":"6310a8e72d2a091bb08a0c97","session_id":"643c1bde1e3d205e9596d524","study_id":"64370a36d30bfa807bc7e43c"},{"rt":7959,"response":{"answer":"1907"},"task":"response","correct_response":"1907","trial_type":"survey-text","trial_index":164,"time_elapsed":954852,"internal_node_id":"0.0-7.0-0.8","prolific_id":"6310a8e72d2a091bb08a0c97","session_id":"643c1bde1e3d205e9596d524","study_id":"64370a36d30bfa807bc7e43c","difference":0},{"rt":null,"stimulus":"<h2>The correct answer is 1907.</h2><p>Your answer was different from the answer by 0.</p><p>You got the right answer. Amazing work!</p>","response":null,"trial_type":"html-keyboard-response","trial_index":165,"time_elapsed":957373,"internal_node_id":"0.0-7.0-1.8","prolific_id":"6310a8e72d2a091bb08a0c97","session_id":"643c1bde1e3d205e9596d524","study_id":"64370a36d30bfa807bc7e43c"},{"rt":5155,"response":{"answer":"2007"},"task":"response","correct_response":"2007","trial_type":"survey-text","trial_index":166,"time_elapsed":962564,"internal_node_id":"0.0-7.0-0.9","prolific_id":"6310a8e72d2a091bb08a0c97","session_id":"643c1bde1e3d205e9596d524","study_id":"64370a36d30bfa807bc7e43c","difference":0},{"rt":null,"stimulus":"<h2>The correct answer is 2007.</h2><p>Your answer was different from the answer by 0.</p><p>You got the right answer. Amazing work!</p>","response":null,"trial_type":"html-keyboard-response","trial_index":167,"time_elapsed":965073,"internal_node_id":"0.0-7.0-1.9","prolific_id":"6310a8e72d2a091bb08a0c97","session_id":"643c1bde1e3d205e9596d524","study_id":"64370a36d30bfa807bc7e43c"}]