[{"success":true,"timeout":false,"failed_images":[],"failed_audio":[],"failed_video":[],"trial_type":"preload","trial_index":0,"time_elapsed":11557,"internal_node_id":"0.0-0.0","prolific_id":"63168f4d57bf8e3c1a5cf056","session_id":"643c1b0ce78277721c8b6f5e","study_id":"64370a36d30bfa807bc7e43c"},{"rt":59588,"stimulus":"\n\t\t\t\t\t<p>Welcome and thank you for participating in this study!</p>\n\t\t\t\t\t<p>In each trial, you will be given a trivia question and then be asked to:</p><br>\n\t\t\t\t\t<div class=\"list\">\n\t\t\t\t\t<p>1) Predict the answer</p>\n\t\t\t\t\t<p>2) Rate how much you already know about the topic</p>\n\t\t\t\t\t<p>3) Rate how much you want to know the answer</p>\n\t\t\t\t\t</div>\n\t\t\t\t\t<br>\n\t\t\t\t\t<p>Then, you will see a card that flips over to reveal the answer.</p>\n\t\t\t\t\t<br>\n\t\t\t\t\t<p>Let's try a practice round. Press <span style=\"color: red\"><strong>any key</strong></span> to move to the next slide</p>\n\t\t\t\t\t","response":" ","trial_type":"html-keyboard-response","trial_index":1,"time_elapsed":71157,"internal_node_id":"0.0-1.0","prolific_id":"63168f4d57bf8e3c1a5cf056","session_id":"643c1b0ce78277721c8b6f5e","study_id":"64370a36d30bfa807bc7e43c"},{"rt":10196,"response":{"practice prediction":"8"},"task":"practice","trial_type":"survey-text","trial_index":2,"time_elapsed":81369,"internal_node_id":"0.0-2.0-0.0","prolific_id":"63168f4d57bf8e3c1a5cf056","session_id":"643c1b0ce78277721c8b6f5e","study_id":"64370a36d30bfa807bc7e43c"},{"rt":14099,"response":{"practice":4},"accuracy":[],"trial_type":"survey","trial_index":3,"time_elapsed":95516,"internal_node_id":"0.0-2.0-1.0","prolific_id":"63168f4d57bf8e3c1a5cf056","session_id":"643c1b0ce78277721c8b6f5e","study_id":"64370a36d30bfa807bc7e43c"},{"rt":null,"stimulus":"\n\t\t\t\t<div class=\"flip_card\">\n\t\t\t\t\t<div class=\"flip_card_inner\">\n\t\t\t\t\t\t<div class=\"flip_card_front\">\n\t\t\t\t\t\t\t<img src=img/practice.png>\n\t\t\t\t\t\t</div>\n\t\t\t\t\t\t<div class=\"flip_card_back\">\n\t\t\t\t\t\t\t<h2>\"How many legs does a lobster have?\"</h2>\n\t\t\t\t\t\t    <br>\n\t\t\t\t\t\t    <p>Answer: <strong>\"10\"</strong></p>\n\t\t\t\t\t    </div>\n\t\t\t\t    </div>\n\t\t\t    </div>\n\t\t\t\t","response":null,"trial_type":"html-keyboard-response","trial_index":4,"time_elapsed":100518,"internal_node_id":"0.0-2.0-2.0","prolific_id":"63168f4d57bf8e3c1a5cf056","session_id":"643c1b0ce78277721c8b6f5e","study_id":"64370a36d30bfa807bc7e43c"},{"rt":3422,"stimulus":"\n\t\t\t\t\t<div>\n\t\t\t\t\t<h2>The practice round is over</h2>\n\t\t\t\t\t<p>Press <span style=\"color: red\"><strong>any key</strong></span> to continue to the actual trials</p>\n\t\t\t\t\t<p>Good Luck!</p>\n\t\t\t\t\t</div>\n\t\t\t\t\t","response":" ","trial_type":"html-keyboard-response","trial_index":5,"time_elapsed":103940,"internal_node_id":"0.0-2.0-3.0","prolific_id":"63168f4d57bf8e3c1a5cf056","session_id":"643c1b0ce78277721c8b6f5e","study_id":"64370a36d30bfa807bc7e43c"},{"rt":9956,"response":{"prediction":"50"},"trial_type":"survey-text","trial_index":6,"time_elapsed":113899,"internal_node_id":"0.0-3.0-0.0","prolific_id":"63168f4d57bf8e3c1a5cf056","session_id":"643c1b0ce78277721c8b6f5e","study_id":"64370a36d30bfa807bc7e43c"},{"rt":6627,"response":{"prior knowledge":0,"curiosity":1},"accuracy":[],"trial_type":"survey","trial_index":7,"time_elapsed":120546,"internal_node_id":"0.0-3.0-1.0","prolific_id":"63168f4d57bf8e3c1a5cf056","session_id":"643c1b0ce78277721c8b6f5e","study_id":"64370a36d30bfa807bc7e43c"},{"rt":null,"stimulus":"\n\t\t\t<div class=\"flip_card\">\n\t\t\t\t<div class=\"flip_card_inner\">\n\t\t\t\t\t<div class=\"flip_card_front\">\n\t\t\t\t\t\t<img src=img/16.png>\n\t\t\t\t\t</div>\n\t\t\t\t\t<div class=\"flip_card_back\">\n\t\t\t\t\t\t<h2>How many double stitches does a baseball have?</h2>\n\t\t\t\t\t\t<br>\n\t\t\t\t\t\t<p>Answer: <strong>108</strong></p>\n\t\t\t\t\t</div>\n\t\t\t\t</div>\n\t\t\t</div>\n\t\t\t","response":null,"trial_type":"html-keyboard-response","trial_index":8,"time_elapsed":125556,"internal_node_id":"0.0-3.0-2.0","prolific_id":"63168f4d57bf8e3c1a5cf056","session_id":"643c1b0ce78277721c8b6f5e","study_id":"64370a36d30bfa807bc7e43c"},{"rt":1778,"stimulus":"\n\t\t\t\t\t<div>\n\t\t\t\t\t<h2>Trial 1 is over</h2>\n\t\t\t\t\t<p>Press <span style=\"color: red\"><strong>any key</strong></span> to continue to the next trial</p>\n\t\t\t\t\t</div>\n\t\t\t\t","response":" ","trial_type":"html-keyboard-response","trial_index":9,"time_elapsed":127335,"internal_node_id":"0.0-3.0-3.0","prolific_id":"63168f4d57bf8e3c1a5cf056","session_id":"643c1b0ce78277721c8b6f5e","study_id":"64370a36d30bfa807bc7e43c"},{"rt":10344,"response":{"prediction":"1965"},"trial_type":"survey-text","trial_index":10,"time_elapsed":137682,"internal_node_id":"0.0-3.0-0.1","prolific_id":"63168f4d57bf8e3c1a5cf056","session_id":"643c1b0ce78277721c8b6f5e","study_id":"64370a36d30bfa807bc7e43c"},{"rt":6285,"response":{"prior knowledge":0,"curiosity":0},"accuracy":[],"trial_type":"survey","trial_index":11,"time_elapsed":143986,"internal_node_id":"0.0-3.0-1.1","prolific_id":"63168f4d57bf8e3c1a5cf056","session_id":"643c1b0ce78277721c8b6f5e","study_id":"64370a36d30bfa807bc7e43c"},{"rt":null,"stimulus":"\n\t\t\t<div class=\"flip_card\">\n\t\t\t\t<div class=\"flip_card_inner\">\n\t\t\t\t\t<div class=\"flip_card_front\">\n\t\t\t\t\t\t<img src=img/30.png>\n\t\t\t\t\t</div>\n\t\t\t\t\t<div class=\"flip_card_back\">\n\t\t\t\t\t\t<h2>In what year was the Mexican artist Frida Kahlo born?</h2>\n\t\t\t\t\t\t<br>\n\t\t\t\t\t\t<p>Answer: <strong>1907</strong></p>\n\t\t\t\t\t</div>\n\t\t\t\t</div>\n\t\t\t</div>\n\t\t\t","response":null,"trial_type":"html-keyboard-response","trial_index":12,"time_elapsed":148989,"internal_node_id":"0.0-3.0-2.1","prolific_id":"63168f4d57bf8e3c1a5cf056","session_id":"643c1b0ce78277721c8b6f5e","study_id":"64370a36d30bfa807bc7e43c"},{"rt":2420,"stimulus":"\n\t\t\t\t\t<div>\n\t\t\t\t\t<h2>Trial 2 is over</h2>\n\t\t\t\t\t<p>Press <span style=\"color: red\"><strong>any key</strong></span> to continue to the next trial</p>\n\t\t\t\t\t</div>\n\t\t\t\t","response":" ","trial_type":"html-keyboard-response","trial_index":13,"time_elapsed":151409,"internal_node_id":"0.0-3.0-3.1","prolific_id":"63168f4d57bf8e3c1a5cf056","session_id":"643c1b0ce78277721c8b6f5e","study_id":"64370a36d30bfa807bc7e43c"},{"rt":13061,"response":{"prediction":"1924"},"trial_type":"survey-text","trial_index":14,"time_elapsed":164471,"internal_node_id":"0.0-3.0-0.2","prolific_id":"63168f4d57bf8e3c1a5cf056","session_id":"643c1b0ce78277721c8b6f5e","study_id":"64370a36d30bfa807bc7e43c"},{"rt":7553,"response":{"prior knowledge":1,"curiosity":3},"accuracy":[],"trial_type":"survey","trial_index":15,"time_elapsed":172040,"internal_node_id":"0.0-3.0-1.2","prolific_id":"63168f4d57bf8e3c1a5cf056","session_id":"643c1b0ce78277721c8b6f5e","study_id":"64370a36d30bfa807bc7e43c"},{"rt":null,"stimulus":"\n\t\t\t<div class=\"flip_card\">\n\t\t\t\t<div class=\"flip_card_inner\">\n\t\t\t\t\t<div class=\"flip_card_front\">\n\t\t\t\t\t\t<img src=img/24.png>\n\t\t\t\t\t</div>\n\t\t\t\t\t<div class=\"flip_card_back\">\n\t\t\t\t\t\t<h2>In what year did the first Modern Olympic Games take place?</h2>\n\t\t\t\t\t\t<br>\n\t\t\t\t\t\t<p>Answer: <strong>1896</strong></p>\n\t\t\t\t\t</div>\n\t\t\t\t</div>\n\t\t\t</div>\n\t\t\t","response":null,"trial_type":"html-keyboard-response","trial_index":16,"time_elapsed":177041,"internal_node_id":"0.0-3.0-2.2","prolific_id":"63168f4d57bf8e3c1a5cf056","session_id":"643c1b0ce78277721c8b6f5e","study_id":"64370a36d30bfa807bc7e43c"},{"rt":1058,"stimulus":"\n\t\t\t\t\t<div>\n\t\t\t\t\t<h2>Trial 3 is over</h2>\n\t\t\t\t\t<p>Press <span style=\"color: red\"><strong>any key</strong></span> to continue to the next trial</p>\n\t\t\t\t\t</div>\n\t\t\t\t","response":" ","trial_type":"html-keyboard-response","trial_index":17,"time_elapsed":178100,"internal_node_id":"0.0-3.0-3.2","prolific_id":"63168f4d57bf8e3c1a5cf056","session_id":"643c1b0ce78277721c8b6f5e","study_id":"64370a36d30bfa807bc7e43c"},{"rt":15465,"response":{"prediction":"0"},"trial_type":"survey-text","trial_index":18,"time_elapsed":193567,"internal_node_id":"0.0-3.0-0.3","prolific_id":"63168f4d57bf8e3c1a5cf056","session_id":"643c1b0ce78277721c8b6f5e","study_id":"64370a36d30bfa807bc7e43c"},{"rt":13013,"response":{"prior knowledge":2,"curiosity":4},"accuracy":[],"trial_type":"survey","trial_index":19,"time_elapsed":206597,"internal_node_id":"0.0-3.0-1.3","prolific_id":"63168f4d57bf8e3c1a5cf056","session_id":"643c1b0ce78277721c8b6f5e","study_id":"64370a36d30bfa807bc7e43c"},{"rt":null,"stimulus":"\n\t\t\t<div class=\"flip_card\">\n\t\t\t\t<div class=\"flip_card_inner\">\n\t\t\t\t\t<div class=\"flip_card_front\">\n\t\t\t\t\t\t<img src=img/3.png>\n\t\t\t\t\t</div>\n\t\t\t\t\t<div class=\"flip_card_back\">\n\t\t\t\t\t\t<h2>How many countries have territory in the Arctic Circle?</h2>\n\t\t\t\t\t\t<br>\n\t\t\t\t\t\t<p>Answer: <strong>8</strong></p>\n\t\t\t\t\t</div>\n\t\t\t\t</div>\n\t\t\t</div>\n\t\t\t","response":null,"trial_type":"html-keyboard-response","trial_index":20,"time_elapsed":211612,"internal_node_id":"0.0-3.0-2.3","prolific_id":"63168f4d57bf8e3c1a5cf056","session_id":"643c1b0ce78277721c8b6f5e","study_id":"64370a36d30bfa807bc7e43c"},{"rt":1894,"stimulus":"\n\t\t\t\t\t<div>\n\t\t\t\t\t<h2>Trial 4 is over</h2>\n\t\t\t\t\t<p>Press <span style=\"color: red\"><strong>any key</strong></span> to continue to the next trial</p>\n\t\t\t\t\t</div>\n\t\t\t\t","response":" ","trial_type":"html-keyboard-response","trial_index":21,"time_elapsed":213507,"internal_node_id":"0.0-3.0-3.3","prolific_id":"63168f4d57bf8e3c1a5cf056","session_id":"643c1b0ce78277721c8b6f5e","study_id":"64370a36d30bfa807bc7e43c"},{"rt":11046,"response":{"prediction":"17"},"trial_type":"survey-text","trial_index":22,"time_elapsed":224555,"internal_node_id":"0.0-3.0-0.4","prolific_id":"63168f4d57bf8e3c1a5cf056","session_id":"643c1b0ce78277721c8b6f5e","study_id":"64370a36d30bfa807bc7e43c"},{"rt":7695,"response":{"prior knowledge":0,"curiosity":2},"accuracy":[],"trial_type":"survey","trial_index":23,"time_elapsed":232264,"internal_node_id":"0.0-3.0-1.4","prolific_id":"63168f4d57bf8e3c1a5cf056","session_id":"643c1b0ce78277721c8b6f5e","study_id":"64370a36d30bfa807bc7e43c"},{"rt":null,"stimulus":"\n\t\t\t<div class=\"flip_card\">\n\t\t\t\t<div class=\"flip_card_inner\">\n\t\t\t\t\t<div class=\"flip_card_front\">\n\t\t\t\t\t\t<img src=img/7.png>\n\t\t\t\t\t</div>\n\t\t\t\t\t<div class=\"flip_card_back\">\n\t\t\t\t\t\t<h2>How many constellations are there?</h2>\n\t\t\t\t\t\t<br>\n\t\t\t\t\t\t<p>Answer: <strong>88</strong></p>\n\t\t\t\t\t</div>\n\t\t\t\t</div>\n\t\t\t</div>\n\t\t\t","response":null,"trial_type":"html-keyboard-response","trial_index":24,"time_elapsed":237268,"internal_node_id":"0.0-3.0-2.4","prolific_id":"63168f4d57bf8e3c1a5cf056","session_id":"643c1b0ce78277721c8b6f5e","study_id":"64370a36d30bfa807bc7e43c"},{"rt":795,"stimulus":"\n\t\t\t\t\t<div>\n\t\t\t\t\t<h2>Trial 5 is over</h2>\n\t\t\t\t\t<p>Press <span style=\"color: red\"><strong>any key</strong></span> to continue to the next trial</p>\n\t\t\t\t\t</div>\n\t\t\t\t","response":" ","trial_type":"html-keyboard-response","trial_index":25,"time_elapsed":238063,"internal_node_id":"0.0-3.0-3.4","prolific_id":"63168f4d57bf8e3c1a5cf056","session_id":"643c1b0ce78277721c8b6f5e","study_id":"64370a36d30bfa807bc7e43c"},{"rt":7357,"response":{"prediction":"12"},"trial_type":"survey-text","trial_index":26,"time_elapsed":245422,"internal_node_id":"0.0-3.0-0.5","prolific_id":"63168f4d57bf8e3c1a5cf056","session_id":"643c1b0ce78277721c8b6f5e","study_id":"64370a36d30bfa807bc7e43c"},{"rt":5359,"response":{"prior knowledge":1,"curiosity":3},"accuracy":[],"trial_type":"survey","trial_index":27,"time_elapsed":250797,"internal_node_id":"0.0-3.0-1.5","prolific_id":"63168f4d57bf8e3c1a5cf056","session_id":"643c1b0ce78277721c8b6f5e","study_id":"64370a36d30bfa807bc7e43c"},{"rt":null,"stimulus":"\n\t\t\t<div class=\"flip_card\">\n\t\t\t\t<div class=\"flip_card_inner\">\n\t\t\t\t\t<div class=\"flip_card_front\">\n\t\t\t\t\t\t<img src=img/12.png>\n\t\t\t\t\t</div>\n\t\t\t\t\t<div class=\"flip_card_back\">\n\t\t\t\t\t\t<h2>How many countries in Africa have French as the official language?</h2>\n\t\t\t\t\t\t<br>\n\t\t\t\t\t\t<p>Answer: <strong>21</strong></p>\n\t\t\t\t\t</div>\n\t\t\t\t</div>\n\t\t\t</div>\n\t\t\t","response":null,"trial_type":"html-keyboard-response","trial_index":28,"time_elapsed":255804,"internal_node_id":"0.0-3.0-2.5","prolific_id":"63168f4d57bf8e3c1a5cf056","session_id":"643c1b0ce78277721c8b6f5e","study_id":"64370a36d30bfa807bc7e43c"},{"rt":7297,"stimulus":"\n\t\t\t\t\t<div>\n\t\t\t\t\t<h2>Trial 6 is over</h2>\n\t\t\t\t\t<p>Press <span style=\"color: red\"><strong>any key</strong></span> to continue to the next trial</p>\n\t\t\t\t\t</div>\n\t\t\t\t","response":" ","trial_type":"html-keyboard-response","trial_index":29,"time_elapsed":263102,"internal_node_id":"0.0-3.0-3.5","prolific_id":"63168f4d57bf8e3c1a5cf056","session_id":"643c1b0ce78277721c8b6f5e","study_id":"64370a36d30bfa807bc7e43c"},{"rt":19489,"response":{"prediction":"1981"},"trial_type":"survey-text","trial_index":30,"time_elapsed":282593,"internal_node_id":"0.0-3.0-0.6","prolific_id":"63168f4d57bf8e3c1a5cf056","session_id":"643c1b0ce78277721c8b6f5e","study_id":"64370a36d30bfa807bc7e43c"},{"rt":11463,"response":{"prior knowledge":1,"curiosity":4},"accuracy":[],"trial_type":"survey","trial_index":31,"time_elapsed":294069,"internal_node_id":"0.0-3.0-1.6","prolific_id":"63168f4d57bf8e3c1a5cf056","session_id":"643c1b0ce78277721c8b6f5e","study_id":"64370a36d30bfa807bc7e43c"},{"rt":null,"stimulus":"\n\t\t\t<div class=\"flip_card\">\n\t\t\t\t<div class=\"flip_card_inner\">\n\t\t\t\t\t<div class=\"flip_card_front\">\n\t\t\t\t\t\t<img src=img/22.png>\n\t\t\t\t\t</div>\n\t\t\t\t\t<div class=\"flip_card_back\">\n\t\t\t\t\t\t<h2>What year did the Berlin Wall fall?</h2>\n\t\t\t\t\t\t<br>\n\t\t\t\t\t\t<p>Answer: <strong>1989</strong></p>\n\t\t\t\t\t</div>\n\t\t\t\t</div>\n\t\t\t</div>\n\t\t\t","response":null,"trial_type":"html-keyboard-response","trial_index":32,"time_elapsed":299070,"internal_node_id":"0.0-3.0-2.6","prolific_id":"63168f4d57bf8e3c1a5cf056","session_id":"643c1b0ce78277721c8b6f5e","study_id":"64370a36d30bfa807bc7e43c"},{"rt":822,"stimulus":"\n\t\t\t\t\t<div>\n\t\t\t\t\t<h2>Trial 7 is over</h2>\n\t\t\t\t\t<p>Press <span style=\"color: red\"><strong>any key</strong></span> to continue to the next trial</p>\n\t\t\t\t\t</div>\n\t\t\t\t","response":" ","trial_type":"html-keyboard-response","trial_index":33,"time_elapsed":299893,"internal_node_id":"0.0-3.0-3.6","prolific_id":"63168f4d57bf8e3c1a5cf056","session_id":"643c1b0ce78277721c8b6f5e","study_id":"64370a36d30bfa807bc7e43c"},{"rt":8765,"response":{"prediction":"2008"},"trial_type":"survey-text","trial_index":34,"time_elapsed":308660,"internal_node_id":"0.0-3.0-0.7","prolific_id":"63168f4d57bf8e3c1a5cf056","session_id":"643c1b0ce78277721c8b6f5e","study_id":"64370a36d30bfa807bc7e43c"},{"rt":6162,"response":{"prior knowledge":3,"curiosity":4},"accuracy":[],"trial_type":"survey","trial_index":35,"time_elapsed":314837,"internal_node_id":"0.0-3.0-1.7","prolific_id":"63168f4d57bf8e3c1a5cf056","session_id":"643c1b0ce78277721c8b6f5e","study_id":"64370a36d30bfa807bc7e43c"},{"rt":null,"stimulus":"\n\t\t\t<div class=\"flip_card\">\n\t\t\t\t<div class=\"flip_card_inner\">\n\t\t\t\t\t<div class=\"flip_card_front\">\n\t\t\t\t\t\t<img src=img/1.png>\n\t\t\t\t\t</div>\n\t\t\t\t\t<div class=\"flip_card_back\">\n\t\t\t\t\t\t<h2>What year was the very first model of the iPhone released?</h2>\n\t\t\t\t\t\t<br>\n\t\t\t\t\t\t<p>Answer: <strong>2007</strong></p>\n\t\t\t\t\t</div>\n\t\t\t\t</div>\n\t\t\t</div>\n\t\t\t","response":null,"trial_type":"html-keyboard-response","trial_index":36,"time_elapsed":319849,"internal_node_id":"0.0-3.0-2.7","prolific_id":"63168f4d57bf8e3c1a5cf056","session_id":"643c1b0ce78277721c8b6f5e","study_id":"64370a36d30bfa807bc7e43c"},{"rt":1157,"stimulus":"\n\t\t\t\t\t<div>\n\t\t\t\t\t<h2>Trial 8 is over</h2>\n\t\t\t\t\t<p>Press <span style=\"color: red\"><strong>any key</strong></span> to continue to the next trial</p>\n\t\t\t\t\t</div>\n\t\t\t\t","response":" ","trial_type":"html-keyboard-response","trial_index":37,"time_elapsed":321007,"internal_node_id":"0.0-3.0-3.7","prolific_id":"63168f4d57bf8e3c1a5cf056","session_id":"643c1b0ce78277721c8b6f5e","study_id":"64370a36d30bfa807bc7e43c"},{"rt":7698,"response":{"prediction":"11"},"trial_type":"survey-text","trial_index":38,"time_elapsed":328708,"internal_node_id":"0.0-3.0-0.8","prolific_id":"63168f4d57bf8e3c1a5cf056","session_id":"643c1b0ce78277721c8b6f5e","study_id":"64370a36d30bfa807bc7e43c"},{"rt":4158,"response":{"prior knowledge":0,"curiosity":3},"accuracy":[],"trial_type":"survey","trial_index":39,"time_elapsed":332881,"internal_node_id":"0.0-3.0-1.8","prolific_id":"63168f4d57bf8e3c1a5cf056","session_id":"643c1b0ce78277721c8b6f5e","study_id":"64370a36d30bfa807bc7e43c"},{"rt":null,"stimulus":"\n\t\t\t<div class=\"flip_card\">\n\t\t\t\t<div class=\"flip_card_inner\">\n\t\t\t\t\t<div class=\"flip_card_front\">\n\t\t\t\t\t\t<img src=img/25.png>\n\t\t\t\t\t</div>\n\t\t\t\t\t<div class=\"flip_card_back\">\n\t\t\t\t\t\t<h2>How many tones are in the Vietnamese language?</h2>\n\t\t\t\t\t\t<br>\n\t\t\t\t\t\t<p>Answer: <strong>6</strong></p>\n\t\t\t\t\t</div>\n\t\t\t\t</div>\n\t\t\t</div>\n\t\t\t","response":null,"trial_type":"html-keyboard-response","trial_index":40,"time_elapsed":337889,"internal_node_id":"0.0-3.0-2.8","prolific_id":"63168f4d57bf8e3c1a5cf056","session_id":"643c1b0ce78277721c8b6f5e","study_id":"64370a36d30bfa807bc7e43c"},{"rt":2478,"stimulus":"\n\t\t\t\t\t<div>\n\t\t\t\t\t<h2>Trial 9 is over</h2>\n\t\t\t\t\t<p>Press <span style=\"color: red\"><strong>any key</strong></span> to continue to the next trial</p>\n\t\t\t\t\t</div>\n\t\t\t\t","response":" ","trial_type":"html-keyboard-response","trial_index":41,"time_elapsed":340367,"internal_node_id":"0.0-3.0-3.8","prolific_id":"63168f4d57bf8e3c1a5cf056","session_id":"643c1b0ce78277721c8b6f5e","study_id":"64370a36d30bfa807bc7e43c"},{"rt":5784,"response":{"prediction":"4"},"trial_type":"survey-text","trial_index":42,"time_elapsed":346153,"internal_node_id":"0.0-3.0-0.9","prolific_id":"63168f4d57bf8e3c1a5cf056","session_id":"643c1b0ce78277721c8b6f5e","study_id":"64370a36d30bfa807bc7e43c"},{"rt":7967,"response":{"prior knowledge":1,"curiosity":3},"accuracy":[],"trial_type":"survey","trial_index":43,"time_elapsed":354135,"internal_node_id":"0.0-3.0-1.9","prolific_id":"63168f4d57bf8e3c1a5cf056","session_id":"643c1b0ce78277721c8b6f5e","study_id":"64370a36d30bfa807bc7e43c"},{"rt":null,"stimulus":"\n\t\t\t<div class=\"flip_card\">\n\t\t\t\t<div class=\"flip_card_inner\">\n\t\t\t\t\t<div class=\"flip_card_front\">\n\t\t\t\t\t\t<img src=img/21.png>\n\t\t\t\t\t</div>\n\t\t\t\t\t<div class=\"flip_card_back\">\n\t\t\t\t\t\t<h2>How many moons does Neptune have?</h2>\n\t\t\t\t\t\t<br>\n\t\t\t\t\t\t<p>Answer: <strong>14</strong></p>\n\t\t\t\t\t</div>\n\t\t\t\t</div>\n\t\t\t</div>\n\t\t\t","response":null,"trial_type":"html-keyboard-response","trial_index":44,"time_elapsed":359136,"internal_node_id":"0.0-3.0-2.9","prolific_id":"63168f4d57bf8e3c1a5cf056","session_id":"643c1b0ce78277721c8b6f5e","study_id":"64370a36d30bfa807bc7e43c"},{"rt":5364,"stimulus":"\n\t\t\t\t\t<div>\n\t\t\t\t\t<h2>Trial 10 is over</h2>\n\t\t\t\t\t<p>Press <span style=\"color: red\"><strong>any key</strong></span> to continue to the next trial</p>\n\t\t\t\t\t</div>\n\t\t\t\t","response":" ","trial_type":"html-keyboard-response","trial_index":45,"time_elapsed":364501,"internal_node_id":"0.0-3.0-3.9","prolific_id":"63168f4d57bf8e3c1a5cf056","session_id":"643c1b0ce78277721c8b6f5e","study_id":"64370a36d30bfa807bc7e43c"},{"rt":12145,"response":{"prediction":"3"},"trial_type":"survey-text","trial_index":46,"time_elapsed":376648,"internal_node_id":"0.0-3.0-0.10","prolific_id":"63168f4d57bf8e3c1a5cf056","session_id":"643c1b0ce78277721c8b6f5e","study_id":"64370a36d30bfa807bc7e43c"},{"rt":4445,"response":{"prior knowledge":0,"curiosity":4},"accuracy":[],"trial_type":"survey","trial_index":47,"time_elapsed":381107,"internal_node_id":"0.0-3.0-1.10","prolific_id":"63168f4d57bf8e3c1a5cf056","session_id":"643c1b0ce78277721c8b6f5e","study_id":"64370a36d30bfa807bc7e43c"},{"rt":null,"stimulus":"\n\t\t\t<div class=\"flip_card\">\n\t\t\t\t<div class=\"flip_card_inner\">\n\t\t\t\t\t<div class=\"flip_card_front\">\n\t\t\t\t\t\t<img src=img/17.png>\n\t\t\t\t\t</div>\n\t\t\t\t\t<div class=\"flip_card_back\">\n\t\t\t\t\t\t<h2>How many native species of kangaroos are found in Australia?</h2>\n\t\t\t\t\t\t<br>\n\t\t\t\t\t\t<p>Answer: <strong>4</strong></p>\n\t\t\t\t\t</div>\n\t\t\t\t</div>\n\t\t\t</div>\n\t\t\t","response":null,"trial_type":"html-keyboard-response","trial_index":48,"time_elapsed":386109,"internal_node_id":"0.0-3.0-2.10","prolific_id":"63168f4d57bf8e3c1a5cf056","session_id":"643c1b0ce78277721c8b6f5e","study_id":"64370a36d30bfa807bc7e43c"},{"rt":822,"stimulus":"\n\t\t\t\t\t<div>\n\t\t\t\t\t<h2>Trial 11 is over</h2>\n\t\t\t\t\t<p>Press <span style=\"color: red\"><strong>any key</strong></span> to continue to the next trial</p>\n\t\t\t\t\t</div>\n\t\t\t\t","response":" ","trial_type":"html-keyboard-response","trial_index":49,"time_elapsed":386932,"internal_node_id":"0.0-3.0-3.10","prolific_id":"63168f4d57bf8e3c1a5cf056","session_id":"643c1b0ce78277721c8b6f5e","study_id":"64370a36d30bfa807bc7e43c"},{"rt":10104,"response":{"prediction":"11"},"trial_type":"survey-text","trial_index":50,"time_elapsed":397038,"internal_node_id":"0.0-3.0-0.11","prolific_id":"63168f4d57bf8e3c1a5cf056","session_id":"643c1b0ce78277721c8b6f5e","study_id":"64370a36d30bfa807bc7e43c"},{"rt":9977,"response":{"prior knowledge":2,"curiosity":4},"accuracy":[],"trial_type":"survey","trial_index":51,"time_elapsed":407027,"internal_node_id":"0.0-3.0-1.11","prolific_id":"63168f4d57bf8e3c1a5cf056","session_id":"643c1b0ce78277721c8b6f5e","study_id":"64370a36d30bfa807bc7e43c"},{"rt":null,"stimulus":"\n\t\t\t<div class=\"flip_card\">\n\t\t\t\t<div class=\"flip_card_inner\">\n\t\t\t\t\t<div class=\"flip_card_front\">\n\t\t\t\t\t\t<img src=img/10.png>\n\t\t\t\t\t</div>\n\t\t\t\t\t<div class=\"flip_card_back\">\n\t\t\t\t\t\t<h2>How many soccer players should each team have on the field at the start of each match?</h2>\n\t\t\t\t\t\t<br>\n\t\t\t\t\t\t<p>Answer: <strong>11</strong></p>\n\t\t\t\t\t</div>\n\t\t\t\t</div>\n\t\t\t</div>\n\t\t\t","response":null,"trial_type":"html-keyboard-response","trial_index":52,"time_elapsed":412039,"internal_node_id":"0.0-3.0-2.11","prolific_id":"63168f4d57bf8e3c1a5cf056","session_id":"643c1b0ce78277721c8b6f5e","study_id":"64370a36d30bfa807bc7e43c"},{"rt":764,"stimulus":"\n\t\t\t\t\t<div>\n\t\t\t\t\t<h2>Trial 12 is over</h2>\n\t\t\t\t\t<p>Press <span style=\"color: red\"><strong>any key</strong></span> to continue to the next trial</p>\n\t\t\t\t\t</div>\n\t\t\t\t","response":" ","trial_type":"html-keyboard-response","trial_index":53,"time_elapsed":412803,"internal_node_id":"0.0-3.0-3.11","prolific_id":"63168f4d57bf8e3c1a5cf056","session_id":"643c1b0ce78277721c8b6f5e","study_id":"64370a36d30bfa807bc7e43c"},{"rt":10160,"response":{"prediction":"3"},"trial_type":"survey-text","trial_index":54,"time_elapsed":422966,"internal_node_id":"0.0-3.0-0.12","prolific_id":"63168f4d57bf8e3c1a5cf056","session_id":"643c1b0ce78277721c8b6f5e","study_id":"64370a36d30bfa807bc7e43c"},{"rt":4237,"response":{"prior knowledge":0,"curiosity":4},"accuracy":[],"trial_type":"survey","trial_index":55,"time_elapsed":427217,"internal_node_id":"0.0-3.0-1.12","prolific_id":"63168f4d57bf8e3c1a5cf056","session_id":"643c1b0ce78277721c8b6f5e","study_id":"64370a36d30bfa807bc7e43c"},{"rt":null,"stimulus":"\n\t\t\t<div class=\"flip_card\">\n\t\t\t\t<div class=\"flip_card_inner\">\n\t\t\t\t\t<div class=\"flip_card_front\">\n\t\t\t\t\t\t<img src=img/2.png>\n\t\t\t\t\t</div>\n\t\t\t\t\t<div class=\"flip_card_back\">\n\t\t\t\t\t\t<h2>How many main islands make up Japan?</h2>\n\t\t\t\t\t\t<br>\n\t\t\t\t\t\t<p>Answer: <strong>4</strong></p>\n\t\t\t\t\t</div>\n\t\t\t\t</div>\n\t\t\t</div>\n\t\t\t","response":null,"trial_type":"html-keyboard-response","trial_index":56,"time_elapsed":432229,"internal_node_id":"0.0-3.0-2.12","prolific_id":"63168f4d57bf8e3c1a5cf056","session_id":"643c1b0ce78277721c8b6f5e","study_id":"64370a36d30bfa807bc7e43c"},{"rt":2515,"stimulus":"\n\t\t\t\t\t<div>\n\t\t\t\t\t<h2>Trial 13 is over</h2>\n\t\t\t\t\t<p>Press <span style=\"color: red\"><strong>any key</strong></span> to continue to the next trial</p>\n\t\t\t\t\t</div>\n\t\t\t\t","response":" ","trial_type":"html-keyboard-response","trial_index":57,"time_elapsed":434744,"internal_node_id":"0.0-3.0-3.12","prolific_id":"63168f4d57bf8e3c1a5cf056","session_id":"643c1b0ce78277721c8b6f5e","study_id":"64370a36d30bfa807bc7e43c"},{"rt":4918,"response":{"prediction":"13"},"trial_type":"survey-text","trial_index":58,"time_elapsed":439664,"internal_node_id":"0.0-3.0-0.13","prolific_id":"63168f4d57bf8e3c1a5cf056","session_id":"643c1b0ce78277721c8b6f5e","study_id":"64370a36d30bfa807bc7e43c"},{"rt":8172,"response":{"prior knowledge":4,"curiosity":4},"accuracy":[],"trial_type":"survey","trial_index":59,"time_elapsed":447866,"internal_node_id":"0.0-3.0-1.13","prolific_id":"63168f4d57bf8e3c1a5cf056","session_id":"643c1b0ce78277721c8b6f5e","study_id":"64370a36d30bfa807bc7e43c"},{"rt":null,"stimulus":"\n\t\t\t<div class=\"flip_card\">\n\t\t\t\t<div class=\"flip_card_inner\">\n\t\t\t\t\t<div class=\"flip_card_front\">\n\t\t\t\t\t\t<img src=img/9.png>\n\t\t\t\t\t</div>\n\t\t\t\t\t<div class=\"flip_card_back\">\n\t\t\t\t\t\t<h2>How much is in a Baker's Dozen?</h2>\n\t\t\t\t\t\t<br>\n\t\t\t\t\t\t<p>Answer: <strong>13</strong></p>\n\t\t\t\t\t</div>\n\t\t\t\t</div>\n\t\t\t</div>\n\t\t\t","response":null,"trial_type":"html-keyboard-response","trial_index":60,"time_elapsed":452878,"internal_node_id":"0.0-3.0-2.13","prolific_id":"63168f4d57bf8e3c1a5cf056","session_id":"643c1b0ce78277721c8b6f5e","study_id":"64370a36d30bfa807bc7e43c"},{"rt":812,"stimulus":"\n\t\t\t\t\t<div>\n\t\t\t\t\t<h2>Trial 14 is over</h2>\n\t\t\t\t\t<p>Press <span style=\"color: red\"><strong>any key</strong></span> to continue to the next trial</p>\n\t\t\t\t\t</div>\n\t\t\t\t","response":" ","trial_type":"html-keyboard-response","trial_index":61,"time_elapsed":453690,"internal_node_id":"0.0-3.0-3.13","prolific_id":"63168f4d57bf8e3c1a5cf056","session_id":"643c1b0ce78277721c8b6f5e","study_id":"64370a36d30bfa807bc7e43c"},{"rt":16960,"response":{"prediction":"50000"},"trial_type":"survey-text","trial_index":62,"time_elapsed":470654,"internal_node_id":"0.0-3.0-0.14","prolific_id":"63168f4d57bf8e3c1a5cf056","session_id":"643c1b0ce78277721c8b6f5e","study_id":"64370a36d30bfa807bc7e43c"},{"rt":7229,"response":{"prior knowledge":0,"curiosity":3},"accuracy":[],"trial_type":"survey","trial_index":63,"time_elapsed":477898,"internal_node_id":"0.0-3.0-1.14","prolific_id":"63168f4d57bf8e3c1a5cf056","session_id":"643c1b0ce78277721c8b6f5e","study_id":"64370a36d30bfa807bc7e43c"},{"rt":null,"stimulus":"\n\t\t\t<div class=\"flip_card\">\n\t\t\t\t<div class=\"flip_card_inner\">\n\t\t\t\t\t<div class=\"flip_card_front\">\n\t\t\t\t\t\t<img src=img/18.png>\n\t\t\t\t\t</div>\n\t\t\t\t\t<div class=\"flip_card_back\">\n\t\t\t\t\t\t<h2>What is the diameter of Earth in miles?</h2>\n\t\t\t\t\t\t<br>\n\t\t\t\t\t\t<p>Answer: <strong>7917.5</strong></p>\n\t\t\t\t\t</div>\n\t\t\t\t</div>\n\t\t\t</div>\n\t\t\t","response":null,"trial_type":"html-keyboard-response","trial_index":64,"time_elapsed":482899,"internal_node_id":"0.0-3.0-2.14","prolific_id":"63168f4d57bf8e3c1a5cf056","session_id":"643c1b0ce78277721c8b6f5e","study_id":"64370a36d30bfa807bc7e43c"},{"rt":1340,"stimulus":"\n\t\t\t\t\t<div>\n\t\t\t\t\t<h2>Trial 15 is over</h2>\n\t\t\t\t\t<p>Press <span style=\"color: red\"><strong>any key</strong></span> to continue to the next trial</p>\n\t\t\t\t\t</div>\n\t\t\t\t","response":" ","trial_type":"html-keyboard-response","trial_index":65,"time_elapsed":484239,"internal_node_id":"0.0-3.0-3.14","prolific_id":"63168f4d57bf8e3c1a5cf056","session_id":"643c1b0ce78277721c8b6f5e","study_id":"64370a36d30bfa807bc7e43c"},{"rt":8383,"response":{"prediction":"3"},"trial_type":"survey-text","trial_index":66,"time_elapsed":492625,"internal_node_id":"0.0-3.0-0.15","prolific_id":"63168f4d57bf8e3c1a5cf056","session_id":"643c1b0ce78277721c8b6f5e","study_id":"64370a36d30bfa807bc7e43c"},{"rt":5225,"response":{"prior knowledge":1,"curiosity":3},"accuracy":[],"trial_type":"survey","trial_index":67,"time_elapsed":497864,"internal_node_id":"0.0-3.0-1.15","prolific_id":"63168f4d57bf8e3c1a5cf056","session_id":"643c1b0ce78277721c8b6f5e","study_id":"64370a36d30bfa807bc7e43c"},{"rt":null,"stimulus":"\n\t\t\t<div class=\"flip_card\">\n\t\t\t\t<div class=\"flip_card_inner\">\n\t\t\t\t\t<div class=\"flip_card_front\">\n\t\t\t\t\t\t<img src=img/11.png>\n\t\t\t\t\t</div>\n\t\t\t\t\t<div class=\"flip_card_back\">\n\t\t\t\t\t\t<h2>How many times a day do Muslims pray?</h2>\n\t\t\t\t\t\t<br>\n\t\t\t\t\t\t<p>Answer: <strong>5</strong></p>\n\t\t\t\t\t</div>\n\t\t\t\t</div>\n\t\t\t</div>\n\t\t\t","response":null,"trial_type":"html-keyboard-response","trial_index":68,"time_elapsed":502879,"internal_node_id":"0.0-3.0-2.15","prolific_id":"63168f4d57bf8e3c1a5cf056","session_id":"643c1b0ce78277721c8b6f5e","study_id":"64370a36d30bfa807bc7e43c"},{"rt":764,"stimulus":"\n\t\t\t\t\t<div>\n\t\t\t\t\t<h2>Trial 16 is over</h2>\n\t\t\t\t\t<p>Press <span style=\"color: red\"><strong>any key</strong></span> to continue to the next trial</p>\n\t\t\t\t\t</div>\n\t\t\t\t","response":" ","trial_type":"html-keyboard-response","trial_index":69,"time_elapsed":503643,"internal_node_id":"0.0-3.0-3.15","prolific_id":"63168f4d57bf8e3c1a5cf056","session_id":"643c1b0ce78277721c8b6f5e","study_id":"64370a36d30bfa807bc7e43c"},{"rt":4239,"response":{"prediction":"54"},"trial_type":"survey-text","trial_index":70,"time_elapsed":507884,"internal_node_id":"0.0-3.0-0.16","prolific_id":"63168f4d57bf8e3c1a5cf056","session_id":"643c1b0ce78277721c8b6f5e","study_id":"64370a36d30bfa807bc7e43c"},{"rt":7034,"response":{"prior knowledge":0,"curiosity":3},"accuracy":[],"trial_type":"survey","trial_index":71,"time_elapsed":514942,"internal_node_id":"0.0-3.0-1.16","prolific_id":"63168f4d57bf8e3c1a5cf056","session_id":"643c1b0ce78277721c8b6f5e","study_id":"64370a36d30bfa807bc7e43c"},{"rt":null,"stimulus":"\n\t\t\t<div class=\"flip_card\">\n\t\t\t\t<div class=\"flip_card_inner\">\n\t\t\t\t\t<div class=\"flip_card_front\">\n\t\t\t\t\t\t<img src=img/6.png>\n\t\t\t\t\t</div>\n\t\t\t\t\t<div class=\"flip_card_back\">\n\t\t\t\t\t\t<h2>How many countries are in Africa?</h2>\n\t\t\t\t\t\t<br>\n\t\t\t\t\t\t<p>Answer: <strong>54</strong></p>\n\t\t\t\t\t</div>\n\t\t\t\t</div>\n\t\t\t</div>\n\t\t\t","response":null,"trial_type":"html-keyboard-response","trial_index":72,"time_elapsed":519958,"internal_node_id":"0.0-3.0-2.16","prolific_id":"63168f4d57bf8e3c1a5cf056","session_id":"643c1b0ce78277721c8b6f5e","study_id":"64370a36d30bfa807bc7e43c"},{"rt":8561,"stimulus":"\n\t\t\t\t\t<div>\n\t\t\t\t\t<h2>Trial 17 is over</h2>\n\t\t\t\t\t<p>Press <span style=\"color: red\"><strong>any key</strong></span> to continue to the next trial</p>\n\t\t\t\t\t</div>\n\t\t\t\t","response":" ","trial_type":"html-keyboard-response","trial_index":73,"time_elapsed":528520,"internal_node_id":"0.0-3.0-3.16","prolific_id":"63168f4d57bf8e3c1a5cf056","session_id":"643c1b0ce78277721c8b6f5e","study_id":"64370a36d30bfa807bc7e43c"},{"rt":11415,"response":{"prediction":"12"},"trial_type":"survey-text","trial_index":74,"time_elapsed":539937,"internal_node_id":"0.0-3.0-0.17","prolific_id":"63168f4d57bf8e3c1a5cf056","session_id":"643c1b0ce78277721c8b6f5e","study_id":"64370a36d30bfa807bc7e43c"},{"rt":11475,"response":{"prior knowledge":2,"curiosity":4},"accuracy":[],"trial_type":"survey","trial_index":75,"time_elapsed":551427,"internal_node_id":"0.0-3.0-1.17","prolific_id":"63168f4d57bf8e3c1a5cf056","session_id":"643c1b0ce78277721c8b6f5e","study_id":"64370a36d30bfa807bc7e43c"},{"rt":null,"stimulus":"\n\t\t\t<div class=\"flip_card\">\n\t\t\t\t<div class=\"flip_card_inner\">\n\t\t\t\t\t<div class=\"flip_card_front\">\n\t\t\t\t\t\t<img src=img/5.png>\n\t\t\t\t\t</div>\n\t\t\t\t\t<div class=\"flip_card_back\">\n\t\t\t\t\t\t<h2>How many different animals (real or imaginary) are represented in the Chinese calendar?</h2>\n\t\t\t\t\t\t<br>\n\t\t\t\t\t\t<p>Answer: <strong>12</strong></p>\n\t\t\t\t\t</div>\n\t\t\t\t</div>\n\t\t\t</div>\n\t\t\t","response":null,"trial_type":"html-keyboard-response","trial_index":76,"time_elapsed":556429,"internal_node_id":"0.0-3.0-2.17","prolific_id":"63168f4d57bf8e3c1a5cf056","session_id":"643c1b0ce78277721c8b6f5e","study_id":"64370a36d30bfa807bc7e43c"},{"rt":1124,"stimulus":"\n\t\t\t\t\t<div>\n\t\t\t\t\t<h2>Trial 18 is over</h2>\n\t\t\t\t\t<p>Press <span style=\"color: red\"><strong>any key</strong></span> to continue to the next trial</p>\n\t\t\t\t\t</div>\n\t\t\t\t","response":" ","trial_type":"html-keyboard-response","trial_index":77,"time_elapsed":557554,"internal_node_id":"0.0-3.0-3.17","prolific_id":"63168f4d57bf8e3c1a5cf056","session_id":"643c1b0ce78277721c8b6f5e","study_id":"64370a36d30bfa807bc7e43c"},{"rt":12350,"response":{"prediction":"50"},"trial_type":"survey-text","trial_index":78,"time_elapsed":569905,"internal_node_id":"0.0-3.0-0.18","prolific_id":"63168f4d57bf8e3c1a5cf056","session_id":"643c1b0ce78277721c8b6f5e","study_id":"64370a36d30bfa807bc7e43c"},{"rt":10040,"response":{"prior knowledge":0,"curiosity":1},"accuracy":[],"trial_type":"survey","trial_index":79,"time_elapsed":579957,"internal_node_id":"0.0-3.0-1.18","prolific_id":"63168f4d57bf8e3c1a5cf056","session_id":"643c1b0ce78277721c8b6f5e","study_id":"64370a36d30bfa807bc7e43c"},{"rt":null,"stimulus":"\n\t\t\t<div class=\"flip_card\">\n\t\t\t\t<div class=\"flip_card_inner\">\n\t\t\t\t\t<div class=\"flip_card_front\">\n\t\t\t\t\t\t<img src=img/19.png>\n\t\t\t\t\t</div>\n\t\t\t\t\t<div class=\"flip_card_back\">\n\t\t\t\t\t\t<h2>How many people are vegan globally (in millions)?</h2>\n\t\t\t\t\t\t<br>\n\t\t\t\t\t\t<p>Answer: <strong>79</strong></p>\n\t\t\t\t\t</div>\n\t\t\t\t</div>\n\t\t\t</div>\n\t\t\t","response":null,"trial_type":"html-keyboard-response","trial_index":80,"time_elapsed":584970,"internal_node_id":"0.0-3.0-2.18","prolific_id":"63168f4d57bf8e3c1a5cf056","session_id":"643c1b0ce78277721c8b6f5e","study_id":"64370a36d30bfa807bc7e43c"},{"rt":808,"stimulus":"\n\t\t\t\t\t<div>\n\t\t\t\t\t<h2>Trial 19 is over</h2>\n\t\t\t\t\t<p>Press <span style=\"color: red\"><strong>any key</strong></span> to continue to the next trial</p>\n\t\t\t\t\t</div>\n\t\t\t\t","response":" ","trial_type":"html-keyboard-response","trial_index":81,"time_elapsed":585779,"internal_node_id":"0.0-3.0-3.18","prolific_id":"63168f4d57bf8e3c1a5cf056","session_id":"643c1b0ce78277721c8b6f5e","study_id":"64370a36d30bfa807bc7e43c"},{"rt":7263,"response":{"prediction":"1200"},"trial_type":"survey-text","trial_index":82,"time_elapsed":593043,"internal_node_id":"0.0-3.0-0.19","prolific_id":"63168f4d57bf8e3c1a5cf056","session_id":"643c1b0ce78277721c8b6f5e","study_id":"64370a36d30bfa807bc7e43c"},{"rt":4110,"response":{"prior knowledge":1,"curiosity":3},"accuracy":[],"trial_type":"survey","trial_index":83,"time_elapsed":597168,"internal_node_id":"0.0-3.0-1.19","prolific_id":"63168f4d57bf8e3c1a5cf056","session_id":"643c1b0ce78277721c8b6f5e","study_id":"64370a36d30bfa807bc7e43c"},{"rt":null,"stimulus":"\n\t\t\t<div class=\"flip_card\">\n\t\t\t\t<div class=\"flip_card_inner\">\n\t\t\t\t\t<div class=\"flip_card_front\">\n\t\t\t\t\t\t<img src=img/8.png>\n\t\t\t\t\t</div>\n\t\t\t\t\t<div class=\"flip_card_back\">\n\t\t\t\t\t\t<h2>How long is the Great Wall of China (in miles)?</h2>\n\t\t\t\t\t\t<br>\n\t\t\t\t\t\t<p>Answer: <strong>13171</strong></p>\n\t\t\t\t\t</div>\n\t\t\t\t</div>\n\t\t\t</div>\n\t\t\t","response":null,"trial_type":"html-keyboard-response","trial_index":84,"time_elapsed":602169,"internal_node_id":"0.0-3.0-2.19","prolific_id":"63168f4d57bf8e3c1a5cf056","session_id":"643c1b0ce78277721c8b6f5e","study_id":"64370a36d30bfa807bc7e43c"},{"rt":875,"stimulus":"\n\t\t\t\t\t<div>\n\t\t\t\t\t<h2>Trial 20 is over</h2>\n\t\t\t\t\t<p>Press <span style=\"color: red\"><strong>any key</strong></span> to continue to the next trial</p>\n\t\t\t\t\t</div>\n\t\t\t\t","response":" ","trial_type":"html-keyboard-response","trial_index":85,"time_elapsed":603045,"internal_node_id":"0.0-3.0-3.19","prolific_id":"63168f4d57bf8e3c1a5cf056","session_id":"643c1b0ce78277721c8b6f5e","study_id":"64370a36d30bfa807bc7e43c"},{"rt":7219,"response":{"prediction":"31"},"trial_type":"survey-text","trial_index":86,"time_elapsed":610266,"internal_node_id":"0.0-3.0-0.20","prolific_id":"63168f4d57bf8e3c1a5cf056","session_id":"643c1b0ce78277721c8b6f5e","study_id":"64370a36d30bfa807bc7e43c"},{"rt":5496,"response":{"prior knowledge":0,"curiosity":0},"accuracy":[],"trial_type":"survey","trial_index":87,"time_elapsed":615782,"internal_node_id":"0.0-3.0-1.20","prolific_id":"63168f4d57bf8e3c1a5cf056","session_id":"643c1b0ce78277721c8b6f5e","study_id":"64370a36d30bfa807bc7e43c"},{"rt":null,"stimulus":"\n\t\t\t<div class=\"flip_card\">\n\t\t\t\t<div class=\"flip_card_inner\">\n\t\t\t\t\t<div class=\"flip_card_front\">\n\t\t\t\t\t\t<img src=img/15.png>\n\t\t\t\t\t</div>\n\t\t\t\t\t<div class=\"flip_card_back\">\n\t\t\t\t\t\t<h2>How old was King Tut when he died?</h2>\n\t\t\t\t\t\t<br>\n\t\t\t\t\t\t<p>Answer: <strong>19</strong></p>\n\t\t\t\t\t</div>\n\t\t\t\t</div>\n\t\t\t</div>\n\t\t\t","response":null,"trial_type":"html-keyboard-response","trial_index":88,"time_elapsed":620795,"internal_node_id":"0.0-3.0-2.20","prolific_id":"63168f4d57bf8e3c1a5cf056","session_id":"643c1b0ce78277721c8b6f5e","study_id":"64370a36d30bfa807bc7e43c"},{"rt":742,"stimulus":"\n\t\t\t\t\t<div>\n\t\t\t\t\t<h2>Trial 21 is over</h2>\n\t\t\t\t\t<p>Press <span style=\"color: red\"><strong>any key</strong></span> to continue to the next trial</p>\n\t\t\t\t\t</div>\n\t\t\t\t","response":" ","trial_type":"html-keyboard-response","trial_index":89,"time_elapsed":621538,"internal_node_id":"0.0-3.0-3.20","prolific_id":"63168f4d57bf8e3c1a5cf056","session_id":"643c1b0ce78277721c8b6f5e","study_id":"64370a36d30bfa807bc7e43c"},{"rt":8435,"response":{"prediction":"2"},"trial_type":"survey-text","trial_index":90,"time_elapsed":629975,"internal_node_id":"0.0-3.0-0.21","prolific_id":"63168f4d57bf8e3c1a5cf056","session_id":"643c1b0ce78277721c8b6f5e","study_id":"64370a36d30bfa807bc7e43c"},{"rt":6316,"response":{"prior knowledge":2,"curiosity":2},"accuracy":[],"trial_type":"survey","trial_index":91,"time_elapsed":636304,"internal_node_id":"0.0-3.0-1.21","prolific_id":"63168f4d57bf8e3c1a5cf056","session_id":"643c1b0ce78277721c8b6f5e","study_id":"64370a36d30bfa807bc7e43c"},{"rt":null,"stimulus":"\n\t\t\t<div class=\"flip_card\">\n\t\t\t\t<div class=\"flip_card_inner\">\n\t\t\t\t\t<div class=\"flip_card_front\">\n\t\t\t\t\t\t<img src=img/13.png>\n\t\t\t\t\t</div>\n\t\t\t\t\t<div class=\"flip_card_back\">\n\t\t\t\t\t\t<h2>How many books are in the Catholic Bible?</h2>\n\t\t\t\t\t\t<br>\n\t\t\t\t\t\t<p>Answer: <strong>73</strong></p>\n\t\t\t\t\t</div>\n\t\t\t\t</div>\n\t\t\t</div>\n\t\t\t","response":null,"trial_type":"html-keyboard-response","trial_index":92,"time_elapsed":641320,"internal_node_id":"0.0-3.0-2.21","prolific_id":"63168f4d57bf8e3c1a5cf056","session_id":"643c1b0ce78277721c8b6f5e","study_id":"64370a36d30bfa807bc7e43c"},{"rt":745,"stimulus":"\n\t\t\t\t\t<div>\n\t\t\t\t\t<h2>Trial 22 is over</h2>\n\t\t\t\t\t<p>Press <span style=\"color: red\"><strong>any key</strong></span> to continue to the next trial</p>\n\t\t\t\t\t</div>\n\t\t\t\t","response":" ","trial_type":"html-keyboard-response","trial_index":93,"time_elapsed":642066,"internal_node_id":"0.0-3.0-3.21","prolific_id":"63168f4d57bf8e3c1a5cf056","session_id":"643c1b0ce78277721c8b6f5e","study_id":"64370a36d30bfa807bc7e43c"},{"rt":5660,"response":{"prediction":"13"},"trial_type":"survey-text","trial_index":94,"time_elapsed":647728,"internal_node_id":"0.0-3.0-0.22","prolific_id":"63168f4d57bf8e3c1a5cf056","session_id":"643c1b0ce78277721c8b6f5e","study_id":"64370a36d30bfa807bc7e43c"},{"rt":6462,"response":{"prior knowledge":3,"curiosity":3},"accuracy":[],"trial_type":"survey","trial_index":95,"time_elapsed":654204,"internal_node_id":"0.0-3.0-1.22","prolific_id":"63168f4d57bf8e3c1a5cf056","session_id":"643c1b0ce78277721c8b6f5e","study_id":"64370a36d30bfa807bc7e43c"},{"rt":null,"stimulus":"\n\t\t\t<div class=\"flip_card\">\n\t\t\t\t<div class=\"flip_card_inner\">\n\t\t\t\t\t<div class=\"flip_card_front\">\n\t\t\t\t\t\t<img src=img/27.png>\n\t\t\t\t\t</div>\n\t\t\t\t\t<div class=\"flip_card_back\">\n\t\t\t\t\t\t<h2>A bar mitzvah is traditionally celebrated when Jewish males turn what age?</h2>\n\t\t\t\t\t\t<br>\n\t\t\t\t\t\t<p>Answer: <strong>13</strong></p>\n\t\t\t\t\t</div>\n\t\t\t\t</div>\n\t\t\t</div>\n\t\t\t","response":null,"trial_type":"html-keyboard-response","trial_index":96,"time_elapsed":659220,"internal_node_id":"0.0-3.0-2.22","prolific_id":"63168f4d57bf8e3c1a5cf056","session_id":"643c1b0ce78277721c8b6f5e","study_id":"64370a36d30bfa807bc7e43c"},{"rt":2190,"stimulus":"\n\t\t\t\t\t<div>\n\t\t\t\t\t<h2>Trial 23 is over</h2>\n\t\t\t\t\t<p>Press <span style=\"color: red\"><strong>any key</strong></span> to continue to the next trial</p>\n\t\t\t\t\t</div>\n\t\t\t\t","response":" ","trial_type":"html-keyboard-response","trial_index":97,"time_elapsed":661411,"internal_node_id":"0.0-3.0-3.22","prolific_id":"63168f4d57bf8e3c1a5cf056","session_id":"643c1b0ce78277721c8b6f5e","study_id":"64370a36d30bfa807bc7e43c"},{"rt":5104,"response":{"prediction":"108"},"trial_type":"survey-text","trial_index":98,"time_elapsed":666517,"internal_node_id":"0.0-3.0-0.23","prolific_id":"63168f4d57bf8e3c1a5cf056","session_id":"643c1b0ce78277721c8b6f5e","study_id":"64370a36d30bfa807bc7e43c"},{"rt":6069,"response":{"prior knowledge":1,"curiosity":2},"accuracy":[],"trial_type":"survey","trial_index":99,"time_elapsed":672602,"internal_node_id":"0.0-3.0-1.23","prolific_id":"63168f4d57bf8e3c1a5cf056","session_id":"643c1b0ce78277721c8b6f5e","study_id":"64370a36d30bfa807bc7e43c"},{"rt":null,"stimulus":"\n\t\t\t<div class=\"flip_card\">\n\t\t\t\t<div class=\"flip_card_inner\">\n\t\t\t\t\t<div class=\"flip_card_front\">\n\t\t\t\t\t\t<img src=img/26.png>\n\t\t\t\t\t</div>\n\t\t\t\t\t<div class=\"flip_card_back\">\n\t\t\t\t\t\t<h2>How many bones is a human baby born with?</h2>\n\t\t\t\t\t\t<br>\n\t\t\t\t\t\t<p>Answer: <strong>300</strong></p>\n\t\t\t\t\t</div>\n\t\t\t\t</div>\n\t\t\t</div>\n\t\t\t","response":null,"trial_type":"html-keyboard-response","trial_index":100,"time_elapsed":677618,"internal_node_id":"0.0-3.0-2.23","prolific_id":"63168f4d57bf8e3c1a5cf056","session_id":"643c1b0ce78277721c8b6f5e","study_id":"64370a36d30bfa807bc7e43c"},{"rt":651,"stimulus":"\n\t\t\t\t\t<div>\n\t\t\t\t\t<h2>Trial 24 is over</h2>\n\t\t\t\t\t<p>Press <span style=\"color: red\"><strong>any key</strong></span> to continue to the next trial</p>\n\t\t\t\t\t</div>\n\t\t\t\t","response":" ","trial_type":"html-keyboard-response","trial_index":101,"time_elapsed":678270,"internal_node_id":"0.0-3.0-3.23","prolific_id":"63168f4d57bf8e3c1a5cf056","session_id":"643c1b0ce78277721c8b6f5e","study_id":"64370a36d30bfa807bc7e43c"},{"rt":10730,"response":{"prediction":"1924"},"trial_type":"survey-text","trial_index":102,"time_elapsed":689001,"internal_node_id":"0.0-3.0-0.24","prolific_id":"63168f4d57bf8e3c1a5cf056","session_id":"643c1b0ce78277721c8b6f5e","study_id":"64370a36d30bfa807bc7e43c"},{"rt":7971,"response":{"prior knowledge":1,"curiosity":3},"accuracy":[],"trial_type":"survey","trial_index":103,"time_elapsed":696989,"internal_node_id":"0.0-3.0-1.24","prolific_id":"63168f4d57bf8e3c1a5cf056","session_id":"643c1b0ce78277721c8b6f5e","study_id":"64370a36d30bfa807bc7e43c"},{"rt":null,"stimulus":"\n\t\t\t<div class=\"flip_card\">\n\t\t\t\t<div class=\"flip_card_inner\">\n\t\t\t\t\t<div class=\"flip_card_front\">\n\t\t\t\t\t\t<img src=img/4.png>\n\t\t\t\t\t</div>\n\t\t\t\t\t<div class=\"flip_card_back\">\n\t\t\t\t\t\t<h2>What year did the titanic sink?</h2>\n\t\t\t\t\t\t<br>\n\t\t\t\t\t\t<p>Answer: <strong>1912</strong></p>\n\t\t\t\t\t</div>\n\t\t\t\t</div>\n\t\t\t</div>\n\t\t\t","response":null,"trial_type":"html-keyboard-response","trial_index":104,"time_elapsed":701996,"internal_node_id":"0.0-3.0-2.24","prolific_id":"63168f4d57bf8e3c1a5cf056","session_id":"643c1b0ce78277721c8b6f5e","study_id":"64370a36d30bfa807bc7e43c"},{"rt":1342,"stimulus":"\n\t\t\t\t\t<div>\n\t\t\t\t\t<h2>Trial 25 is over</h2>\n\t\t\t\t\t<p>Press <span style=\"color: red\"><strong>any key</strong></span> to continue to the next trial</p>\n\t\t\t\t\t</div>\n\t\t\t\t","response":" ","trial_type":"html-keyboard-response","trial_index":105,"time_elapsed":703339,"internal_node_id":"0.0-3.0-3.24","prolific_id":"63168f4d57bf8e3c1a5cf056","session_id":"643c1b0ce78277721c8b6f5e","study_id":"64370a36d30bfa807bc7e43c"},{"rt":14056,"response":{"prediction":"1901"},"trial_type":"survey-text","trial_index":106,"time_elapsed":717397,"internal_node_id":"0.0-3.0-0.25","prolific_id":"63168f4d57bf8e3c1a5cf056","session_id":"643c1b0ce78277721c8b6f5e","study_id":"64370a36d30bfa807bc7e43c"},{"rt":4879,"response":{"prior knowledge":0,"curiosity":2},"accuracy":[],"trial_type":"survey","trial_index":107,"time_elapsed":722303,"internal_node_id":"0.0-3.0-1.25","prolific_id":"63168f4d57bf8e3c1a5cf056","session_id":"643c1b0ce78277721c8b6f5e","study_id":"64370a36d30bfa807bc7e43c"},{"rt":null,"stimulus":"\n\t\t\t<div class=\"flip_card\">\n\t\t\t\t<div class=\"flip_card_inner\">\n\t\t\t\t\t<div class=\"flip_card_front\">\n\t\t\t\t\t\t<img src=img/23.png>\n\t\t\t\t\t</div>\n\t\t\t\t\t<div class=\"flip_card_back\">\n\t\t\t\t\t\t<h2>In what year was the first Nobel Prize awarded?</h2>\n\t\t\t\t\t\t<br>\n\t\t\t\t\t\t<p>Answer: <strong>1901</strong></p>\n\t\t\t\t\t</div>\n\t\t\t\t</div>\n\t\t\t</div>\n\t\t\t","response":null,"trial_type":"html-keyboard-response","trial_index":108,"time_elapsed":727308,"internal_node_id":"0.0-3.0-2.25","prolific_id":"63168f4d57bf8e3c1a5cf056","session_id":"643c1b0ce78277721c8b6f5e","study_id":"64370a36d30bfa807bc7e43c"},{"rt":13248,"stimulus":"\n\t\t\t\t\t<div>\n\t\t\t\t\t<h2>Trial 26 is over</h2>\n\t\t\t\t\t<p>Press <span style=\"color: red\"><strong>any key</strong></span> to continue to the next trial</p>\n\t\t\t\t\t</div>\n\t\t\t\t","response":" ","trial_type":"html-keyboard-response","trial_index":109,"time_elapsed":740556,"internal_node_id":"0.0-3.0-3.25","prolific_id":"63168f4d57bf8e3c1a5cf056","session_id":"643c1b0ce78277721c8b6f5e","study_id":"64370a36d30bfa807bc7e43c"},{"rt":7448,"response":{"prediction":"300"},"trial_type":"survey-text","trial_index":110,"time_elapsed":748008,"internal_node_id":"0.0-3.0-0.26","prolific_id":"63168f4d57bf8e3c1a5cf056","session_id":"643c1b0ce78277721c8b6f5e","study_id":"64370a36d30bfa807bc7e43c"},{"rt":7347,"response":{"prior knowledge":1,"curiosity":3},"accuracy":[],"trial_type":"survey","trial_index":111,"time_elapsed":755377,"internal_node_id":"0.0-3.0-1.26","prolific_id":"63168f4d57bf8e3c1a5cf056","session_id":"643c1b0ce78277721c8b6f5e","study_id":"64370a36d30bfa807bc7e43c"},{"rt":null,"stimulus":"\n\t\t\t<div class=\"flip_card\">\n\t\t\t\t<div class=\"flip_card_inner\">\n\t\t\t\t\t<div class=\"flip_card_front\">\n\t\t\t\t\t\t<img src=img/29.png>\n\t\t\t\t\t</div>\n\t\t\t\t\t<div class=\"flip_card_back\">\n\t\t\t\t\t\t<h2>How many floors are in the Burj Khalifa, the tallest building in the world?</h2>\n\t\t\t\t\t\t<br>\n\t\t\t\t\t\t<p>Answer: <strong>163</strong></p>\n\t\t\t\t\t</div>\n\t\t\t\t</div>\n\t\t\t</div>\n\t\t\t","response":null,"trial_type":"html-keyboard-response","trial_index":112,"time_elapsed":760385,"internal_node_id":"0.0-3.0-2.26","prolific_id":"63168f4d57bf8e3c1a5cf056","session_id":"643c1b0ce78277721c8b6f5e","study_id":"64370a36d30bfa807bc7e43c"},{"rt":760,"stimulus":"\n\t\t\t\t\t<div>\n\t\t\t\t\t<h2>Trial 27 is over</h2>\n\t\t\t\t\t<p>Press <span style=\"color: red\"><strong>any key</strong></span> to continue to the next trial</p>\n\t\t\t\t\t</div>\n\t\t\t\t","response":" ","trial_type":"html-keyboard-response","trial_index":113,"time_elapsed":761145,"internal_node_id":"0.0-3.0-3.26","prolific_id":"63168f4d57bf8e3c1a5cf056","session_id":"643c1b0ce78277721c8b6f5e","study_id":"64370a36d30bfa807bc7e43c"},{"rt":10093,"response":{"prediction":"6"},"trial_type":"survey-text","trial_index":114,"time_elapsed":771240,"internal_node_id":"0.0-3.0-0.27","prolific_id":"63168f4d57bf8e3c1a5cf056","session_id":"643c1b0ce78277721c8b6f5e","study_id":"64370a36d30bfa807bc7e43c"},{"rt":4828,"response":{"prior knowledge":0,"curiosity":1},"accuracy":[],"trial_type":"survey","trial_index":115,"time_elapsed":776081,"internal_node_id":"0.0-3.0-1.27","prolific_id":"63168f4d57bf8e3c1a5cf056","session_id":"643c1b0ce78277721c8b6f5e","study_id":"64370a36d30bfa807bc7e43c"},{"rt":null,"stimulus":"\n\t\t\t<div class=\"flip_card\">\n\t\t\t\t<div class=\"flip_card_inner\">\n\t\t\t\t\t<div class=\"flip_card_front\">\n\t\t\t\t\t\t<img src=img/14.png>\n\t\t\t\t\t</div>\n\t\t\t\t\t<div class=\"flip_card_back\">\n\t\t\t\t\t\t<h2>How many lines are in a sonnet?</h2>\n\t\t\t\t\t\t<br>\n\t\t\t\t\t\t<p>Answer: <strong>14</strong></p>\n\t\t\t\t\t</div>\n\t\t\t\t</div>\n\t\t\t</div>\n\t\t\t","response":null,"trial_type":"html-keyboard-response","trial_index":116,"time_elapsed":781096,"internal_node_id":"0.0-3.0-2.27","prolific_id":"63168f4d57bf8e3c1a5cf056","session_id":"643c1b0ce78277721c8b6f5e","study_id":"64370a36d30bfa807bc7e43c"},{"rt":766,"stimulus":"\n\t\t\t\t\t<div>\n\t\t\t\t\t<h2>Trial 28 is over</h2>\n\t\t\t\t\t<p>Press <span style=\"color: red\"><strong>any key</strong></span> to continue to the next trial</p>\n\t\t\t\t\t</div>\n\t\t\t\t","response":" ","trial_type":"html-keyboard-response","trial_index":117,"time_elapsed":781863,"internal_node_id":"0.0-3.0-3.27","prolific_id":"63168f4d57bf8e3c1a5cf056","session_id":"643c1b0ce78277721c8b6f5e","study_id":"64370a36d30bfa807bc7e43c"},{"rt":8817,"response":{"prediction":"30"},"trial_type":"survey-text","trial_index":118,"time_elapsed":790682,"internal_node_id":"0.0-3.0-0.28","prolific_id":"63168f4d57bf8e3c1a5cf056","session_id":"643c1b0ce78277721c8b6f5e","study_id":"64370a36d30bfa807bc7e43c"},{"rt":6723,"response":{"prior knowledge":0,"curiosity":0},"accuracy":[],"trial_type":"survey","trial_index":119,"time_elapsed":797420,"internal_node_id":"0.0-3.0-1.28","prolific_id":"63168f4d57bf8e3c1a5cf056","session_id":"643c1b0ce78277721c8b6f5e","study_id":"64370a36d30bfa807bc7e43c"},{"rt":null,"stimulus":"\n\t\t\t<div class=\"flip_card\">\n\t\t\t\t<div class=\"flip_card_inner\">\n\t\t\t\t\t<div class=\"flip_card_front\">\n\t\t\t\t\t\t<img src=img/20.png>\n\t\t\t\t\t</div>\n\t\t\t\t\t<div class=\"flip_card_back\">\n\t\t\t\t\t\t<h2>How many single hand gestures, or mudras, are used in Indian classical dance?</h2>\n\t\t\t\t\t\t<br>\n\t\t\t\t\t\t<p>Answer: <strong>28</strong></p>\n\t\t\t\t\t</div>\n\t\t\t\t</div>\n\t\t\t</div>\n\t\t\t","response":null,"trial_type":"html-keyboard-response","trial_index":120,"time_elapsed":802432,"internal_node_id":"0.0-3.0-2.28","prolific_id":"63168f4d57bf8e3c1a5cf056","session_id":"643c1b0ce78277721c8b6f5e","study_id":"64370a36d30bfa807bc7e43c"},{"rt":628,"stimulus":"\n\t\t\t\t\t<div>\n\t\t\t\t\t<h2>Trial 29 is over</h2>\n\t\t\t\t\t<p>Press <span style=\"color: red\"><strong>any key</strong></span> to continue to the next trial</p>\n\t\t\t\t\t</div>\n\t\t\t\t","response":" ","trial_type":"html-keyboard-response","trial_index":121,"time_elapsed":803060,"internal_node_id":"0.0-3.0-3.28","prolific_id":"63168f4d57bf8e3c1a5cf056","session_id":"643c1b0ce78277721c8b6f5e","study_id":"64370a36d30bfa807bc7e43c"},{"rt":5637,"response":{"prediction":"16"},"trial_type":"survey-text","trial_index":122,"time_elapsed":808699,"internal_node_id":"0.0-3.0-0.29","prolific_id":"63168f4d57bf8e3c1a5cf056","session_id":"643c1b0ce78277721c8b6f5e","study_id":"64370a36d30bfa807bc7e43c"},{"rt":9443,"response":{"prior knowledge":1,"curiosity":3},"accuracy":[],"trial_type":"survey","trial_index":123,"time_elapsed":818159,"internal_node_id":"0.0-3.0-1.29","prolific_id":"63168f4d57bf8e3c1a5cf056","session_id":"643c1b0ce78277721c8b6f5e","study_id":"64370a36d30bfa807bc7e43c"},{"rt":null,"stimulus":"\n\t\t\t<div class=\"flip_card\">\n\t\t\t\t<div class=\"flip_card_inner\">\n\t\t\t\t\t<div class=\"flip_card_front\">\n\t\t\t\t\t\t<img src=img/28.png>\n\t\t\t\t\t</div>\n\t\t\t\t\t<div class=\"flip_card_back\">\n\t\t\t\t\t\t<h2>How many books has Stephen King published?</h2>\n\t\t\t\t\t\t<br>\n\t\t\t\t\t\t<p>Answer: <strong>65</strong></p>\n\t\t\t\t\t</div>\n\t\t\t\t</div>\n\t\t\t</div>\n\t\t\t","response":null,"trial_type":"html-keyboard-response","trial_index":124,"time_elapsed":823166,"internal_node_id":"0.0-3.0-2.29","prolific_id":"63168f4d57bf8e3c1a5cf056","session_id":"643c1b0ce78277721c8b6f5e","study_id":"64370a36d30bfa807bc7e43c"},{"rt":734,"stimulus":"\n\t\t\t\t\t<div>\n\t\t\t\t\t<h2>Trial 30 is over</h2>\n\t\t\t\t\t<p>Press <span style=\"color: red\"><strong>any key</strong></span> to continue to the next trial</p>\n\t\t\t\t\t</div>\n\t\t\t\t","response":" ","trial_type":"html-keyboard-response","trial_index":125,"time_elapsed":823901,"internal_node_id":"0.0-3.0-3.29","prolific_id":"63168f4d57bf8e3c1a5cf056","session_id":"643c1b0ce78277721c8b6f5e","study_id":"64370a36d30bfa807bc7e43c"},{"rt":null,"stimulus":"\n\t\t\t<h2>Good job! You've finished the 30 trials:p</h2>\n\t\t\t<p>In the next session, you will see two cards on the screen in each trial.</p>\n\t\t\t<p>On one card is a pattern that you have seen before in the experiment,\n\t\t\t\tand on the other card is one you have not seen.</p><br>\n\t\t\t<p>Your task is to choose the one you think you <em>have</em> seen before for every trial.</p>\n\t\t\t<p>Press '<span style=\"color: red;\"><strong>F</strong></span>' to choose the card on the left,\n\t\t\t\tand '<span style=\"color: red;\"><strong>J</strong></span>' to choose the card on the right.</p>\n\t\t\t<p>Have fun!</p>\n\t\t\t<br>\n\t\t\t<p>The trials will begin in 30 seconds</p>\n\t\t\t","response":null,"trial_type":"html-keyboard-response","trial_index":126,"time_elapsed":853908,"internal_node_id":"0.0-4.0","prolific_id":"63168f4d57bf8e3c1a5cf056","session_id":"643c1b0ce78277721c8b6f5e","study_id":"64370a36d30bfa807bc7e43c"},{"rt":3106,"stimulus":"\n\t\t\t\t\t\t<div class=\"two_card_container\">\n\t\t\t\t\t\t<div class=\"card_container\">\n\t\t\t\t\t\t<img src=img/36.png>\n\t\t\t\t\t\t</div>\n\n\t\t\t\t\t\t<div class=\"card_container\">\n\t\t\t\t\t\t<img src=img/28.png>\n\t\t\t\t\t\t</div>","response":"j","task":"response","correct_response":"j","trial_type":"html-keyboard-response","trial_index":127,"time_elapsed":857015,"internal_node_id":"0.0-5.0-0.0","prolific_id":"63168f4d57bf8e3c1a5cf056","session_id":"643c1b0ce78277721c8b6f5e","study_id":"64370a36d30bfa807bc7e43c","correct":true},{"rt":null,"stimulus":"\n\t\t\t\t\t<p>Correct!</p>\n\t\t\t\t\t","response":null,"trial_type":"html-keyboard-response","trial_index":128,"time_elapsed":858025,"internal_node_id":"0.0-5.0-1.0","prolific_id":"63168f4d57bf8e3c1a5cf056","session_id":"643c1b0ce78277721c8b6f5e","study_id":"64370a36d30bfa807bc7e43c"},{"rt":3752,"stimulus":"\n\t\t\t\t\t\t<div class=\"two_card_container\">\n\t\t\t\t\t\t<div class=\"card_container\">\n\t\t\t\t\t\t<img src=img/25.png>\n\t\t\t\t\t\t</div>\n\n\t\t\t\t\t\t<div class=\"card_container\">\n\t\t\t\t\t\t<img src=img/34.png>\n\t\t\t\t\t\t</div>","response":"f","task":"response","correct_response":"f","trial_type":"html-keyboard-response","trial_index":129,"time_elapsed":861777,"internal_node_id":"0.0-5.0-0.1","prolific_id":"63168f4d57bf8e3c1a5cf056","session_id":"643c1b0ce78277721c8b6f5e","study_id":"64370a36d30bfa807bc7e43c","correct":true},{"rt":null,"stimulus":"\n\t\t\t\t\t<p>Correct!</p>\n\t\t\t\t\t","response":null,"trial_type":"html-keyboard-response","trial_index":130,"time_elapsed":862783,"internal_node_id":"0.0-5.0-1.1","prolific_id":"63168f4d57bf8e3c1a5cf056","session_id":"643c1b0ce78277721c8b6f5e","study_id":"64370a36d30bfa807bc7e43c"},{"rt":1775,"stimulus":"\n\t\t\t\t\t\t<div class=\"two_card_container\">\n\t\t\t\t\t\t<div class=\"card_container\">\n\t\t\t\t\t\t<img src=img/32.png>\n\t\t\t\t\t\t</div>\n\n\t\t\t\t\t\t<div class=\"card_container\">\n\t\t\t\t\t\t<img src=img/20.png>\n\t\t\t\t\t\t</div>","response":"j","task":"response","correct_response":"j","trial_type":"html-keyboard-response","trial_index":131,"time_elapsed":864559,"internal_node_id":"0.0-5.0-0.2","prolific_id":"63168f4d57bf8e3c1a5cf056","session_id":"643c1b0ce78277721c8b6f5e","study_id":"64370a36d30bfa807bc7e43c","correct":true},{"rt":null,"stimulus":"\n\t\t\t\t\t<p>Correct!</p>\n\t\t\t\t\t","response":null,"trial_type":"html-keyboard-response","trial_index":132,"time_elapsed":865564,"internal_node_id":"0.0-5.0-1.2","prolific_id":"63168f4d57bf8e3c1a5cf056","session_id":"643c1b0ce78277721c8b6f5e","study_id":"64370a36d30bfa807bc7e43c"},{"rt":1803,"stimulus":"\n\t\t\t\t\t\t<div class=\"two_card_container\">\n\t\t\t\t\t\t<div class=\"card_container\">\n\t\t\t\t\t\t<img src=img/31.png>\n\t\t\t\t\t\t</div>\n\n\t\t\t\t\t\t<div class=\"card_container\">\n\t\t\t\t\t\t<img src=img/15.png>\n\t\t\t\t\t\t</div>","response":"j","task":"response","correct_response":"j","trial_type":"html-keyboard-response","trial_index":133,"time_elapsed":867368,"internal_node_id":"0.0-5.0-0.3","prolific_id":"63168f4d57bf8e3c1a5cf056","session_id":"643c1b0ce78277721c8b6f5e","study_id":"64370a36d30bfa807bc7e43c","correct":true},{"rt":null,"stimulus":"\n\t\t\t\t\t<p>Correct!</p>\n\t\t\t\t\t","response":null,"trial_type":"html-keyboard-response","trial_index":134,"time_elapsed":868380,"internal_node_id":"0.0-5.0-1.3","prolific_id":"63168f4d57bf8e3c1a5cf056","session_id":"643c1b0ce78277721c8b6f5e","study_id":"64370a36d30bfa807bc7e43c"},{"rt":2134,"stimulus":"\n\t\t\t\t\t\t<div class=\"two_card_container\">\n\t\t\t\t\t\t<div class=\"card_container\">\n\t\t\t\t\t\t<img src=img/19.png>\n\t\t\t\t\t\t</div>\n\n\t\t\t\t\t\t<div class=\"card_container\">\n\t\t\t\t\t\t<img src=img/40.png>\n\t\t\t\t\t\t</div>","response":"f","task":"response","correct_response":"f","trial_type":"html-keyboard-response","trial_index":135,"time_elapsed":870515,"internal_node_id":"0.0-5.0-0.4","prolific_id":"63168f4d57bf8e3c1a5cf056","session_id":"643c1b0ce78277721c8b6f5e","study_id":"64370a36d30bfa807bc7e43c","correct":true},{"rt":null,"stimulus":"\n\t\t\t\t\t<p>Correct!</p>\n\t\t\t\t\t","response":null,"trial_type":"html-keyboard-response","trial_index":136,"time_elapsed":871521,"internal_node_id":"0.0-5.0-1.4","prolific_id":"63168f4d57bf8e3c1a5cf056","session_id":"643c1b0ce78277721c8b6f5e","study_id":"64370a36d30bfa807bc7e43c"},{"rt":1403,"stimulus":"\n\t\t\t\t\t\t<div class=\"two_card_container\">\n\t\t\t\t\t\t<div class=\"card_container\">\n\t\t\t\t\t\t<img src=img/38.png>\n\t\t\t\t\t\t</div>\n\n\t\t\t\t\t\t<div class=\"card_container\">\n\t\t\t\t\t\t<img src=img/30.png>\n\t\t\t\t\t\t</div>","response":"j","task":"response","correct_response":"j","trial_type":"html-keyboard-response","trial_index":137,"time_elapsed":872925,"internal_node_id":"0.0-5.0-0.5","prolific_id":"63168f4d57bf8e3c1a5cf056","session_id":"643c1b0ce78277721c8b6f5e","study_id":"64370a36d30bfa807bc7e43c","correct":true},{"rt":null,"stimulus":"\n\t\t\t\t\t<p>Correct!</p>\n\t\t\t\t\t","response":null,"trial_type":"html-keyboard-response","trial_index":138,"time_elapsed":873938,"internal_node_id":"0.0-5.0-1.5","prolific_id":"63168f4d57bf8e3c1a5cf056","session_id":"643c1b0ce78277721c8b6f5e","study_id":"64370a36d30bfa807bc7e43c"},{"rt":1490,"stimulus":"\n\t\t\t\t\t\t<div class=\"two_card_container\">\n\t\t\t\t\t\t<div class=\"card_container\">\n\t\t\t\t\t\t<img src=img/2.png>\n\t\t\t\t\t\t</div>\n\n\t\t\t\t\t\t<div class=\"card_container\">\n\t\t\t\t\t\t<img src=img/35.png>\n\t\t\t\t\t\t</div>","response":"f","task":"response","correct_response":"f","trial_type":"html-keyboard-response","trial_index":139,"time_elapsed":875428,"internal_node_id":"0.0-5.0-0.6","prolific_id":"63168f4d57bf8e3c1a5cf056","session_id":"643c1b0ce78277721c8b6f5e","study_id":"64370a36d30bfa807bc7e43c","correct":true},{"rt":null,"stimulus":"\n\t\t\t\t\t<p>Correct!</p>\n\t\t\t\t\t","response":null,"trial_type":"html-keyboard-response","trial_index":140,"time_elapsed":876442,"internal_node_id":"0.0-5.0-1.6","prolific_id":"63168f4d57bf8e3c1a5cf056","session_id":"643c1b0ce78277721c8b6f5e","study_id":"64370a36d30bfa807bc7e43c"},{"rt":1480,"stimulus":"\n\t\t\t\t\t\t<div class=\"two_card_container\">\n\t\t\t\t\t\t<div class=\"card_container\">\n\t\t\t\t\t\t<img src=img/10.png>\n\t\t\t\t\t\t</div>\n\n\t\t\t\t\t\t<div class=\"card_container\">\n\t\t\t\t\t\t<img src=img/39.png>\n\t\t\t\t\t\t</div>","response":"f","task":"response","correct_response":"f","trial_type":"html-keyboard-response","trial_index":141,"time_elapsed":877923,"internal_node_id":"0.0-5.0-0.7","prolific_id":"63168f4d57bf8e3c1a5cf056","session_id":"643c1b0ce78277721c8b6f5e","study_id":"64370a36d30bfa807bc7e43c","correct":true},{"rt":null,"stimulus":"\n\t\t\t\t\t<p>Correct!</p>\n\t\t\t\t\t","response":null,"trial_type":"html-keyboard-response","trial_index":142,"time_elapsed":878924,"internal_node_id":"0.0-5.0-1.7","prolific_id":"63168f4d57bf8e3c1a5cf056","session_id":"643c1b0ce78277721c8b6f5e","study_id":"64370a36d30bfa807bc7e43c"},{"rt":1513,"stimulus":"\n\t\t\t\t\t\t<div class=\"two_card_container\">\n\t\t\t\t\t\t<div class=\"card_container\">\n\t\t\t\t\t\t<img src=img/8.png>\n\t\t\t\t\t\t</div>\n\n\t\t\t\t\t\t<div class=\"card_container\">\n\t\t\t\t\t\t<img src=img/37.png>\n\t\t\t\t\t\t</div>","response":"f","task":"response","correct_response":"f","trial_type":"html-keyboard-response","trial_index":143,"time_elapsed":880437,"internal_node_id":"0.0-5.0-0.8","prolific_id":"63168f4d57bf8e3c1a5cf056","session_id":"643c1b0ce78277721c8b6f5e","study_id":"64370a36d30bfa807bc7e43c","correct":true},{"rt":null,"stimulus":"\n\t\t\t\t\t<p>Correct!</p>\n\t\t\t\t\t","response":null,"trial_type":"html-keyboard-response","trial_index":144,"time_elapsed":881446,"internal_node_id":"0.0-5.0-1.8","prolific_id":"63168f4d57bf8e3c1a5cf056","session_id":"643c1b0ce78277721c8b6f5e","study_id":"64370a36d30bfa807bc7e43c"},{"rt":1237,"stimulus":"\n\t\t\t\t\t\t<div class=\"two_card_container\">\n\t\t\t\t\t\t<div class=\"card_container\">\n\t\t\t\t\t\t<img src=img/33.png>\n\t\t\t\t\t\t</div>\n\n\t\t\t\t\t\t<div class=\"card_container\">\n\t\t\t\t\t\t<img src=img/4.png>\n\t\t\t\t\t\t</div>","response":"j","task":"response","correct_response":"j","trial_type":"html-keyboard-response","trial_index":145,"time_elapsed":882684,"internal_node_id":"0.0-5.0-0.9","prolific_id":"63168f4d57bf8e3c1a5cf056","session_id":"643c1b0ce78277721c8b6f5e","study_id":"64370a36d30bfa807bc7e43c","correct":true},{"rt":null,"stimulus":"\n\t\t\t\t\t<p>Correct!</p>\n\t\t\t\t\t","response":null,"trial_type":"html-keyboard-response","trial_index":146,"time_elapsed":883700,"internal_node_id":"0.0-5.0-1.9","prolific_id":"63168f4d57bf8e3c1a5cf056","session_id":"643c1b0ce78277721c8b6f5e","study_id":"64370a36d30bfa807bc7e43c"},{"rt":22769,"stimulus":"\n\t\t\t<h2>Good job :p</h2>\n\t\t\t<p>In the next session, you will see a trivia question on the screen in each trial.</p>\n\t\t\t<p>Each of these trivia questions is chosen from the questions you have already seen in the first session of the experiment.</p><br>\n\t\t\t<p>Your task is to answer the trivia question based on what you remember as accurately as you can.</p>\n\t\t\t<p>Have fun!</p>\n\t\t\t<br>\n\t\t\t<p>The trials will begin in 30 seconds</p>\n\t\t\t","response":" ","trial_type":"html-keyboard-response","trial_index":147,"time_elapsed":906470,"internal_node_id":"0.0-6.0","prolific_id":"63168f4d57bf8e3c1a5cf056","session_id":"643c1b0ce78277721c8b6f5e","study_id":"64370a36d30bfa807bc7e43c"},{"rt":7763,"response":{"answer":"1902"},"task":"response","correct_response":"1907","trial_type":"survey-text","trial_index":148,"time_elapsed":914236,"internal_node_id":"0.0-7.0-0.0","prolific_id":"63168f4d57bf8e3c1a5cf056","session_id":"643c1b0ce78277721c8b6f5e","study_id":"64370a36d30bfa807bc7e43c","difference":0},{"rt":null,"stimulus":"<h2>The correct answer is 1907.</h2><p>Your answer was different from the answer by 5.</p><p>Excellent. Kudos to you!</p>","response":null,"trial_type":"html-keyboard-response","trial_index":149,"time_elapsed":916746,"internal_node_id":"0.0-7.0-1.0","prolific_id":"63168f4d57bf8e3c1a5cf056","session_id":"643c1b0ce78277721c8b6f5e","study_id":"64370a36d30bfa807bc7e43c"},{"rt":3766,"response":{"answer":"65"},"task":"response","correct_response":"65","trial_type":"survey-text","trial_index":150,"time_elapsed":920513,"internal_node_id":"0.0-7.0-0.1","prolific_id":"63168f4d57bf8e3c1a5cf056","session_id":"643c1b0ce78277721c8b6f5e","study_id":"64370a36d30bfa807bc7e43c","difference":0},{"rt":null,"stimulus":"<h2>The correct answer is 65.</h2><p>Your answer was different from the answer by 0.</p><p>You got the right answer. Amazing work!</p>","response":null,"trial_type":"html-keyboard-response","trial_index":151,"time_elapsed":923018,"internal_node_id":"0.0-7.0-1.1","prolific_id":"63168f4d57bf8e3c1a5cf056","session_id":"643c1b0ce78277721c8b6f5e","study_id":"64370a36d30bfa807bc7e43c"},{"rt":4099,"response":{"answer":"11"},"task":"response","correct_response":"11","trial_type":"survey-text","trial_index":152,"time_elapsed":927119,"internal_node_id":"0.0-7.0-0.2","prolific_id":"63168f4d57bf8e3c1a5cf056","session_id":"643c1b0ce78277721c8b6f5e","study_id":"64370a36d30bfa807bc7e43c","difference":0},{"rt":null,"stimulus":"<h2>The correct answer is 11.</h2><p>Your answer was different from the answer by 0.</p><p>You got the right answer. Amazing work!</p>","response":null,"trial_type":"html-keyboard-response","trial_index":153,"time_elapsed":929623,"internal_node_id":"0.0-7.0-1.2","prolific_id":"63168f4d57bf8e3c1a5cf056","session_id":"643c1b0ce78277721c8b6f5e","study_id":"64370a36d30bfa807bc7e43c"},{"rt":5016,"response":{"answer":"1908"},"task":"response","correct_response":"1912","trial_type":"survey-text","trial_index":154,"time_elapsed":934640,"internal_node_id":"0.0-7.0-0.3","prolific_id":"63168f4d57bf8e3c1a5cf056","session_id":"643c1b0ce78277721c8b6f5e","study_id":"64370a36d30bfa807bc7e43c","difference":0},{"rt":null,"stimulus":"<h2>The correct answer is 1912.</h2><p>Your answer was different from the answer by 4.</p><p>Excellent. Kudos to you!</p>","response":null,"trial_type":"html-keyboard-response","trial_index":155,"time_elapsed":937159,"internal_node_id":"0.0-7.0-1.3","prolific_id":"63168f4d57bf8e3c1a5cf056","session_id":"643c1b0ce78277721c8b6f5e","study_id":"64370a36d30bfa807bc7e43c"},{"rt":4339,"response":{"answer":"12"},"task":"response","correct_response":"12","trial_type":"survey-text","trial_index":156,"time_elapsed":941501,"internal_node_id":"0.0-7.0-0.4","prolific_id":"63168f4d57bf8e3c1a5cf056","session_id":"643c1b0ce78277721c8b6f5e","study_id":"64370a36d30bfa807bc7e43c","difference":0},{"rt":null,"stimulus":"<h2>The correct answer is 12.</h2><p>Your answer was different from the answer by 0.</p><p>You got the right answer. Amazing work!</p>","response":null,"trial_type":"html-keyboard-response","trial_index":157,"time_elapsed":944013,"internal_node_id":"0.0-7.0-1.4","prolific_id":"63168f4d57bf8e3c1a5cf056","session_id":"643c1b0ce78277721c8b6f5e","study_id":"64370a36d30bfa807bc7e43c"},{"rt":5551,"response":{"answer":"9012"},"task":"response","correct_response":"7917.5","trial_type":"survey-text","trial_index":158,"time_elapsed":949567,"internal_node_id":"0.0-7.0-0.5","prolific_id":"63168f4d57bf8e3c1a5cf056","session_id":"643c1b0ce78277721c8b6f5e","study_id":"64370a36d30bfa807bc7e43c","difference":14},{"rt":null,"stimulus":"<h2>The correct answer is 7917.5.</h2><p>Your answer was different from the answer by 1094.5.</p><p>A pretty good job indeed.</p>","response":null,"trial_type":"html-keyboard-response","trial_index":159,"time_elapsed":952076,"internal_node_id":"0.0-7.0-1.5","prolific_id":"63168f4d57bf8e3c1a5cf056","session_id":"643c1b0ce78277721c8b6f5e","study_id":"64370a36d30bfa807bc7e43c"},{"rt":2940,"response":{"answer":"13"},"task":"response","correct_response":"13","trial_type":"survey-text","trial_index":160,"time_elapsed":955019,"internal_node_id":"0.0-7.0-0.6","prolific_id":"63168f4d57bf8e3c1a5cf056","session_id":"643c1b0ce78277721c8b6f5e","study_id":"64370a36d30bfa807bc7e43c","difference":0},{"rt":null,"stimulus":"<h2>The correct answer is 13.</h2><p>Your answer was different from the answer by 0.</p><p>You got the right answer. Amazing work!</p>","response":null,"trial_type":"html-keyboard-response","trial_index":161,"time_elapsed":957522,"internal_node_id":"0.0-7.0-1.6","prolific_id":"63168f4d57bf8e3c1a5cf056","session_id":"643c1b0ce78277721c8b6f5e","study_id":"64370a36d30bfa807bc7e43c"},{"rt":4502,"response":{"answer":"1989"},"task":"response","correct_response":"1989","trial_type":"survey-text","trial_index":162,"time_elapsed":962026,"internal_node_id":"0.0-7.0-0.7","prolific_id":"63168f4d57bf8e3c1a5cf056","session_id":"643c1b0ce78277721c8b6f5e","study_id":"64370a36d30bfa807bc7e43c","difference":0},{"rt":null,"stimulus":"<h2>The correct answer is 1989.</h2><p>Your answer was different from the answer by 0.</p><p>You got the right answer. Amazing work!</p>","response":null,"trial_type":"html-keyboard-response","trial_index":163,"time_elapsed":964540,"internal_node_id":"0.0-7.0-1.7","prolific_id":"63168f4d57bf8e3c1a5cf056","session_id":"643c1b0ce78277721c8b6f5e","study_id":"64370a36d30bfa807bc7e43c"},{"rt":4889,"response":{"answer":"165"},"task":"response","correct_response":"163","trial_type":"survey-text","trial_index":164,"time_elapsed":969431,"internal_node_id":"0.0-7.0-0.8","prolific_id":"63168f4d57bf8e3c1a5cf056","session_id":"643c1b0ce78277721c8b6f5e","study_id":"64370a36d30bfa807bc7e43c","difference":1},{"rt":null,"stimulus":"<h2>The correct answer is 163.</h2><p>Your answer was different from the answer by 2.</p><p>Excellent. Kudos to you!</p>","response":null,"trial_type":"html-keyboard-response","trial_index":165,"time_elapsed":971940,"internal_node_id":"0.0-7.0-1.8","prolific_id":"63168f4d57bf8e3c1a5cf056","session_id":"643c1b0ce78277721c8b6f5e","study_id":"64370a36d30bfa807bc7e43c"},{"rt":5269,"response":{"answer":"2007"},"task":"response","correct_response":"2007","trial_type":"survey-text","trial_index":166,"time_elapsed":977212,"internal_node_id":"0.0-7.0-0.9","prolific_id":"63168f4d57bf8e3c1a5cf056","session_id":"643c1b0ce78277721c8b6f5e","study_id":"64370a36d30bfa807bc7e43c","difference":0},{"rt":null,"stimulus":"<h2>The correct answer is 2007.</h2><p>Your answer was different from the answer by 0.</p><p>You got the right answer. Amazing work!</p>","response":null,"trial_type":"html-keyboard-response","trial_index":167,"time_elapsed":979720,"internal_node_id":"0.0-7.0-1.9","prolific_id":"63168f4d57bf8e3c1a5cf056","session_id":"643c1b0ce78277721c8b6f5e","study_id":"64370a36d30bfa807bc7e43c"}]