[{"success":true,"timeout":false,"failed_images":[],"failed_audio":[],"failed_video":[],"trial_type":"preload","trial_index":0,"time_elapsed":6550,"internal_node_id":"0.0-0.0","prolific_id":"6325d8654a2844488ae84a06","session_id":"643c1af3a5b40b02bb55ceeb","study_id":"64370a36d30bfa807bc7e43c"},{"rt":11391,"stimulus":"\n\t\t\t\t\t<p>Welcome and thank you for participating in this study!</p>\n\t\t\t\t\t<p>In each trial, you will be given a trivia question and then be asked to:</p><br>\n\t\t\t\t\t<div class=\"list\">\n\t\t\t\t\t<p>1) Predict the answer</p>\n\t\t\t\t\t<p>2) Rate how much you already know about the topic</p>\n\t\t\t\t\t<p>3) Rate how much you want to know the answer</p>\n\t\t\t\t\t</div>\n\t\t\t\t\t<br>\n\t\t\t\t\t<p>Then, you will see a card that flips over to reveal the answer.</p>\n\t\t\t\t\t<br>\n\t\t\t\t\t<p>Let's try a practice round. Press <span style=\"color: red\"><strong>any key</strong></span> to move to the next slide</p>\n\t\t\t\t\t","response":" ","trial_type":"html-keyboard-response","trial_index":1,"time_elapsed":17944,"internal_node_id":"0.0-1.0","prolific_id":"6325d8654a2844488ae84a06","session_id":"643c1af3a5b40b02bb55ceeb","study_id":"64370a36d30bfa807bc7e43c"},{"rt":6932,"response":{"practice prediction":"4"},"task":"practice","trial_type":"survey-text","trial_index":2,"time_elapsed":24903,"internal_node_id":"0.0-2.0-0.0","prolific_id":"6325d8654a2844488ae84a06","session_id":"643c1af3a5b40b02bb55ceeb","study_id":"64370a36d30bfa807bc7e43c"},{"rt":8104,"response":{"practice":4},"accuracy":[],"trial_type":"survey","trial_index":3,"time_elapsed":33058,"internal_node_id":"0.0-2.0-1.0","prolific_id":"6325d8654a2844488ae84a06","session_id":"643c1af3a5b40b02bb55ceeb","study_id":"64370a36d30bfa807bc7e43c"},{"rt":null,"stimulus":"\n\t\t\t\t<div class=\"flip_card\">\n\t\t\t\t\t<div class=\"flip_card_inner\">\n\t\t\t\t\t\t<div class=\"flip_card_front\">\n\t\t\t\t\t\t\t<img src=img/practice.png>\n\t\t\t\t\t\t</div>\n\t\t\t\t\t\t<div class=\"flip_card_back\">\n\t\t\t\t\t\t\t<h2>\"How many legs does a lobster have?\"</h2>\n\t\t\t\t\t\t    <br>\n\t\t\t\t\t\t    <p>Answer: <strong>\"10\"</strong></p>\n\t\t\t\t\t    </div>\n\t\t\t\t    </div>\n\t\t\t    </div>\n\t\t\t\t","response":null,"trial_type":"html-keyboard-response","trial_index":4,"time_elapsed":38062,"internal_node_id":"0.0-2.0-2.0","prolific_id":"6325d8654a2844488ae84a06","session_id":"643c1af3a5b40b02bb55ceeb","study_id":"64370a36d30bfa807bc7e43c"},{"rt":2008,"stimulus":"\n\t\t\t\t\t<div>\n\t\t\t\t\t<h2>The practice round is over</h2>\n\t\t\t\t\t<p>Press <span style=\"color: red\"><strong>any key</strong></span> to continue to the actual trials</p>\n\t\t\t\t\t<p>Good Luck!</p>\n\t\t\t\t\t</div>\n\t\t\t\t\t","response":"audiovolumemute","trial_type":"html-keyboard-response","trial_index":5,"time_elapsed":40071,"internal_node_id":"0.0-2.0-3.0","prolific_id":"6325d8654a2844488ae84a06","session_id":"643c1af3a5b40b02bb55ceeb","study_id":"64370a36d30bfa807bc7e43c"},{"rt":6359,"response":{"prediction":"10"},"trial_type":"survey-text","trial_index":6,"time_elapsed":46439,"internal_node_id":"0.0-3.0-0.0","prolific_id":"6325d8654a2844488ae84a06","session_id":"643c1af3a5b40b02bb55ceeb","study_id":"64370a36d30bfa807bc7e43c"},{"rt":7119,"response":{"prior knowledge":0,"curiosity":0},"accuracy":[],"trial_type":"survey","trial_index":7,"time_elapsed":53581,"internal_node_id":"0.0-3.0-1.0","prolific_id":"6325d8654a2844488ae84a06","session_id":"643c1af3a5b40b02bb55ceeb","study_id":"64370a36d30bfa807bc7e43c"},{"rt":null,"stimulus":"\n\t\t\t<div class=\"flip_card\">\n\t\t\t\t<div class=\"flip_card_inner\">\n\t\t\t\t\t<div class=\"flip_card_front\">\n\t\t\t\t\t\t<img src=img/23.png>\n\t\t\t\t\t</div>\n\t\t\t\t\t<div class=\"flip_card_back\">\n\t\t\t\t\t\t<h2>How many single hand gestures, or mudras, are used in Indian classical dance?</h2>\n\t\t\t\t\t\t<br>\n\t\t\t\t\t\t<p>Answer: <strong>28</strong></p>\n\t\t\t\t\t</div>\n\t\t\t\t</div>\n\t\t\t</div>\n\t\t\t","response":null,"trial_type":"html-keyboard-response","trial_index":8,"time_elapsed":58589,"internal_node_id":"0.0-3.0-2.0","prolific_id":"6325d8654a2844488ae84a06","session_id":"643c1af3a5b40b02bb55ceeb","study_id":"64370a36d30bfa807bc7e43c"},{"rt":1323,"stimulus":"\n\t\t\t\t\t<div>\n\t\t\t\t\t<h2>Trial 1 is over</h2>\n\t\t\t\t\t<p>Press <span style=\"color: red\"><strong>any key</strong></span> to continue to the next trial</p>\n\t\t\t\t\t</div>\n\t\t\t\t","response":" ","trial_type":"html-keyboard-response","trial_index":9,"time_elapsed":59913,"internal_node_id":"0.0-3.0-3.0","prolific_id":"6325d8654a2844488ae84a06","session_id":"643c1af3a5b40b02bb55ceeb","study_id":"64370a36d30bfa807bc7e43c"},{"rt":6405,"response":{"prediction":"62"},"trial_type":"survey-text","trial_index":10,"time_elapsed":66323,"internal_node_id":"0.0-3.0-0.1","prolific_id":"6325d8654a2844488ae84a06","session_id":"643c1af3a5b40b02bb55ceeb","study_id":"64370a36d30bfa807bc7e43c"},{"rt":5478,"response":{"prior knowledge":4,"curiosity":5},"accuracy":[],"trial_type":"survey","trial_index":11,"time_elapsed":71831,"internal_node_id":"0.0-3.0-1.1","prolific_id":"6325d8654a2844488ae84a06","session_id":"643c1af3a5b40b02bb55ceeb","study_id":"64370a36d30bfa807bc7e43c"},{"rt":null,"stimulus":"\n\t\t\t<div class=\"flip_card\">\n\t\t\t\t<div class=\"flip_card_inner\">\n\t\t\t\t\t<div class=\"flip_card_front\">\n\t\t\t\t\t\t<img src=img/29.png>\n\t\t\t\t\t</div>\n\t\t\t\t\t<div class=\"flip_card_back\">\n\t\t\t\t\t\t<h2>How many books are in the Catholic Bible?</h2>\n\t\t\t\t\t\t<br>\n\t\t\t\t\t\t<p>Answer: <strong>73</strong></p>\n\t\t\t\t\t</div>\n\t\t\t\t</div>\n\t\t\t</div>\n\t\t\t","response":null,"trial_type":"html-keyboard-response","trial_index":12,"time_elapsed":76842,"internal_node_id":"0.0-3.0-2.1","prolific_id":"6325d8654a2844488ae84a06","session_id":"643c1af3a5b40b02bb55ceeb","study_id":"64370a36d30bfa807bc7e43c"},{"rt":812,"stimulus":"\n\t\t\t\t\t<div>\n\t\t\t\t\t<h2>Trial 2 is over</h2>\n\t\t\t\t\t<p>Press <span style=\"color: red\"><strong>any key</strong></span> to continue to the next trial</p>\n\t\t\t\t\t</div>\n\t\t\t\t","response":" ","trial_type":"html-keyboard-response","trial_index":13,"time_elapsed":77656,"internal_node_id":"0.0-3.0-3.1","prolific_id":"6325d8654a2844488ae84a06","session_id":"643c1af3a5b40b02bb55ceeb","study_id":"64370a36d30bfa807bc7e43c"},{"rt":6590,"response":{"prediction":"60"},"trial_type":"survey-text","trial_index":14,"time_elapsed":84248,"internal_node_id":"0.0-3.0-0.2","prolific_id":"6325d8654a2844488ae84a06","session_id":"643c1af3a5b40b02bb55ceeb","study_id":"64370a36d30bfa807bc7e43c"},{"rt":8156,"response":{"prior knowledge":1,"curiosity":2},"accuracy":[],"trial_type":"survey","trial_index":15,"time_elapsed":92431,"internal_node_id":"0.0-3.0-1.2","prolific_id":"6325d8654a2844488ae84a06","session_id":"643c1af3a5b40b02bb55ceeb","study_id":"64370a36d30bfa807bc7e43c"},{"rt":null,"stimulus":"\n\t\t\t<div class=\"flip_card\">\n\t\t\t\t<div class=\"flip_card_inner\">\n\t\t\t\t\t<div class=\"flip_card_front\">\n\t\t\t\t\t\t<img src=img/6.png>\n\t\t\t\t\t</div>\n\t\t\t\t\t<div class=\"flip_card_back\">\n\t\t\t\t\t\t<h2>How many constellations are there?</h2>\n\t\t\t\t\t\t<br>\n\t\t\t\t\t\t<p>Answer: <strong>88</strong></p>\n\t\t\t\t\t</div>\n\t\t\t\t</div>\n\t\t\t</div>\n\t\t\t","response":null,"trial_type":"html-keyboard-response","trial_index":16,"time_elapsed":97442,"internal_node_id":"0.0-3.0-2.2","prolific_id":"6325d8654a2844488ae84a06","session_id":"643c1af3a5b40b02bb55ceeb","study_id":"64370a36d30bfa807bc7e43c"},{"rt":19551,"stimulus":"\n\t\t\t\t\t<div>\n\t\t\t\t\t<h2>Trial 3 is over</h2>\n\t\t\t\t\t<p>Press <span style=\"color: red\"><strong>any key</strong></span> to continue to the next trial</p>\n\t\t\t\t\t</div>\n\t\t\t\t","response":" ","trial_type":"html-keyboard-response","trial_index":17,"time_elapsed":116995,"internal_node_id":"0.0-3.0-3.2","prolific_id":"6325d8654a2844488ae84a06","session_id":"643c1af3a5b40b02bb55ceeb","study_id":"64370a36d30bfa807bc7e43c"},{"rt":5128,"response":{"prediction":"6"},"trial_type":"survey-text","trial_index":18,"time_elapsed":122133,"internal_node_id":"0.0-3.0-0.3","prolific_id":"6325d8654a2844488ae84a06","session_id":"643c1af3a5b40b02bb55ceeb","study_id":"64370a36d30bfa807bc7e43c"},{"rt":8494,"response":{"prior knowledge":3,"curiosity":4},"accuracy":[],"trial_type":"survey","trial_index":19,"time_elapsed":130657,"internal_node_id":"0.0-3.0-1.3","prolific_id":"6325d8654a2844488ae84a06","session_id":"643c1af3a5b40b02bb55ceeb","study_id":"64370a36d30bfa807bc7e43c"},{"rt":null,"stimulus":"\n\t\t\t<div class=\"flip_card\">\n\t\t\t\t<div class=\"flip_card_inner\">\n\t\t\t\t\t<div class=\"flip_card_front\">\n\t\t\t\t\t\t<img src=img/25.png>\n\t\t\t\t\t</div>\n\t\t\t\t\t<div class=\"flip_card_back\">\n\t\t\t\t\t\t<h2>How many countries have territory in the Arctic Circle?</h2>\n\t\t\t\t\t\t<br>\n\t\t\t\t\t\t<p>Answer: <strong>8</strong></p>\n\t\t\t\t\t</div>\n\t\t\t\t</div>\n\t\t\t</div>\n\t\t\t","response":null,"trial_type":"html-keyboard-response","trial_index":20,"time_elapsed":135665,"internal_node_id":"0.0-3.0-2.3","prolific_id":"6325d8654a2844488ae84a06","session_id":"643c1af3a5b40b02bb55ceeb","study_id":"64370a36d30bfa807bc7e43c"},{"rt":1156,"stimulus":"\n\t\t\t\t\t<div>\n\t\t\t\t\t<h2>Trial 4 is over</h2>\n\t\t\t\t\t<p>Press <span style=\"color: red\"><strong>any key</strong></span> to continue to the next trial</p>\n\t\t\t\t\t</div>\n\t\t\t\t","response":" ","trial_type":"html-keyboard-response","trial_index":21,"time_elapsed":136822,"internal_node_id":"0.0-3.0-3.3","prolific_id":"6325d8654a2844488ae84a06","session_id":"643c1af3a5b40b02bb55ceeb","study_id":"64370a36d30bfa807bc7e43c"},{"rt":3794,"response":{"prediction":"15"},"trial_type":"survey-text","trial_index":22,"time_elapsed":140621,"internal_node_id":"0.0-3.0-0.4","prolific_id":"6325d8654a2844488ae84a06","session_id":"643c1af3a5b40b02bb55ceeb","study_id":"64370a36d30bfa807bc7e43c"},{"rt":3119,"response":{"prior knowledge":1,"curiosity":1},"accuracy":[],"trial_type":"survey","trial_index":23,"time_elapsed":143757,"internal_node_id":"0.0-3.0-1.4","prolific_id":"6325d8654a2844488ae84a06","session_id":"643c1af3a5b40b02bb55ceeb","study_id":"64370a36d30bfa807bc7e43c"},{"rt":null,"stimulus":"\n\t\t\t<div class=\"flip_card\">\n\t\t\t\t<div class=\"flip_card_inner\">\n\t\t\t\t\t<div class=\"flip_card_front\">\n\t\t\t\t\t\t<img src=img/24.png>\n\t\t\t\t\t</div>\n\t\t\t\t\t<div class=\"flip_card_back\">\n\t\t\t\t\t\t<h2>How many countries in Africa have French as the official language?</h2>\n\t\t\t\t\t\t<br>\n\t\t\t\t\t\t<p>Answer: <strong>21</strong></p>\n\t\t\t\t\t</div>\n\t\t\t\t</div>\n\t\t\t</div>\n\t\t\t","response":null,"trial_type":"html-keyboard-response","trial_index":24,"time_elapsed":148764,"internal_node_id":"0.0-3.0-2.4","prolific_id":"6325d8654a2844488ae84a06","session_id":"643c1af3a5b40b02bb55ceeb","study_id":"64370a36d30bfa807bc7e43c"},{"rt":1588,"stimulus":"\n\t\t\t\t\t<div>\n\t\t\t\t\t<h2>Trial 5 is over</h2>\n\t\t\t\t\t<p>Press <span style=\"color: red\"><strong>any key</strong></span> to continue to the next trial</p>\n\t\t\t\t\t</div>\n\t\t\t\t","response":" ","trial_type":"html-keyboard-response","trial_index":25,"time_elapsed":150353,"internal_node_id":"0.0-3.0-3.4","prolific_id":"6325d8654a2844488ae84a06","session_id":"643c1af3a5b40b02bb55ceeb","study_id":"64370a36d30bfa807bc7e43c"},{"rt":11617,"response":{"prediction":"7"},"trial_type":"survey-text","trial_index":26,"time_elapsed":161973,"internal_node_id":"0.0-3.0-0.5","prolific_id":"6325d8654a2844488ae84a06","session_id":"643c1af3a5b40b02bb55ceeb","study_id":"64370a36d30bfa807bc7e43c"},{"rt":2544,"response":{"prior knowledge":3,"curiosity":5},"accuracy":[],"trial_type":"survey","trial_index":27,"time_elapsed":164539,"internal_node_id":"0.0-3.0-1.5","prolific_id":"6325d8654a2844488ae84a06","session_id":"643c1af3a5b40b02bb55ceeb","study_id":"64370a36d30bfa807bc7e43c"},{"rt":null,"stimulus":"\n\t\t\t<div class=\"flip_card\">\n\t\t\t\t<div class=\"flip_card_inner\">\n\t\t\t\t\t<div class=\"flip_card_front\">\n\t\t\t\t\t\t<img src=img/21.png>\n\t\t\t\t\t</div>\n\t\t\t\t\t<div class=\"flip_card_back\">\n\t\t\t\t\t\t<h2>How many soccer players should each team have on the field at the start of each match?</h2>\n\t\t\t\t\t\t<br>\n\t\t\t\t\t\t<p>Answer: <strong>11</strong></p>\n\t\t\t\t\t</div>\n\t\t\t\t</div>\n\t\t\t</div>\n\t\t\t","response":null,"trial_type":"html-keyboard-response","trial_index":28,"time_elapsed":169542,"internal_node_id":"0.0-3.0-2.5","prolific_id":"6325d8654a2844488ae84a06","session_id":"643c1af3a5b40b02bb55ceeb","study_id":"64370a36d30bfa807bc7e43c"},{"rt":1070,"stimulus":"\n\t\t\t\t\t<div>\n\t\t\t\t\t<h2>Trial 6 is over</h2>\n\t\t\t\t\t<p>Press <span style=\"color: red\"><strong>any key</strong></span> to continue to the next trial</p>\n\t\t\t\t\t</div>\n\t\t\t\t","response":" ","trial_type":"html-keyboard-response","trial_index":29,"time_elapsed":170612,"internal_node_id":"0.0-3.0-3.5","prolific_id":"6325d8654a2844488ae84a06","session_id":"643c1af3a5b40b02bb55ceeb","study_id":"64370a36d30bfa807bc7e43c"},{"rt":5495,"response":{"prediction":"1991"},"trial_type":"survey-text","trial_index":30,"time_elapsed":176111,"internal_node_id":"0.0-3.0-0.6","prolific_id":"6325d8654a2844488ae84a06","session_id":"643c1af3a5b40b02bb55ceeb","study_id":"64370a36d30bfa807bc7e43c"},{"rt":4546,"response":{"prior knowledge":3,"curiosity":5},"accuracy":[],"trial_type":"survey","trial_index":31,"time_elapsed":180681,"internal_node_id":"0.0-3.0-1.6","prolific_id":"6325d8654a2844488ae84a06","session_id":"643c1af3a5b40b02bb55ceeb","study_id":"64370a36d30bfa807bc7e43c"},{"rt":null,"stimulus":"\n\t\t\t<div class=\"flip_card\">\n\t\t\t\t<div class=\"flip_card_inner\">\n\t\t\t\t\t<div class=\"flip_card_front\">\n\t\t\t\t\t\t<img src=img/10.png>\n\t\t\t\t\t</div>\n\t\t\t\t\t<div class=\"flip_card_back\">\n\t\t\t\t\t\t<h2>What year did the Berlin Wall fall?</h2>\n\t\t\t\t\t\t<br>\n\t\t\t\t\t\t<p>Answer: <strong>1989</strong></p>\n\t\t\t\t\t</div>\n\t\t\t\t</div>\n\t\t\t</div>\n\t\t\t","response":null,"trial_type":"html-keyboard-response","trial_index":32,"time_elapsed":185690,"internal_node_id":"0.0-3.0-2.6","prolific_id":"6325d8654a2844488ae84a06","session_id":"643c1af3a5b40b02bb55ceeb","study_id":"64370a36d30bfa807bc7e43c"},{"rt":826,"stimulus":"\n\t\t\t\t\t<div>\n\t\t\t\t\t<h2>Trial 7 is over</h2>\n\t\t\t\t\t<p>Press <span style=\"color: red\"><strong>any key</strong></span> to continue to the next trial</p>\n\t\t\t\t\t</div>\n\t\t\t\t","response":" ","trial_type":"html-keyboard-response","trial_index":33,"time_elapsed":186517,"internal_node_id":"0.0-3.0-3.6","prolific_id":"6325d8654a2844488ae84a06","session_id":"643c1af3a5b40b02bb55ceeb","study_id":"64370a36d30bfa807bc7e43c"},{"rt":3323,"response":{"prediction":"3"},"trial_type":"survey-text","trial_index":34,"time_elapsed":189843,"internal_node_id":"0.0-3.0-0.7","prolific_id":"6325d8654a2844488ae84a06","session_id":"643c1af3a5b40b02bb55ceeb","study_id":"64370a36d30bfa807bc7e43c"},{"rt":6333,"response":{"prior knowledge":3,"curiosity":3},"accuracy":[],"trial_type":"survey","trial_index":35,"time_elapsed":196200,"internal_node_id":"0.0-3.0-1.7","prolific_id":"6325d8654a2844488ae84a06","session_id":"643c1af3a5b40b02bb55ceeb","study_id":"64370a36d30bfa807bc7e43c"},{"rt":null,"stimulus":"\n\t\t\t<div class=\"flip_card\">\n\t\t\t\t<div class=\"flip_card_inner\">\n\t\t\t\t\t<div class=\"flip_card_front\">\n\t\t\t\t\t\t<img src=img/19.png>\n\t\t\t\t\t</div>\n\t\t\t\t\t<div class=\"flip_card_back\">\n\t\t\t\t\t\t<h2>How many times a day do Muslims pray?</h2>\n\t\t\t\t\t\t<br>\n\t\t\t\t\t\t<p>Answer: <strong>5</strong></p>\n\t\t\t\t\t</div>\n\t\t\t\t</div>\n\t\t\t</div>\n\t\t\t","response":null,"trial_type":"html-keyboard-response","trial_index":36,"time_elapsed":201209,"internal_node_id":"0.0-3.0-2.7","prolific_id":"6325d8654a2844488ae84a06","session_id":"643c1af3a5b40b02bb55ceeb","study_id":"64370a36d30bfa807bc7e43c"},{"rt":624,"stimulus":"\n\t\t\t\t\t<div>\n\t\t\t\t\t<h2>Trial 8 is over</h2>\n\t\t\t\t\t<p>Press <span style=\"color: red\"><strong>any key</strong></span> to continue to the next trial</p>\n\t\t\t\t\t</div>\n\t\t\t\t","response":" ","trial_type":"html-keyboard-response","trial_index":37,"time_elapsed":201834,"internal_node_id":"0.0-3.0-3.7","prolific_id":"6325d8654a2844488ae84a06","session_id":"643c1af3a5b40b02bb55ceeb","study_id":"64370a36d30bfa807bc7e43c"},{"rt":4708,"response":{"prediction":"231"},"trial_type":"survey-text","trial_index":38,"time_elapsed":206551,"internal_node_id":"0.0-3.0-0.8","prolific_id":"6325d8654a2844488ae84a06","session_id":"643c1af3a5b40b02bb55ceeb","study_id":"64370a36d30bfa807bc7e43c"},{"rt":7613,"response":{"prior knowledge":1,"curiosity":5},"accuracy":[],"trial_type":"survey","trial_index":39,"time_elapsed":214182,"internal_node_id":"0.0-3.0-1.8","prolific_id":"6325d8654a2844488ae84a06","session_id":"643c1af3a5b40b02bb55ceeb","study_id":"64370a36d30bfa807bc7e43c"},{"rt":null,"stimulus":"\n\t\t\t<div class=\"flip_card\">\n\t\t\t\t<div class=\"flip_card_inner\">\n\t\t\t\t\t<div class=\"flip_card_front\">\n\t\t\t\t\t\t<img src=img/12.png>\n\t\t\t\t\t</div>\n\t\t\t\t\t<div class=\"flip_card_back\">\n\t\t\t\t\t\t<h2>How many floors are in the Burj Khalifa, the tallest building in the world?</h2>\n\t\t\t\t\t\t<br>\n\t\t\t\t\t\t<p>Answer: <strong>163</strong></p>\n\t\t\t\t\t</div>\n\t\t\t\t</div>\n\t\t\t</div>\n\t\t\t","response":null,"trial_type":"html-keyboard-response","trial_index":40,"time_elapsed":219196,"internal_node_id":"0.0-3.0-2.8","prolific_id":"6325d8654a2844488ae84a06","session_id":"643c1af3a5b40b02bb55ceeb","study_id":"64370a36d30bfa807bc7e43c"},{"rt":13647,"stimulus":"\n\t\t\t\t\t<div>\n\t\t\t\t\t<h2>Trial 9 is over</h2>\n\t\t\t\t\t<p>Press <span style=\"color: red\"><strong>any key</strong></span> to continue to the next trial</p>\n\t\t\t\t\t</div>\n\t\t\t\t","response":" ","trial_type":"html-keyboard-response","trial_index":41,"time_elapsed":232844,"internal_node_id":"0.0-3.0-3.8","prolific_id":"6325d8654a2844488ae84a06","session_id":"643c1af3a5b40b02bb55ceeb","study_id":"64370a36d30bfa807bc7e43c"},{"rt":4358,"response":{"prediction":"0"},"trial_type":"survey-text","trial_index":42,"time_elapsed":237206,"internal_node_id":"0.0-3.0-0.9","prolific_id":"6325d8654a2844488ae84a06","session_id":"643c1af3a5b40b02bb55ceeb","study_id":"64370a36d30bfa807bc7e43c"},{"rt":6259,"response":{"prior knowledge":0,"curiosity":0},"accuracy":[],"trial_type":"survey","trial_index":43,"time_elapsed":243492,"internal_node_id":"0.0-3.0-1.9","prolific_id":"6325d8654a2844488ae84a06","session_id":"643c1af3a5b40b02bb55ceeb","study_id":"64370a36d30bfa807bc7e43c"},{"rt":null,"stimulus":"\n\t\t\t<div class=\"flip_card\">\n\t\t\t\t<div class=\"flip_card_inner\">\n\t\t\t\t\t<div class=\"flip_card_front\">\n\t\t\t\t\t\t<img src=img/3.png>\n\t\t\t\t\t</div>\n\t\t\t\t\t<div class=\"flip_card_back\">\n\t\t\t\t\t\t<h2>How many tones are in the Vietnamese language?</h2>\n\t\t\t\t\t\t<br>\n\t\t\t\t\t\t<p>Answer: <strong>6</strong></p>\n\t\t\t\t\t</div>\n\t\t\t\t</div>\n\t\t\t</div>\n\t\t\t","response":null,"trial_type":"html-keyboard-response","trial_index":44,"time_elapsed":248497,"internal_node_id":"0.0-3.0-2.9","prolific_id":"6325d8654a2844488ae84a06","session_id":"643c1af3a5b40b02bb55ceeb","study_id":"64370a36d30bfa807bc7e43c"},{"rt":776,"stimulus":"\n\t\t\t\t\t<div>\n\t\t\t\t\t<h2>Trial 10 is over</h2>\n\t\t\t\t\t<p>Press <span style=\"color: red\"><strong>any key</strong></span> to continue to the next trial</p>\n\t\t\t\t\t</div>\n\t\t\t\t","response":" ","trial_type":"html-keyboard-response","trial_index":45,"time_elapsed":249275,"internal_node_id":"0.0-3.0-3.9","prolific_id":"6325d8654a2844488ae84a06","session_id":"643c1af3a5b40b02bb55ceeb","study_id":"64370a36d30bfa807bc7e43c"},{"rt":4426,"response":{"prediction":"9"},"trial_type":"survey-text","trial_index":46,"time_elapsed":253706,"internal_node_id":"0.0-3.0-0.10","prolific_id":"6325d8654a2844488ae84a06","session_id":"643c1af3a5b40b02bb55ceeb","study_id":"64370a36d30bfa807bc7e43c"},{"rt":2644,"response":{"prior knowledge":0,"curiosity":0},"accuracy":[],"trial_type":"survey","trial_index":47,"time_elapsed":256375,"internal_node_id":"0.0-3.0-1.10","prolific_id":"6325d8654a2844488ae84a06","session_id":"643c1af3a5b40b02bb55ceeb","study_id":"64370a36d30bfa807bc7e43c"},{"rt":null,"stimulus":"\n\t\t\t<div class=\"flip_card\">\n\t\t\t\t<div class=\"flip_card_inner\">\n\t\t\t\t\t<div class=\"flip_card_front\">\n\t\t\t\t\t\t<img src=img/11.png>\n\t\t\t\t\t</div>\n\t\t\t\t\t<div class=\"flip_card_back\">\n\t\t\t\t\t\t<h2>How many different animals (real or imaginary) are represented in the Chinese calendar?</h2>\n\t\t\t\t\t\t<br>\n\t\t\t\t\t\t<p>Answer: <strong>12</strong></p>\n\t\t\t\t\t</div>\n\t\t\t\t</div>\n\t\t\t</div>\n\t\t\t","response":null,"trial_type":"html-keyboard-response","trial_index":48,"time_elapsed":261391,"internal_node_id":"0.0-3.0-2.10","prolific_id":"6325d8654a2844488ae84a06","session_id":"643c1af3a5b40b02bb55ceeb","study_id":"64370a36d30bfa807bc7e43c"},{"rt":653,"stimulus":"\n\t\t\t\t\t<div>\n\t\t\t\t\t<h2>Trial 11 is over</h2>\n\t\t\t\t\t<p>Press <span style=\"color: red\"><strong>any key</strong></span> to continue to the next trial</p>\n\t\t\t\t\t</div>\n\t\t\t\t","response":" ","trial_type":"html-keyboard-response","trial_index":49,"time_elapsed":262046,"internal_node_id":"0.0-3.0-3.10","prolific_id":"6325d8654a2844488ae84a06","session_id":"643c1af3a5b40b02bb55ceeb","study_id":"64370a36d30bfa807bc7e43c"},{"rt":16968,"response":{"prediction":"13000"},"trial_type":"survey-text","trial_index":50,"time_elapsed":279017,"internal_node_id":"0.0-3.0-0.11","prolific_id":"6325d8654a2844488ae84a06","session_id":"643c1af3a5b40b02bb55ceeb","study_id":"64370a36d30bfa807bc7e43c"},{"rt":4297,"response":{"prior knowledge":3,"curiosity":2},"accuracy":[],"trial_type":"survey","trial_index":51,"time_elapsed":283341,"internal_node_id":"0.0-3.0-1.11","prolific_id":"6325d8654a2844488ae84a06","session_id":"643c1af3a5b40b02bb55ceeb","study_id":"64370a36d30bfa807bc7e43c"},{"rt":null,"stimulus":"\n\t\t\t<div class=\"flip_card\">\n\t\t\t\t<div class=\"flip_card_inner\">\n\t\t\t\t\t<div class=\"flip_card_front\">\n\t\t\t\t\t\t<img src=img/7.png>\n\t\t\t\t\t</div>\n\t\t\t\t\t<div class=\"flip_card_back\">\n\t\t\t\t\t\t<h2>What is the diameter of Earth in miles?</h2>\n\t\t\t\t\t\t<br>\n\t\t\t\t\t\t<p>Answer: <strong>7917.5</strong></p>\n\t\t\t\t\t</div>\n\t\t\t\t</div>\n\t\t\t</div>\n\t\t\t","response":null,"trial_type":"html-keyboard-response","trial_index":52,"time_elapsed":288352,"internal_node_id":"0.0-3.0-2.11","prolific_id":"6325d8654a2844488ae84a06","session_id":"643c1af3a5b40b02bb55ceeb","study_id":"64370a36d30bfa807bc7e43c"},{"rt":924,"stimulus":"\n\t\t\t\t\t<div>\n\t\t\t\t\t<h2>Trial 12 is over</h2>\n\t\t\t\t\t<p>Press <span style=\"color: red\"><strong>any key</strong></span> to continue to the next trial</p>\n\t\t\t\t\t</div>\n\t\t\t\t","response":" ","trial_type":"html-keyboard-response","trial_index":53,"time_elapsed":289277,"internal_node_id":"0.0-3.0-3.11","prolific_id":"6325d8654a2844488ae84a06","session_id":"643c1af3a5b40b02bb55ceeb","study_id":"64370a36d30bfa807bc7e43c"},{"rt":4549,"response":{"prediction":"9"},"trial_type":"survey-text","trial_index":54,"time_elapsed":293829,"internal_node_id":"0.0-3.0-0.12","prolific_id":"6325d8654a2844488ae84a06","session_id":"643c1af3a5b40b02bb55ceeb","study_id":"64370a36d30bfa807bc7e43c"},{"rt":3184,"response":{"prior knowledge":0,"curiosity":0},"accuracy":[],"trial_type":"survey","trial_index":55,"time_elapsed":297042,"internal_node_id":"0.0-3.0-1.12","prolific_id":"6325d8654a2844488ae84a06","session_id":"643c1af3a5b40b02bb55ceeb","study_id":"64370a36d30bfa807bc7e43c"},{"rt":null,"stimulus":"\n\t\t\t<div class=\"flip_card\">\n\t\t\t\t<div class=\"flip_card_inner\">\n\t\t\t\t\t<div class=\"flip_card_front\">\n\t\t\t\t\t\t<img src=img/13.png>\n\t\t\t\t\t</div>\n\t\t\t\t\t<div class=\"flip_card_back\">\n\t\t\t\t\t\t<h2>How many lines are in a sonnet?</h2>\n\t\t\t\t\t\t<br>\n\t\t\t\t\t\t<p>Answer: <strong>14</strong></p>\n\t\t\t\t\t</div>\n\t\t\t\t</div>\n\t\t\t</div>\n\t\t\t","response":null,"trial_type":"html-keyboard-response","trial_index":56,"time_elapsed":302046,"internal_node_id":"0.0-3.0-2.12","prolific_id":"6325d8654a2844488ae84a06","session_id":"643c1af3a5b40b02bb55ceeb","study_id":"64370a36d30bfa807bc7e43c"},{"rt":555,"stimulus":"\n\t\t\t\t\t<div>\n\t\t\t\t\t<h2>Trial 13 is over</h2>\n\t\t\t\t\t<p>Press <span style=\"color: red\"><strong>any key</strong></span> to continue to the next trial</p>\n\t\t\t\t\t</div>\n\t\t\t\t","response":" ","trial_type":"html-keyboard-response","trial_index":57,"time_elapsed":302603,"internal_node_id":"0.0-3.0-3.12","prolific_id":"6325d8654a2844488ae84a06","session_id":"643c1af3a5b40b02bb55ceeb","study_id":"64370a36d30bfa807bc7e43c"},{"rt":4362,"response":{"prediction":"1300"},"trial_type":"survey-text","trial_index":58,"time_elapsed":306967,"internal_node_id":"0.0-3.0-0.13","prolific_id":"6325d8654a2844488ae84a06","session_id":"643c1af3a5b40b02bb55ceeb","study_id":"64370a36d30bfa807bc7e43c"},{"rt":4650,"response":{"prior knowledge":0,"curiosity":3},"accuracy":[],"trial_type":"survey","trial_index":59,"time_elapsed":311647,"internal_node_id":"0.0-3.0-1.13","prolific_id":"6325d8654a2844488ae84a06","session_id":"643c1af3a5b40b02bb55ceeb","study_id":"64370a36d30bfa807bc7e43c"},{"rt":null,"stimulus":"\n\t\t\t<div class=\"flip_card\">\n\t\t\t\t<div class=\"flip_card_inner\">\n\t\t\t\t\t<div class=\"flip_card_front\">\n\t\t\t\t\t\t<img src=img/26.png>\n\t\t\t\t\t</div>\n\t\t\t\t\t<div class=\"flip_card_back\">\n\t\t\t\t\t\t<h2>How long is the Great Wall of China (in miles)?</h2>\n\t\t\t\t\t\t<br>\n\t\t\t\t\t\t<p>Answer: <strong>13171</strong></p>\n\t\t\t\t\t</div>\n\t\t\t\t</div>\n\t\t\t</div>\n\t\t\t","response":null,"trial_type":"html-keyboard-response","trial_index":60,"time_elapsed":316664,"internal_node_id":"0.0-3.0-2.13","prolific_id":"6325d8654a2844488ae84a06","session_id":"643c1af3a5b40b02bb55ceeb","study_id":"64370a36d30bfa807bc7e43c"},{"rt":5363,"stimulus":"\n\t\t\t\t\t<div>\n\t\t\t\t\t<h2>Trial 14 is over</h2>\n\t\t\t\t\t<p>Press <span style=\"color: red\"><strong>any key</strong></span> to continue to the next trial</p>\n\t\t\t\t\t</div>\n\t\t\t\t","response":" ","trial_type":"html-keyboard-response","trial_index":61,"time_elapsed":322029,"internal_node_id":"0.0-3.0-3.13","prolific_id":"6325d8654a2844488ae84a06","session_id":"643c1af3a5b40b02bb55ceeb","study_id":"64370a36d30bfa807bc7e43c"},{"rt":4562,"response":{"prediction":"3"},"trial_type":"survey-text","trial_index":62,"time_elapsed":326593,"internal_node_id":"0.0-3.0-0.14","prolific_id":"6325d8654a2844488ae84a06","session_id":"643c1af3a5b40b02bb55ceeb","study_id":"64370a36d30bfa807bc7e43c"},{"rt":4584,"response":{"prior knowledge":0,"curiosity":2},"accuracy":[],"trial_type":"survey","trial_index":63,"time_elapsed":331200,"internal_node_id":"0.0-3.0-1.14","prolific_id":"6325d8654a2844488ae84a06","session_id":"643c1af3a5b40b02bb55ceeb","study_id":"64370a36d30bfa807bc7e43c"},{"rt":null,"stimulus":"\n\t\t\t<div class=\"flip_card\">\n\t\t\t\t<div class=\"flip_card_inner\">\n\t\t\t\t\t<div class=\"flip_card_front\">\n\t\t\t\t\t\t<img src=img/16.png>\n\t\t\t\t\t</div>\n\t\t\t\t\t<div class=\"flip_card_back\">\n\t\t\t\t\t\t<h2>How many native species of kangaroos are found in Australia?</h2>\n\t\t\t\t\t\t<br>\n\t\t\t\t\t\t<p>Answer: <strong>4</strong></p>\n\t\t\t\t\t</div>\n\t\t\t\t</div>\n\t\t\t</div>\n\t\t\t","response":null,"trial_type":"html-keyboard-response","trial_index":64,"time_elapsed":336212,"internal_node_id":"0.0-3.0-2.14","prolific_id":"6325d8654a2844488ae84a06","session_id":"643c1af3a5b40b02bb55ceeb","study_id":"64370a36d30bfa807bc7e43c"},{"rt":724,"stimulus":"\n\t\t\t\t\t<div>\n\t\t\t\t\t<h2>Trial 15 is over</h2>\n\t\t\t\t\t<p>Press <span style=\"color: red\"><strong>any key</strong></span> to continue to the next trial</p>\n\t\t\t\t\t</div>\n\t\t\t\t","response":" ","trial_type":"html-keyboard-response","trial_index":65,"time_elapsed":336938,"internal_node_id":"0.0-3.0-3.14","prolific_id":"6325d8654a2844488ae84a06","session_id":"643c1af3a5b40b02bb55ceeb","study_id":"64370a36d30bfa807bc7e43c"},{"rt":4094,"response":{"prediction":"46"},"trial_type":"survey-text","trial_index":66,"time_elapsed":341035,"internal_node_id":"0.0-3.0-0.15","prolific_id":"6325d8654a2844488ae84a06","session_id":"643c1af3a5b40b02bb55ceeb","study_id":"64370a36d30bfa807bc7e43c"},{"rt":2722,"response":{"prior knowledge":1,"curiosity":2},"accuracy":[],"trial_type":"survey","trial_index":67,"time_elapsed":343783,"internal_node_id":"0.0-3.0-1.15","prolific_id":"6325d8654a2844488ae84a06","session_id":"643c1af3a5b40b02bb55ceeb","study_id":"64370a36d30bfa807bc7e43c"},{"rt":null,"stimulus":"\n\t\t\t<div class=\"flip_card\">\n\t\t\t\t<div class=\"flip_card_inner\">\n\t\t\t\t\t<div class=\"flip_card_front\">\n\t\t\t\t\t\t<img src=img/18.png>\n\t\t\t\t\t</div>\n\t\t\t\t\t<div class=\"flip_card_back\">\n\t\t\t\t\t\t<h2>How many countries are in Africa?</h2>\n\t\t\t\t\t\t<br>\n\t\t\t\t\t\t<p>Answer: <strong>54</strong></p>\n\t\t\t\t\t</div>\n\t\t\t\t</div>\n\t\t\t</div>\n\t\t\t","response":null,"trial_type":"html-keyboard-response","trial_index":68,"time_elapsed":348799,"internal_node_id":"0.0-3.0-2.15","prolific_id":"6325d8654a2844488ae84a06","session_id":"643c1af3a5b40b02bb55ceeb","study_id":"64370a36d30bfa807bc7e43c"},{"rt":12418,"stimulus":"\n\t\t\t\t\t<div>\n\t\t\t\t\t<h2>Trial 16 is over</h2>\n\t\t\t\t\t<p>Press <span style=\"color: red\"><strong>any key</strong></span> to continue to the next trial</p>\n\t\t\t\t\t</div>\n\t\t\t\t","response":" ","trial_type":"html-keyboard-response","trial_index":69,"time_elapsed":361218,"internal_node_id":"0.0-3.0-3.15","prolific_id":"6325d8654a2844488ae84a06","session_id":"643c1af3a5b40b02bb55ceeb","study_id":"64370a36d30bfa807bc7e43c"},{"rt":4884,"response":{"prediction":"1840"},"trial_type":"survey-text","trial_index":70,"time_elapsed":366106,"internal_node_id":"0.0-3.0-0.16","prolific_id":"6325d8654a2844488ae84a06","session_id":"643c1af3a5b40b02bb55ceeb","study_id":"64370a36d30bfa807bc7e43c"},{"rt":2337,"response":{"prior knowledge":0,"curiosity":0},"accuracy":[],"trial_type":"survey","trial_index":71,"time_elapsed":368472,"internal_node_id":"0.0-3.0-1.16","prolific_id":"6325d8654a2844488ae84a06","session_id":"643c1af3a5b40b02bb55ceeb","study_id":"64370a36d30bfa807bc7e43c"},{"rt":null,"stimulus":"\n\t\t\t<div class=\"flip_card\">\n\t\t\t\t<div class=\"flip_card_inner\">\n\t\t\t\t\t<div class=\"flip_card_front\">\n\t\t\t\t\t\t<img src=img/30.png>\n\t\t\t\t\t</div>\n\t\t\t\t\t<div class=\"flip_card_back\">\n\t\t\t\t\t\t<h2>In what year was the Mexican artist Frida Kahlo born?</h2>\n\t\t\t\t\t\t<br>\n\t\t\t\t\t\t<p>Answer: <strong>1907</strong></p>\n\t\t\t\t\t</div>\n\t\t\t\t</div>\n\t\t\t</div>\n\t\t\t","response":null,"trial_type":"html-keyboard-response","trial_index":72,"time_elapsed":373482,"internal_node_id":"0.0-3.0-2.16","prolific_id":"6325d8654a2844488ae84a06","session_id":"643c1af3a5b40b02bb55ceeb","study_id":"64370a36d30bfa807bc7e43c"},{"rt":1791,"stimulus":"\n\t\t\t\t\t<div>\n\t\t\t\t\t<h2>Trial 17 is over</h2>\n\t\t\t\t\t<p>Press <span style=\"color: red\"><strong>any key</strong></span> to continue to the next trial</p>\n\t\t\t\t\t</div>\n\t\t\t\t","response":" ","trial_type":"html-keyboard-response","trial_index":73,"time_elapsed":375274,"internal_node_id":"0.0-3.0-3.16","prolific_id":"6325d8654a2844488ae84a06","session_id":"643c1af3a5b40b02bb55ceeb","study_id":"64370a36d30bfa807bc7e43c"},{"rt":3825,"response":{"prediction":"1791"},"trial_type":"survey-text","trial_index":74,"time_elapsed":379102,"internal_node_id":"0.0-3.0-0.17","prolific_id":"6325d8654a2844488ae84a06","session_id":"643c1af3a5b40b02bb55ceeb","study_id":"64370a36d30bfa807bc7e43c"},{"rt":2340,"response":{"prior knowledge":0,"curiosity":0},"accuracy":[],"trial_type":"survey","trial_index":75,"time_elapsed":381467,"internal_node_id":"0.0-3.0-1.17","prolific_id":"6325d8654a2844488ae84a06","session_id":"643c1af3a5b40b02bb55ceeb","study_id":"64370a36d30bfa807bc7e43c"},{"rt":null,"stimulus":"\n\t\t\t<div class=\"flip_card\">\n\t\t\t\t<div class=\"flip_card_inner\">\n\t\t\t\t\t<div class=\"flip_card_front\">\n\t\t\t\t\t\t<img src=img/15.png>\n\t\t\t\t\t</div>\n\t\t\t\t\t<div class=\"flip_card_back\">\n\t\t\t\t\t\t<h2>In what year was the first Nobel Prize awarded?</h2>\n\t\t\t\t\t\t<br>\n\t\t\t\t\t\t<p>Answer: <strong>1901</strong></p>\n\t\t\t\t\t</div>\n\t\t\t\t</div>\n\t\t\t</div>\n\t\t\t","response":null,"trial_type":"html-keyboard-response","trial_index":76,"time_elapsed":386479,"internal_node_id":"0.0-3.0-2.17","prolific_id":"6325d8654a2844488ae84a06","session_id":"643c1af3a5b40b02bb55ceeb","study_id":"64370a36d30bfa807bc7e43c"},{"rt":1328,"stimulus":"\n\t\t\t\t\t<div>\n\t\t\t\t\t<h2>Trial 18 is over</h2>\n\t\t\t\t\t<p>Press <span style=\"color: red\"><strong>any key</strong></span> to continue to the next trial</p>\n\t\t\t\t\t</div>\n\t\t\t\t","response":" ","trial_type":"html-keyboard-response","trial_index":77,"time_elapsed":387808,"internal_node_id":"0.0-3.0-3.17","prolific_id":"6325d8654a2844488ae84a06","session_id":"643c1af3a5b40b02bb55ceeb","study_id":"64370a36d30bfa807bc7e43c"},{"rt":3528,"response":{"prediction":"4"},"trial_type":"survey-text","trial_index":78,"time_elapsed":391341,"internal_node_id":"0.0-3.0-0.18","prolific_id":"6325d8654a2844488ae84a06","session_id":"643c1af3a5b40b02bb55ceeb","study_id":"64370a36d30bfa807bc7e43c"},{"rt":2558,"response":{"prior knowledge":0,"curiosity":2},"accuracy":[],"trial_type":"survey","trial_index":79,"time_elapsed":393925,"internal_node_id":"0.0-3.0-1.18","prolific_id":"6325d8654a2844488ae84a06","session_id":"643c1af3a5b40b02bb55ceeb","study_id":"64370a36d30bfa807bc7e43c"},{"rt":null,"stimulus":"\n\t\t\t<div class=\"flip_card\">\n\t\t\t\t<div class=\"flip_card_inner\">\n\t\t\t\t\t<div class=\"flip_card_front\">\n\t\t\t\t\t\t<img src=img/27.png>\n\t\t\t\t\t</div>\n\t\t\t\t\t<div class=\"flip_card_back\">\n\t\t\t\t\t\t<h2>How many moons does Neptune have?</h2>\n\t\t\t\t\t\t<br>\n\t\t\t\t\t\t<p>Answer: <strong>14</strong></p>\n\t\t\t\t\t</div>\n\t\t\t\t</div>\n\t\t\t</div>\n\t\t\t","response":null,"trial_type":"html-keyboard-response","trial_index":80,"time_elapsed":398926,"internal_node_id":"0.0-3.0-2.18","prolific_id":"6325d8654a2844488ae84a06","session_id":"643c1af3a5b40b02bb55ceeb","study_id":"64370a36d30bfa807bc7e43c"},{"rt":608,"stimulus":"\n\t\t\t\t\t<div>\n\t\t\t\t\t<h2>Trial 19 is over</h2>\n\t\t\t\t\t<p>Press <span style=\"color: red\"><strong>any key</strong></span> to continue to the next trial</p>\n\t\t\t\t\t</div>\n\t\t\t\t","response":" ","trial_type":"html-keyboard-response","trial_index":81,"time_elapsed":399535,"internal_node_id":"0.0-3.0-3.18","prolific_id":"6325d8654a2844488ae84a06","session_id":"643c1af3a5b40b02bb55ceeb","study_id":"64370a36d30bfa807bc7e43c"},{"rt":7274,"response":{"prediction":"1899"},"trial_type":"survey-text","trial_index":82,"time_elapsed":406813,"internal_node_id":"0.0-3.0-0.19","prolific_id":"6325d8654a2844488ae84a06","session_id":"643c1af3a5b40b02bb55ceeb","study_id":"64370a36d30bfa807bc7e43c"},{"rt":2470,"response":{"prior knowledge":0,"curiosity":3},"accuracy":[],"trial_type":"survey","trial_index":83,"time_elapsed":409307,"internal_node_id":"0.0-3.0-1.19","prolific_id":"6325d8654a2844488ae84a06","session_id":"643c1af3a5b40b02bb55ceeb","study_id":"64370a36d30bfa807bc7e43c"},{"rt":null,"stimulus":"\n\t\t\t<div class=\"flip_card\">\n\t\t\t\t<div class=\"flip_card_inner\">\n\t\t\t\t\t<div class=\"flip_card_front\">\n\t\t\t\t\t\t<img src=img/2.png>\n\t\t\t\t\t</div>\n\t\t\t\t\t<div class=\"flip_card_back\">\n\t\t\t\t\t\t<h2>What year did the titanic sink?</h2>\n\t\t\t\t\t\t<br>\n\t\t\t\t\t\t<p>Answer: <strong>1912</strong></p>\n\t\t\t\t\t</div>\n\t\t\t\t</div>\n\t\t\t</div>\n\t\t\t","response":null,"trial_type":"html-keyboard-response","trial_index":84,"time_elapsed":414320,"internal_node_id":"0.0-3.0-2.19","prolific_id":"6325d8654a2844488ae84a06","session_id":"643c1af3a5b40b02bb55ceeb","study_id":"64370a36d30bfa807bc7e43c"},{"rt":678,"stimulus":"\n\t\t\t\t\t<div>\n\t\t\t\t\t<h2>Trial 20 is over</h2>\n\t\t\t\t\t<p>Press <span style=\"color: red\"><strong>any key</strong></span> to continue to the next trial</p>\n\t\t\t\t\t</div>\n\t\t\t\t","response":" ","trial_type":"html-keyboard-response","trial_index":85,"time_elapsed":414998,"internal_node_id":"0.0-3.0-3.19","prolific_id":"6325d8654a2844488ae84a06","session_id":"643c1af3a5b40b02bb55ceeb","study_id":"64370a36d30bfa807bc7e43c"},{"rt":3794,"response":{"prediction":"2008"},"trial_type":"survey-text","trial_index":86,"time_elapsed":418796,"internal_node_id":"0.0-3.0-0.20","prolific_id":"6325d8654a2844488ae84a06","session_id":"643c1af3a5b40b02bb55ceeb","study_id":"64370a36d30bfa807bc7e43c"},{"rt":2271,"response":{"prior knowledge":5,"curiosity":5},"accuracy":[],"trial_type":"survey","trial_index":87,"time_elapsed":421092,"internal_node_id":"0.0-3.0-1.20","prolific_id":"6325d8654a2844488ae84a06","session_id":"643c1af3a5b40b02bb55ceeb","study_id":"64370a36d30bfa807bc7e43c"},{"rt":null,"stimulus":"\n\t\t\t<div class=\"flip_card\">\n\t\t\t\t<div class=\"flip_card_inner\">\n\t\t\t\t\t<div class=\"flip_card_front\">\n\t\t\t\t\t\t<img src=img/14.png>\n\t\t\t\t\t</div>\n\t\t\t\t\t<div class=\"flip_card_back\">\n\t\t\t\t\t\t<h2>What year was the very first model of the iPhone released?</h2>\n\t\t\t\t\t\t<br>\n\t\t\t\t\t\t<p>Answer: <strong>2007</strong></p>\n\t\t\t\t\t</div>\n\t\t\t\t</div>\n\t\t\t</div>\n\t\t\t","response":null,"trial_type":"html-keyboard-response","trial_index":88,"time_elapsed":426108,"internal_node_id":"0.0-3.0-2.20","prolific_id":"6325d8654a2844488ae84a06","session_id":"643c1af3a5b40b02bb55ceeb","study_id":"64370a36d30bfa807bc7e43c"},{"rt":1511,"stimulus":"\n\t\t\t\t\t<div>\n\t\t\t\t\t<h2>Trial 21 is over</h2>\n\t\t\t\t\t<p>Press <span style=\"color: red\"><strong>any key</strong></span> to continue to the next trial</p>\n\t\t\t\t\t</div>\n\t\t\t\t","response":" ","trial_type":"html-keyboard-response","trial_index":89,"time_elapsed":427620,"internal_node_id":"0.0-3.0-3.20","prolific_id":"6325d8654a2844488ae84a06","session_id":"643c1af3a5b40b02bb55ceeb","study_id":"64370a36d30bfa807bc7e43c"},{"rt":5213,"response":{"prediction":"1940"},"trial_type":"survey-text","trial_index":90,"time_elapsed":432838,"internal_node_id":"0.0-3.0-0.21","prolific_id":"6325d8654a2844488ae84a06","session_id":"643c1af3a5b40b02bb55ceeb","study_id":"64370a36d30bfa807bc7e43c"},{"rt":2457,"response":{"prior knowledge":0,"curiosity":0},"accuracy":[],"trial_type":"survey","trial_index":91,"time_elapsed":435321,"internal_node_id":"0.0-3.0-1.21","prolific_id":"6325d8654a2844488ae84a06","session_id":"643c1af3a5b40b02bb55ceeb","study_id":"64370a36d30bfa807bc7e43c"},{"rt":null,"stimulus":"\n\t\t\t<div class=\"flip_card\">\n\t\t\t\t<div class=\"flip_card_inner\">\n\t\t\t\t\t<div class=\"flip_card_front\">\n\t\t\t\t\t\t<img src=img/20.png>\n\t\t\t\t\t</div>\n\t\t\t\t\t<div class=\"flip_card_back\">\n\t\t\t\t\t\t<h2>In what year did the first Modern Olympic Games take place?</h2>\n\t\t\t\t\t\t<br>\n\t\t\t\t\t\t<p>Answer: <strong>1896</strong></p>\n\t\t\t\t\t</div>\n\t\t\t\t</div>\n\t\t\t</div>\n\t\t\t","response":null,"trial_type":"html-keyboard-response","trial_index":92,"time_elapsed":440330,"internal_node_id":"0.0-3.0-2.21","prolific_id":"6325d8654a2844488ae84a06","session_id":"643c1af3a5b40b02bb55ceeb","study_id":"64370a36d30bfa807bc7e43c"},{"rt":546,"stimulus":"\n\t\t\t\t\t<div>\n\t\t\t\t\t<h2>Trial 22 is over</h2>\n\t\t\t\t\t<p>Press <span style=\"color: red\"><strong>any key</strong></span> to continue to the next trial</p>\n\t\t\t\t\t</div>\n\t\t\t\t","response":" ","trial_type":"html-keyboard-response","trial_index":93,"time_elapsed":440877,"internal_node_id":"0.0-3.0-3.21","prolific_id":"6325d8654a2844488ae84a06","session_id":"643c1af3a5b40b02bb55ceeb","study_id":"64370a36d30bfa807bc7e43c"},{"rt":3446,"response":{"prediction":"16"},"trial_type":"survey-text","trial_index":94,"time_elapsed":444327,"internal_node_id":"0.0-3.0-0.22","prolific_id":"6325d8654a2844488ae84a06","session_id":"643c1af3a5b40b02bb55ceeb","study_id":"64370a36d30bfa807bc7e43c"},{"rt":2811,"response":{"prior knowledge":1,"curiosity":3},"accuracy":[],"trial_type":"survey","trial_index":95,"time_elapsed":447163,"internal_node_id":"0.0-3.0-1.22","prolific_id":"6325d8654a2844488ae84a06","session_id":"643c1af3a5b40b02bb55ceeb","study_id":"64370a36d30bfa807bc7e43c"},{"rt":null,"stimulus":"\n\t\t\t<div class=\"flip_card\">\n\t\t\t\t<div class=\"flip_card_inner\">\n\t\t\t\t\t<div class=\"flip_card_front\">\n\t\t\t\t\t\t<img src=img/22.png>\n\t\t\t\t\t</div>\n\t\t\t\t\t<div class=\"flip_card_back\">\n\t\t\t\t\t\t<h2>How old was King Tut when he died?</h2>\n\t\t\t\t\t\t<br>\n\t\t\t\t\t\t<p>Answer: <strong>19</strong></p>\n\t\t\t\t\t</div>\n\t\t\t\t</div>\n\t\t\t</div>\n\t\t\t","response":null,"trial_type":"html-keyboard-response","trial_index":96,"time_elapsed":452168,"internal_node_id":"0.0-3.0-2.22","prolific_id":"6325d8654a2844488ae84a06","session_id":"643c1af3a5b40b02bb55ceeb","study_id":"64370a36d30bfa807bc7e43c"},{"rt":516,"stimulus":"\n\t\t\t\t\t<div>\n\t\t\t\t\t<h2>Trial 23 is over</h2>\n\t\t\t\t\t<p>Press <span style=\"color: red\"><strong>any key</strong></span> to continue to the next trial</p>\n\t\t\t\t\t</div>\n\t\t\t\t","response":" ","trial_type":"html-keyboard-response","trial_index":97,"time_elapsed":452685,"internal_node_id":"0.0-3.0-3.22","prolific_id":"6325d8654a2844488ae84a06","session_id":"643c1af3a5b40b02bb55ceeb","study_id":"64370a36d30bfa807bc7e43c"},{"rt":3248,"response":{"prediction":"13"},"trial_type":"survey-text","trial_index":98,"time_elapsed":455942,"internal_node_id":"0.0-3.0-0.23","prolific_id":"6325d8654a2844488ae84a06","session_id":"643c1af3a5b40b02bb55ceeb","study_id":"64370a36d30bfa807bc7e43c"},{"rt":3408,"response":{"prior knowledge":5,"curiosity":5},"accuracy":[],"trial_type":"survey","trial_index":99,"time_elapsed":459374,"internal_node_id":"0.0-3.0-1.23","prolific_id":"6325d8654a2844488ae84a06","session_id":"643c1af3a5b40b02bb55ceeb","study_id":"64370a36d30bfa807bc7e43c"},{"rt":null,"stimulus":"\n\t\t\t<div class=\"flip_card\">\n\t\t\t\t<div class=\"flip_card_inner\">\n\t\t\t\t\t<div class=\"flip_card_front\">\n\t\t\t\t\t\t<img src=img/28.png>\n\t\t\t\t\t</div>\n\t\t\t\t\t<div class=\"flip_card_back\">\n\t\t\t\t\t\t<h2>How much is in a Baker's Dozen?</h2>\n\t\t\t\t\t\t<br>\n\t\t\t\t\t\t<p>Answer: <strong>13</strong></p>\n\t\t\t\t\t</div>\n\t\t\t\t</div>\n\t\t\t</div>\n\t\t\t","response":null,"trial_type":"html-keyboard-response","trial_index":100,"time_elapsed":464387,"internal_node_id":"0.0-3.0-2.23","prolific_id":"6325d8654a2844488ae84a06","session_id":"643c1af3a5b40b02bb55ceeb","study_id":"64370a36d30bfa807bc7e43c"},{"rt":1703,"stimulus":"\n\t\t\t\t\t<div>\n\t\t\t\t\t<h2>Trial 24 is over</h2>\n\t\t\t\t\t<p>Press <span style=\"color: red\"><strong>any key</strong></span> to continue to the next trial</p>\n\t\t\t\t\t</div>\n\t\t\t\t","response":" ","trial_type":"html-keyboard-response","trial_index":101,"time_elapsed":466090,"internal_node_id":"0.0-3.0-3.23","prolific_id":"6325d8654a2844488ae84a06","session_id":"643c1af3a5b40b02bb55ceeb","study_id":"64370a36d30bfa807bc7e43c"},{"rt":4017,"response":{"prediction":"36"},"trial_type":"survey-text","trial_index":102,"time_elapsed":470112,"internal_node_id":"0.0-3.0-0.24","prolific_id":"6325d8654a2844488ae84a06","session_id":"643c1af3a5b40b02bb55ceeb","study_id":"64370a36d30bfa807bc7e43c"},{"rt":1734,"response":{"prior knowledge":0,"curiosity":0},"accuracy":[],"trial_type":"survey","trial_index":103,"time_elapsed":471859,"internal_node_id":"0.0-3.0-1.24","prolific_id":"6325d8654a2844488ae84a06","session_id":"643c1af3a5b40b02bb55ceeb","study_id":"64370a36d30bfa807bc7e43c"},{"rt":null,"stimulus":"\n\t\t\t<div class=\"flip_card\">\n\t\t\t\t<div class=\"flip_card_inner\">\n\t\t\t\t\t<div class=\"flip_card_front\">\n\t\t\t\t\t\t<img src=img/4.png>\n\t\t\t\t\t</div>\n\t\t\t\t\t<div class=\"flip_card_back\">\n\t\t\t\t\t\t<h2>How many bones is a human baby born with?</h2>\n\t\t\t\t\t\t<br>\n\t\t\t\t\t\t<p>Answer: <strong>300</strong></p>\n\t\t\t\t\t</div>\n\t\t\t\t</div>\n\t\t\t</div>\n\t\t\t","response":null,"trial_type":"html-keyboard-response","trial_index":104,"time_elapsed":476877,"internal_node_id":"0.0-3.0-2.24","prolific_id":"6325d8654a2844488ae84a06","session_id":"643c1af3a5b40b02bb55ceeb","study_id":"64370a36d30bfa807bc7e43c"},{"rt":520,"stimulus":"\n\t\t\t\t\t<div>\n\t\t\t\t\t<h2>Trial 25 is over</h2>\n\t\t\t\t\t<p>Press <span style=\"color: red\"><strong>any key</strong></span> to continue to the next trial</p>\n\t\t\t\t\t</div>\n\t\t\t\t","response":" ","trial_type":"html-keyboard-response","trial_index":105,"time_elapsed":477398,"internal_node_id":"0.0-3.0-3.24","prolific_id":"6325d8654a2844488ae84a06","session_id":"643c1af3a5b40b02bb55ceeb","study_id":"64370a36d30bfa807bc7e43c"},{"rt":4039,"response":{"prediction":"40"},"trial_type":"survey-text","trial_index":106,"time_elapsed":481444,"internal_node_id":"0.0-3.0-0.25","prolific_id":"6325d8654a2844488ae84a06","session_id":"643c1af3a5b40b02bb55ceeb","study_id":"64370a36d30bfa807bc7e43c"},{"rt":1506,"response":{"prior knowledge":0,"curiosity":1},"accuracy":[],"trial_type":"survey","trial_index":107,"time_elapsed":482975,"internal_node_id":"0.0-3.0-1.25","prolific_id":"6325d8654a2844488ae84a06","session_id":"643c1af3a5b40b02bb55ceeb","study_id":"64370a36d30bfa807bc7e43c"},{"rt":null,"stimulus":"\n\t\t\t<div class=\"flip_card\">\n\t\t\t\t<div class=\"flip_card_inner\">\n\t\t\t\t\t<div class=\"flip_card_front\">\n\t\t\t\t\t\t<img src=img/5.png>\n\t\t\t\t\t</div>\n\t\t\t\t\t<div class=\"flip_card_back\">\n\t\t\t\t\t\t<h2>How many double stitches does a baseball have?</h2>\n\t\t\t\t\t\t<br>\n\t\t\t\t\t\t<p>Answer: <strong>108</strong></p>\n\t\t\t\t\t</div>\n\t\t\t\t</div>\n\t\t\t</div>\n\t\t\t","response":null,"trial_type":"html-keyboard-response","trial_index":108,"time_elapsed":487986,"internal_node_id":"0.0-3.0-2.25","prolific_id":"6325d8654a2844488ae84a06","session_id":"643c1af3a5b40b02bb55ceeb","study_id":"64370a36d30bfa807bc7e43c"},{"rt":5251,"stimulus":"\n\t\t\t\t\t<div>\n\t\t\t\t\t<h2>Trial 26 is over</h2>\n\t\t\t\t\t<p>Press <span style=\"color: red\"><strong>any key</strong></span> to continue to the next trial</p>\n\t\t\t\t\t</div>\n\t\t\t\t","response":" ","trial_type":"html-keyboard-response","trial_index":109,"time_elapsed":493238,"internal_node_id":"0.0-3.0-3.25","prolific_id":"6325d8654a2844488ae84a06","session_id":"643c1af3a5b40b02bb55ceeb","study_id":"64370a36d30bfa807bc7e43c"},{"rt":5337,"response":{"prediction":"100"},"trial_type":"survey-text","trial_index":110,"time_elapsed":498578,"internal_node_id":"0.0-3.0-0.26","prolific_id":"6325d8654a2844488ae84a06","session_id":"643c1af3a5b40b02bb55ceeb","study_id":"64370a36d30bfa807bc7e43c"},{"rt":5630,"response":{"prior knowledge":0,"curiosity":0},"accuracy":[],"trial_type":"survey","trial_index":111,"time_elapsed":504238,"internal_node_id":"0.0-3.0-1.26","prolific_id":"6325d8654a2844488ae84a06","session_id":"643c1af3a5b40b02bb55ceeb","study_id":"64370a36d30bfa807bc7e43c"},{"rt":null,"stimulus":"\n\t\t\t<div class=\"flip_card\">\n\t\t\t\t<div class=\"flip_card_inner\">\n\t\t\t\t\t<div class=\"flip_card_front\">\n\t\t\t\t\t\t<img src=img/9.png>\n\t\t\t\t\t</div>\n\t\t\t\t\t<div class=\"flip_card_back\">\n\t\t\t\t\t\t<h2>How many people are vegan globally (in millions)?</h2>\n\t\t\t\t\t\t<br>\n\t\t\t\t\t\t<p>Answer: <strong>79</strong></p>\n\t\t\t\t\t</div>\n\t\t\t\t</div>\n\t\t\t</div>\n\t\t\t","response":null,"trial_type":"html-keyboard-response","trial_index":112,"time_elapsed":509252,"internal_node_id":"0.0-3.0-2.26","prolific_id":"6325d8654a2844488ae84a06","session_id":"643c1af3a5b40b02bb55ceeb","study_id":"64370a36d30bfa807bc7e43c"},{"rt":600,"stimulus":"\n\t\t\t\t\t<div>\n\t\t\t\t\t<h2>Trial 27 is over</h2>\n\t\t\t\t\t<p>Press <span style=\"color: red\"><strong>any key</strong></span> to continue to the next trial</p>\n\t\t\t\t\t</div>\n\t\t\t\t","response":" ","trial_type":"html-keyboard-response","trial_index":113,"time_elapsed":509852,"internal_node_id":"0.0-3.0-3.26","prolific_id":"6325d8654a2844488ae84a06","session_id":"643c1af3a5b40b02bb55ceeb","study_id":"64370a36d30bfa807bc7e43c"},{"rt":7076,"response":{"prediction":"13"},"trial_type":"survey-text","trial_index":114,"time_elapsed":516934,"internal_node_id":"0.0-3.0-0.27","prolific_id":"6325d8654a2844488ae84a06","session_id":"643c1af3a5b40b02bb55ceeb","study_id":"64370a36d30bfa807bc7e43c"},{"rt":4726,"response":{"prior knowledge":1,"curiosity":0},"accuracy":[],"trial_type":"survey","trial_index":115,"time_elapsed":521686,"internal_node_id":"0.0-3.0-1.27","prolific_id":"6325d8654a2844488ae84a06","session_id":"643c1af3a5b40b02bb55ceeb","study_id":"64370a36d30bfa807bc7e43c"},{"rt":null,"stimulus":"\n\t\t\t<div class=\"flip_card\">\n\t\t\t\t<div class=\"flip_card_inner\">\n\t\t\t\t\t<div class=\"flip_card_front\">\n\t\t\t\t\t\t<img src=img/8.png>\n\t\t\t\t\t</div>\n\t\t\t\t\t<div class=\"flip_card_back\">\n\t\t\t\t\t\t<h2>A bar mitzvah is traditionally celebrated when Jewish males turn what age?</h2>\n\t\t\t\t\t\t<br>\n\t\t\t\t\t\t<p>Answer: <strong>13</strong></p>\n\t\t\t\t\t</div>\n\t\t\t\t</div>\n\t\t\t</div>\n\t\t\t","response":null,"trial_type":"html-keyboard-response","trial_index":116,"time_elapsed":526688,"internal_node_id":"0.0-3.0-2.27","prolific_id":"6325d8654a2844488ae84a06","session_id":"643c1af3a5b40b02bb55ceeb","study_id":"64370a36d30bfa807bc7e43c"},{"rt":2081,"stimulus":"\n\t\t\t\t\t<div>\n\t\t\t\t\t<h2>Trial 28 is over</h2>\n\t\t\t\t\t<p>Press <span style=\"color: red\"><strong>any key</strong></span> to continue to the next trial</p>\n\t\t\t\t\t</div>\n\t\t\t\t","response":" ","trial_type":"html-keyboard-response","trial_index":117,"time_elapsed":528770,"internal_node_id":"0.0-3.0-3.27","prolific_id":"6325d8654a2844488ae84a06","session_id":"643c1af3a5b40b02bb55ceeb","study_id":"64370a36d30bfa807bc7e43c"},{"rt":3616,"response":{"prediction":"5"},"trial_type":"survey-text","trial_index":118,"time_elapsed":532388,"internal_node_id":"0.0-3.0-0.28","prolific_id":"6325d8654a2844488ae84a06","session_id":"643c1af3a5b40b02bb55ceeb","study_id":"64370a36d30bfa807bc7e43c"},{"rt":2143,"response":{"prior knowledge":0,"curiosity":0},"accuracy":[],"trial_type":"survey","trial_index":119,"time_elapsed":534555,"internal_node_id":"0.0-3.0-1.28","prolific_id":"6325d8654a2844488ae84a06","session_id":"643c1af3a5b40b02bb55ceeb","study_id":"64370a36d30bfa807bc7e43c"},{"rt":null,"stimulus":"\n\t\t\t<div class=\"flip_card\">\n\t\t\t\t<div class=\"flip_card_inner\">\n\t\t\t\t\t<div class=\"flip_card_front\">\n\t\t\t\t\t\t<img src=img/1.png>\n\t\t\t\t\t</div>\n\t\t\t\t\t<div class=\"flip_card_back\">\n\t\t\t\t\t\t<h2>How many main islands make up Japan?</h2>\n\t\t\t\t\t\t<br>\n\t\t\t\t\t\t<p>Answer: <strong>4</strong></p>\n\t\t\t\t\t</div>\n\t\t\t\t</div>\n\t\t\t</div>\n\t\t\t","response":null,"trial_type":"html-keyboard-response","trial_index":120,"time_elapsed":539557,"internal_node_id":"0.0-3.0-2.28","prolific_id":"6325d8654a2844488ae84a06","session_id":"643c1af3a5b40b02bb55ceeb","study_id":"64370a36d30bfa807bc7e43c"},{"rt":786,"stimulus":"\n\t\t\t\t\t<div>\n\t\t\t\t\t<h2>Trial 29 is over</h2>\n\t\t\t\t\t<p>Press <span style=\"color: red\"><strong>any key</strong></span> to continue to the next trial</p>\n\t\t\t\t\t</div>\n\t\t\t\t","response":" ","trial_type":"html-keyboard-response","trial_index":121,"time_elapsed":540344,"internal_node_id":"0.0-3.0-3.28","prolific_id":"6325d8654a2844488ae84a06","session_id":"643c1af3a5b40b02bb55ceeb","study_id":"64370a36d30bfa807bc7e43c"},{"rt":4256,"response":{"prediction":"20"},"trial_type":"survey-text","trial_index":122,"time_elapsed":544602,"internal_node_id":"0.0-3.0-0.29","prolific_id":"6325d8654a2844488ae84a06","session_id":"643c1af3a5b40b02bb55ceeb","study_id":"64370a36d30bfa807bc7e43c"},{"rt":1968,"response":{"prior knowledge":0,"curiosity":1},"accuracy":[],"trial_type":"survey","trial_index":123,"time_elapsed":546594,"internal_node_id":"0.0-3.0-1.29","prolific_id":"6325d8654a2844488ae84a06","session_id":"643c1af3a5b40b02bb55ceeb","study_id":"64370a36d30bfa807bc7e43c"},{"rt":null,"stimulus":"\n\t\t\t<div class=\"flip_card\">\n\t\t\t\t<div class=\"flip_card_inner\">\n\t\t\t\t\t<div class=\"flip_card_front\">\n\t\t\t\t\t\t<img src=img/17.png>\n\t\t\t\t\t</div>\n\t\t\t\t\t<div class=\"flip_card_back\">\n\t\t\t\t\t\t<h2>How many books has Stephen King published?</h2>\n\t\t\t\t\t\t<br>\n\t\t\t\t\t\t<p>Answer: <strong>65</strong></p>\n\t\t\t\t\t</div>\n\t\t\t\t</div>\n\t\t\t</div>\n\t\t\t","response":null,"trial_type":"html-keyboard-response","trial_index":124,"time_elapsed":551608,"internal_node_id":"0.0-3.0-2.29","prolific_id":"6325d8654a2844488ae84a06","session_id":"643c1af3a5b40b02bb55ceeb","study_id":"64370a36d30bfa807bc7e43c"},{"rt":467,"stimulus":"\n\t\t\t\t\t<div>\n\t\t\t\t\t<h2>Trial 30 is over</h2>\n\t\t\t\t\t<p>Press <span style=\"color: red\"><strong>any key</strong></span> to continue to the next trial</p>\n\t\t\t\t\t</div>\n\t\t\t\t","response":" ","trial_type":"html-keyboard-response","trial_index":125,"time_elapsed":552076,"internal_node_id":"0.0-3.0-3.29","prolific_id":"6325d8654a2844488ae84a06","session_id":"643c1af3a5b40b02bb55ceeb","study_id":"64370a36d30bfa807bc7e43c"},{"rt":null,"stimulus":"\n\t\t\t<h2>Good job! You've finished the 30 trials:p</h2>\n\t\t\t<p>In the next session, you will see two cards on the screen in each trial.</p>\n\t\t\t<p>On one card is a pattern that you have seen before in the experiment,\n\t\t\t\tand on the other card is one you have not seen.</p><br>\n\t\t\t<p>Your task is to choose the one you think you <em>have</em> seen before for every trial.</p>\n\t\t\t<p>Press '<span style=\"color: red;\"><strong>F</strong></span>' to choose the card on the left,\n\t\t\t\tand '<span style=\"color: red;\"><strong>J</strong></span>' to choose the card on the right.</p>\n\t\t\t<p>Have fun!</p>\n\t\t\t<br>\n\t\t\t<p>The trials will begin in 30 seconds</p>\n\t\t\t","response":null,"trial_type":"html-keyboard-response","trial_index":126,"time_elapsed":582089,"internal_node_id":"0.0-4.0","prolific_id":"6325d8654a2844488ae84a06","session_id":"643c1af3a5b40b02bb55ceeb","study_id":"64370a36d30bfa807bc7e43c"},{"rt":3018,"stimulus":"\n\t\t\t\t\t\t<div class=\"two_card_container\">\n\t\t\t\t\t\t<div class=\"card_container\">\n\t\t\t\t\t\t<img src=img/18.png>\n\t\t\t\t\t\t</div>\n\n\t\t\t\t\t\t<div class=\"card_container\">\n\t\t\t\t\t\t<img src=img/37.png>\n\t\t\t\t\t\t</div>","response":"f","task":"response","correct_response":"f","trial_type":"html-keyboard-response","trial_index":127,"time_elapsed":585110,"internal_node_id":"0.0-5.0-0.0","prolific_id":"6325d8654a2844488ae84a06","session_id":"643c1af3a5b40b02bb55ceeb","study_id":"64370a36d30bfa807bc7e43c","correct":true},{"rt":null,"stimulus":"\n\t\t\t\t\t<p>Correct!</p>\n\t\t\t\t\t","response":null,"trial_type":"html-keyboard-response","trial_index":128,"time_elapsed":586117,"internal_node_id":"0.0-5.0-1.0","prolific_id":"6325d8654a2844488ae84a06","session_id":"643c1af3a5b40b02bb55ceeb","study_id":"64370a36d30bfa807bc7e43c"},{"rt":1087,"stimulus":"\n\t\t\t\t\t\t<div class=\"two_card_container\">\n\t\t\t\t\t\t<div class=\"card_container\">\n\t\t\t\t\t\t<img src=img/38.png>\n\t\t\t\t\t\t</div>\n\n\t\t\t\t\t\t<div class=\"card_container\">\n\t\t\t\t\t\t<img src=img/6.png>\n\t\t\t\t\t\t</div>","response":"f","task":"response","correct_response":"j","trial_type":"html-keyboard-response","trial_index":129,"time_elapsed":587206,"internal_node_id":"0.0-5.0-0.1","prolific_id":"6325d8654a2844488ae84a06","session_id":"643c1af3a5b40b02bb55ceeb","study_id":"64370a36d30bfa807bc7e43c","correct":false},{"rt":null,"stimulus":"\n\t\t\t\t\t<p>Wrong answer</p>\n\t\t\t\t\t","response":null,"trial_type":"html-keyboard-response","trial_index":130,"time_elapsed":588214,"internal_node_id":"0.0-5.0-1.1","prolific_id":"6325d8654a2844488ae84a06","session_id":"643c1af3a5b40b02bb55ceeb","study_id":"64370a36d30bfa807bc7e43c"},{"rt":1262,"stimulus":"\n\t\t\t\t\t\t<div class=\"two_card_container\">\n\t\t\t\t\t\t<div class=\"card_container\">\n\t\t\t\t\t\t<img src=img/2.png>\n\t\t\t\t\t\t</div>\n\n\t\t\t\t\t\t<div class=\"card_container\">\n\t\t\t\t\t\t<img src=img/33.png>\n\t\t\t\t\t\t</div>","response":"f","task":"response","correct_response":"f","trial_type":"html-keyboard-response","trial_index":131,"time_elapsed":589477,"internal_node_id":"0.0-5.0-0.2","prolific_id":"6325d8654a2844488ae84a06","session_id":"643c1af3a5b40b02bb55ceeb","study_id":"64370a36d30bfa807bc7e43c","correct":true},{"rt":null,"stimulus":"\n\t\t\t\t\t<p>Correct!</p>\n\t\t\t\t\t","response":null,"trial_type":"html-keyboard-response","trial_index":132,"time_elapsed":590487,"internal_node_id":"0.0-5.0-1.2","prolific_id":"6325d8654a2844488ae84a06","session_id":"643c1af3a5b40b02bb55ceeb","study_id":"64370a36d30bfa807bc7e43c"},{"rt":940,"stimulus":"\n\t\t\t\t\t\t<div class=\"two_card_container\">\n\t\t\t\t\t\t<div class=\"card_container\">\n\t\t\t\t\t\t<img src=img/39.png>\n\t\t\t\t\t\t</div>\n\n\t\t\t\t\t\t<div class=\"card_container\">\n\t\t\t\t\t\t<img src=img/13.png>\n\t\t\t\t\t\t</div>","response":"j","task":"response","correct_response":"j","trial_type":"html-keyboard-response","trial_index":133,"time_elapsed":591429,"internal_node_id":"0.0-5.0-0.3","prolific_id":"6325d8654a2844488ae84a06","session_id":"643c1af3a5b40b02bb55ceeb","study_id":"64370a36d30bfa807bc7e43c","correct":true},{"rt":null,"stimulus":"\n\t\t\t\t\t<p>Correct!</p>\n\t\t\t\t\t","response":null,"trial_type":"html-keyboard-response","trial_index":134,"time_elapsed":592444,"internal_node_id":"0.0-5.0-1.3","prolific_id":"6325d8654a2844488ae84a06","session_id":"643c1af3a5b40b02bb55ceeb","study_id":"64370a36d30bfa807bc7e43c"},{"rt":858,"stimulus":"\n\t\t\t\t\t\t<div class=\"two_card_container\">\n\t\t\t\t\t\t<div class=\"card_container\">\n\t\t\t\t\t\t<img src=img/34.png>\n\t\t\t\t\t\t</div>\n\n\t\t\t\t\t\t<div class=\"card_container\">\n\t\t\t\t\t\t<img src=img/22.png>\n\t\t\t\t\t\t</div>","response":"j","task":"response","correct_response":"j","trial_type":"html-keyboard-response","trial_index":135,"time_elapsed":593304,"internal_node_id":"0.0-5.0-0.4","prolific_id":"6325d8654a2844488ae84a06","session_id":"643c1af3a5b40b02bb55ceeb","study_id":"64370a36d30bfa807bc7e43c","correct":true},{"rt":null,"stimulus":"\n\t\t\t\t\t<p>Correct!</p>\n\t\t\t\t\t","response":null,"trial_type":"html-keyboard-response","trial_index":136,"time_elapsed":594318,"internal_node_id":"0.0-5.0-1.4","prolific_id":"6325d8654a2844488ae84a06","session_id":"643c1af3a5b40b02bb55ceeb","study_id":"64370a36d30bfa807bc7e43c"},{"rt":1158,"stimulus":"\n\t\t\t\t\t\t<div class=\"two_card_container\">\n\t\t\t\t\t\t<div class=\"card_container\">\n\t\t\t\t\t\t<img src=img/27.png>\n\t\t\t\t\t\t</div>\n\n\t\t\t\t\t\t<div class=\"card_container\">\n\t\t\t\t\t\t<img src=img/36.png>\n\t\t\t\t\t\t</div>","response":"f","task":"response","correct_response":"f","trial_type":"html-keyboard-response","trial_index":137,"time_elapsed":595477,"internal_node_id":"0.0-5.0-0.5","prolific_id":"6325d8654a2844488ae84a06","session_id":"643c1af3a5b40b02bb55ceeb","study_id":"64370a36d30bfa807bc7e43c","correct":true},{"rt":null,"stimulus":"\n\t\t\t\t\t<p>Correct!</p>\n\t\t\t\t\t","response":null,"trial_type":"html-keyboard-response","trial_index":138,"time_elapsed":596483,"internal_node_id":"0.0-5.0-1.5","prolific_id":"6325d8654a2844488ae84a06","session_id":"643c1af3a5b40b02bb55ceeb","study_id":"64370a36d30bfa807bc7e43c"},{"rt":2680,"stimulus":"\n\t\t\t\t\t\t<div class=\"two_card_container\">\n\t\t\t\t\t\t<div class=\"card_container\">\n\t\t\t\t\t\t<img src=img/40.png>\n\t\t\t\t\t\t</div>\n\n\t\t\t\t\t\t<div class=\"card_container\">\n\t\t\t\t\t\t<img src=img/16.png>\n\t\t\t\t\t\t</div>","response":"f","task":"response","correct_response":"j","trial_type":"html-keyboard-response","trial_index":139,"time_elapsed":599165,"internal_node_id":"0.0-5.0-0.6","prolific_id":"6325d8654a2844488ae84a06","session_id":"643c1af3a5b40b02bb55ceeb","study_id":"64370a36d30bfa807bc7e43c","correct":false},{"rt":null,"stimulus":"\n\t\t\t\t\t<p>Wrong answer</p>\n\t\t\t\t\t","response":null,"trial_type":"html-keyboard-response","trial_index":140,"time_elapsed":600172,"internal_node_id":"0.0-5.0-1.6","prolific_id":"6325d8654a2844488ae84a06","session_id":"643c1af3a5b40b02bb55ceeb","study_id":"64370a36d30bfa807bc7e43c"},{"rt":945,"stimulus":"\n\t\t\t\t\t\t<div class=\"two_card_container\">\n\t\t\t\t\t\t<div class=\"card_container\">\n\t\t\t\t\t\t<img src=img/5.png>\n\t\t\t\t\t\t</div>\n\n\t\t\t\t\t\t<div class=\"card_container\">\n\t\t\t\t\t\t<img src=img/35.png>\n\t\t\t\t\t\t</div>","response":"f","task":"response","correct_response":"f","trial_type":"html-keyboard-response","trial_index":141,"time_elapsed":601119,"internal_node_id":"0.0-5.0-0.7","prolific_id":"6325d8654a2844488ae84a06","session_id":"643c1af3a5b40b02bb55ceeb","study_id":"64370a36d30bfa807bc7e43c","correct":true},{"rt":null,"stimulus":"\n\t\t\t\t\t<p>Correct!</p>\n\t\t\t\t\t","response":null,"trial_type":"html-keyboard-response","trial_index":142,"time_elapsed":602120,"internal_node_id":"0.0-5.0-1.7","prolific_id":"6325d8654a2844488ae84a06","session_id":"643c1af3a5b40b02bb55ceeb","study_id":"64370a36d30bfa807bc7e43c"},{"rt":739,"stimulus":"\n\t\t\t\t\t\t<div class=\"two_card_container\">\n\t\t\t\t\t\t<div class=\"card_container\">\n\t\t\t\t\t\t<img src=img/31.png>\n\t\t\t\t\t\t</div>\n\n\t\t\t\t\t\t<div class=\"card_container\">\n\t\t\t\t\t\t<img src=img/21.png>\n\t\t\t\t\t\t</div>","response":"f","task":"response","correct_response":"j","trial_type":"html-keyboard-response","trial_index":143,"time_elapsed":602861,"internal_node_id":"0.0-5.0-0.8","prolific_id":"6325d8654a2844488ae84a06","session_id":"643c1af3a5b40b02bb55ceeb","study_id":"64370a36d30bfa807bc7e43c","correct":false},{"rt":null,"stimulus":"\n\t\t\t\t\t<p>Wrong answer</p>\n\t\t\t\t\t","response":null,"trial_type":"html-keyboard-response","trial_index":144,"time_elapsed":603877,"internal_node_id":"0.0-5.0-1.8","prolific_id":"6325d8654a2844488ae84a06","session_id":"643c1af3a5b40b02bb55ceeb","study_id":"64370a36d30bfa807bc7e43c"},{"rt":817,"stimulus":"\n\t\t\t\t\t\t<div class=\"two_card_container\">\n\t\t\t\t\t\t<div class=\"card_container\">\n\t\t\t\t\t\t<img src=img/19.png>\n\t\t\t\t\t\t</div>\n\n\t\t\t\t\t\t<div class=\"card_container\">\n\t\t\t\t\t\t<img src=img/32.png>\n\t\t\t\t\t\t</div>","response":"j","task":"response","correct_response":"f","trial_type":"html-keyboard-response","trial_index":145,"time_elapsed":604696,"internal_node_id":"0.0-5.0-0.9","prolific_id":"6325d8654a2844488ae84a06","session_id":"643c1af3a5b40b02bb55ceeb","study_id":"64370a36d30bfa807bc7e43c","correct":false},{"rt":null,"stimulus":"\n\t\t\t\t\t<p>Wrong answer</p>\n\t\t\t\t\t","response":null,"trial_type":"html-keyboard-response","trial_index":146,"time_elapsed":605700,"internal_node_id":"0.0-5.0-1.9","prolific_id":"6325d8654a2844488ae84a06","session_id":"643c1af3a5b40b02bb55ceeb","study_id":"64370a36d30bfa807bc7e43c"},{"rt":null,"stimulus":"\n\t\t\t<h2>Good job :p</h2>\n\t\t\t<p>In the next session, you will see a trivia question on the screen in each trial.</p>\n\t\t\t<p>Each of these trivia questions is chosen from the questions you have already seen in the first session of the experiment.</p><br>\n\t\t\t<p>Your task is to answer the trivia question based on what you remember as accurately as you can.</p>\n\t\t\t<p>Have fun!</p>\n\t\t\t<br>\n\t\t\t<p>The trials will begin in 30 seconds</p>\n\t\t\t","response":null,"trial_type":"html-keyboard-response","trial_index":147,"time_elapsed":635711,"internal_node_id":"0.0-6.0","prolific_id":"6325d8654a2844488ae84a06","session_id":"643c1af3a5b40b02bb55ceeb","study_id":"64370a36d30bfa807bc7e43c"},{"rt":3159,"response":{"answer":"65"},"task":"response","correct_response":"65","trial_type":"survey-text","trial_index":148,"time_elapsed":638876,"internal_node_id":"0.0-7.0-0.0","prolific_id":"6325d8654a2844488ae84a06","session_id":"643c1af3a5b40b02bb55ceeb","study_id":"64370a36d30bfa807bc7e43c","difference":0},{"rt":null,"stimulus":"<h2>The correct answer is 65.</h2><p>Your answer was different from the answer by 0.</p><p>You got the right answer. Amazing work!</p>","response":null,"trial_type":"html-keyboard-response","trial_index":149,"time_elapsed":641391,"internal_node_id":"0.0-7.0-1.0","prolific_id":"6325d8654a2844488ae84a06","session_id":"643c1af3a5b40b02bb55ceeb","study_id":"64370a36d30bfa807bc7e43c"},{"rt":2116,"response":{"answer":"300"},"task":"response","correct_response":"300","trial_type":"survey-text","trial_index":150,"time_elapsed":643510,"internal_node_id":"0.0-7.0-0.1","prolific_id":"6325d8654a2844488ae84a06","session_id":"643c1af3a5b40b02bb55ceeb","study_id":"64370a36d30bfa807bc7e43c","difference":0},{"rt":null,"stimulus":"<h2>The correct answer is 300.</h2><p>Your answer was different from the answer by 0.</p><p>You got the right answer. Amazing work!</p>","response":null,"trial_type":"html-keyboard-response","trial_index":151,"time_elapsed":646017,"internal_node_id":"0.0-7.0-1.1","prolific_id":"6325d8654a2844488ae84a06","session_id":"643c1af3a5b40b02bb55ceeb","study_id":"64370a36d30bfa807bc7e43c"},{"rt":2586,"response":{"answer":"28"},"task":"response","correct_response":"28","trial_type":"survey-text","trial_index":152,"time_elapsed":648608,"internal_node_id":"0.0-7.0-0.2","prolific_id":"6325d8654a2844488ae84a06","session_id":"643c1af3a5b40b02bb55ceeb","study_id":"64370a36d30bfa807bc7e43c","difference":0},{"rt":null,"stimulus":"<h2>The correct answer is 28.</h2><p>Your answer was different from the answer by 0.</p><p>You got the right answer. Amazing work!</p>","response":null,"trial_type":"html-keyboard-response","trial_index":153,"time_elapsed":651125,"internal_node_id":"0.0-7.0-1.2","prolific_id":"6325d8654a2844488ae84a06","session_id":"643c1af3a5b40b02bb55ceeb","study_id":"64370a36d30bfa807bc7e43c"},{"rt":3010,"response":{"answer":"65"},"task":"response","correct_response":"54","trial_type":"survey-text","trial_index":154,"time_elapsed":654141,"internal_node_id":"0.0-7.0-0.3","prolific_id":"6325d8654a2844488ae84a06","session_id":"643c1af3a5b40b02bb55ceeb","study_id":"64370a36d30bfa807bc7e43c","difference":20},{"rt":null,"stimulus":"<h2>The correct answer is 54.</h2><p>Your answer was different from the answer by 11.</p><p>A pretty good job indeed.</p>","response":null,"trial_type":"html-keyboard-response","trial_index":155,"time_elapsed":656652,"internal_node_id":"0.0-7.0-1.3","prolific_id":"6325d8654a2844488ae84a06","session_id":"643c1af3a5b40b02bb55ceeb","study_id":"64370a36d30bfa807bc7e43c"},{"rt":2266,"response":{"answer":"72"},"task":"response","correct_response":"73","trial_type":"survey-text","trial_index":156,"time_elapsed":658922,"internal_node_id":"0.0-7.0-0.4","prolific_id":"6325d8654a2844488ae84a06","session_id":"643c1af3a5b40b02bb55ceeb","study_id":"64370a36d30bfa807bc7e43c","difference":1},{"rt":null,"stimulus":"<h2>The correct answer is 73.</h2><p>Your answer was different from the answer by 1.</p><p>Excellent. Kudos to you!</p>","response":null,"trial_type":"html-keyboard-response","trial_index":157,"time_elapsed":661437,"internal_node_id":"0.0-7.0-1.4","prolific_id":"6325d8654a2844488ae84a06","session_id":"643c1af3a5b40b02bb55ceeb","study_id":"64370a36d30bfa807bc7e43c"},{"rt":1949,"response":{"answer":"4"},"task":"response","correct_response":"4","trial_type":"survey-text","trial_index":158,"time_elapsed":663390,"internal_node_id":"0.0-7.0-0.5","prolific_id":"6325d8654a2844488ae84a06","session_id":"643c1af3a5b40b02bb55ceeb","study_id":"64370a36d30bfa807bc7e43c","difference":0},{"rt":null,"stimulus":"<h2>The correct answer is 4.</h2><p>Your answer was different from the answer by 0.</p><p>You got the right answer. Amazing work!</p>","response":null,"trial_type":"html-keyboard-response","trial_index":159,"time_elapsed":665894,"internal_node_id":"0.0-7.0-1.5","prolific_id":"6325d8654a2844488ae84a06","session_id":"643c1af3a5b40b02bb55ceeb","study_id":"64370a36d30bfa807bc7e43c"},{"rt":1695,"response":{"answer":"14"},"task":"response","correct_response":"14","trial_type":"survey-text","trial_index":160,"time_elapsed":667593,"internal_node_id":"0.0-7.0-0.6","prolific_id":"6325d8654a2844488ae84a06","session_id":"643c1af3a5b40b02bb55ceeb","study_id":"64370a36d30bfa807bc7e43c","difference":0},{"rt":null,"stimulus":"<h2>The correct answer is 14.</h2><p>Your answer was different from the answer by 0.</p><p>You got the right answer. Amazing work!</p>","response":null,"trial_type":"html-keyboard-response","trial_index":161,"time_elapsed":670101,"internal_node_id":"0.0-7.0-1.6","prolific_id":"6325d8654a2844488ae84a06","session_id":"643c1af3a5b40b02bb55ceeb","study_id":"64370a36d30bfa807bc7e43c"},{"rt":1711,"response":{"answer":"13"},"task":"response","correct_response":"13","trial_type":"survey-text","trial_index":162,"time_elapsed":671816,"internal_node_id":"0.0-7.0-0.7","prolific_id":"6325d8654a2844488ae84a06","session_id":"643c1af3a5b40b02bb55ceeb","study_id":"64370a36d30bfa807bc7e43c","difference":0},{"rt":null,"stimulus":"<h2>The correct answer is 13.</h2><p>Your answer was different from the answer by 0.</p><p>You got the right answer. Amazing work!</p>","response":null,"trial_type":"html-keyboard-response","trial_index":163,"time_elapsed":674322,"internal_node_id":"0.0-7.0-1.7","prolific_id":"6325d8654a2844488ae84a06","session_id":"643c1af3a5b40b02bb55ceeb","study_id":"64370a36d30bfa807bc7e43c"},{"rt":2061,"response":{"answer":"2007"},"task":"response","correct_response":"2007","trial_type":"survey-text","trial_index":164,"time_elapsed":676388,"internal_node_id":"0.0-7.0-0.8","prolific_id":"6325d8654a2844488ae84a06","session_id":"643c1af3a5b40b02bb55ceeb","study_id":"64370a36d30bfa807bc7e43c","difference":0},{"rt":null,"stimulus":"<h2>The correct answer is 2007.</h2><p>Your answer was different from the answer by 0.</p><p>You got the right answer. Amazing work!</p>","response":null,"trial_type":"html-keyboard-response","trial_index":165,"time_elapsed":678898,"internal_node_id":"0.0-7.0-1.8","prolific_id":"6325d8654a2844488ae84a06","session_id":"643c1af3a5b40b02bb55ceeb","study_id":"64370a36d30bfa807bc7e43c"},{"rt":3048,"response":{"answer":"13101"},"task":"response","correct_response":"13171","trial_type":"survey-text","trial_index":166,"time_elapsed":681948,"internal_node_id":"0.0-7.0-0.9","prolific_id":"6325d8654a2844488ae84a06","session_id":"643c1af3a5b40b02bb55ceeb","study_id":"64370a36d30bfa807bc7e43c","difference":1},{"rt":null,"stimulus":"<h2>The correct answer is 13171.</h2><p>Your answer was different from the answer by 70.</p><p>Excellent. Kudos to you!</p>","response":null,"trial_type":"html-keyboard-response","trial_index":167,"time_elapsed":684453,"internal_node_id":"0.0-7.0-1.9","prolific_id":"6325d8654a2844488ae84a06","session_id":"643c1af3a5b40b02bb55ceeb","study_id":"64370a36d30bfa807bc7e43c"}]