[{"success":true,"timeout":false,"failed_images":[],"failed_audio":[],"failed_video":[],"trial_type":"preload","trial_index":0,"time_elapsed":5352,"internal_node_id":"0.0-0.0","prolific_id":"6337875a4d0587706d8f2543","session_id":"643c2501d45d44435e0a2f67","study_id":"64370a36d30bfa807bc7e43c"},{"rt":9446,"stimulus":"\n\t\t\t\t\t<p>Welcome and thank you for participating in this study!</p>\n\t\t\t\t\t<p>In each trial, you will be given a trivia question and then be asked to:</p><br>\n\t\t\t\t\t<div class=\"list\">\n\t\t\t\t\t<p>1) Predict the answer</p>\n\t\t\t\t\t<p>2) Rate how much you already know about the topic</p>\n\t\t\t\t\t<p>3) Rate how much you want to know the answer</p>\n\t\t\t\t\t</div>\n\t\t\t\t\t<br>\n\t\t\t\t\t<p>Then, you will see a card that flips over to reveal the answer.</p>\n\t\t\t\t\t<br>\n\t\t\t\t\t<p>Let's try a practice round. Press <span style=\"color: red\"><strong>any key</strong></span> to move to the next slide</p>\n\t\t\t\t\t","response":" ","trial_type":"html-keyboard-response","trial_index":1,"time_elapsed":14801,"internal_node_id":"0.0-1.0","prolific_id":"6337875a4d0587706d8f2543","session_id":"643c2501d45d44435e0a2f67","study_id":"64370a36d30bfa807bc7e43c"},{"rt":6221,"response":{"practice prediction":"10"},"task":"practice","trial_type":"survey-text","trial_index":2,"time_elapsed":21035,"internal_node_id":"0.0-2.0-0.0","prolific_id":"6337875a4d0587706d8f2543","session_id":"643c2501d45d44435e0a2f67","study_id":"64370a36d30bfa807bc7e43c"},{"rt":8552,"response":{"practice":4},"accuracy":[],"trial_type":"survey","trial_index":3,"time_elapsed":29673,"internal_node_id":"0.0-2.0-1.0","prolific_id":"6337875a4d0587706d8f2543","session_id":"643c2501d45d44435e0a2f67","study_id":"64370a36d30bfa807bc7e43c"},{"rt":null,"stimulus":"\n\t\t\t\t<div class=\"flip_card\">\n\t\t\t\t\t<div class=\"flip_card_inner\">\n\t\t\t\t\t\t<div class=\"flip_card_front\">\n\t\t\t\t\t\t\t<img src=img/practice.png>\n\t\t\t\t\t\t</div>\n\t\t\t\t\t\t<div class=\"flip_card_back\">\n\t\t\t\t\t\t\t<h2>\"How many legs does a lobster have?\"</h2>\n\t\t\t\t\t\t    <br>\n\t\t\t\t\t\t    <p>Answer: <strong>\"10\"</strong></p>\n\t\t\t\t\t    </div>\n\t\t\t\t    </div>\n\t\t\t    </div>\n\t\t\t\t","response":null,"trial_type":"html-keyboard-response","trial_index":4,"time_elapsed":34675,"internal_node_id":"0.0-2.0-2.0","prolific_id":"6337875a4d0587706d8f2543","session_id":"643c2501d45d44435e0a2f67","study_id":"64370a36d30bfa807bc7e43c"},{"rt":1967,"stimulus":"\n\t\t\t\t\t<div>\n\t\t\t\t\t<h2>The practice round is over</h2>\n\t\t\t\t\t<p>Press <span style=\"color: red\"><strong>any key</strong></span> to continue to the actual trials</p>\n\t\t\t\t\t<p>Good Luck!</p>\n\t\t\t\t\t</div>\n\t\t\t\t\t","response":" ","trial_type":"html-keyboard-response","trial_index":5,"time_elapsed":36643,"internal_node_id":"0.0-2.0-3.0","prolific_id":"6337875a4d0587706d8f2543","session_id":"643c2501d45d44435e0a2f67","study_id":"64370a36d30bfa807bc7e43c"},{"rt":5986,"response":{"prediction":"1911"},"trial_type":"survey-text","trial_index":6,"time_elapsed":42632,"internal_node_id":"0.0-3.0-0.0","prolific_id":"6337875a4d0587706d8f2543","session_id":"643c2501d45d44435e0a2f67","study_id":"64370a36d30bfa807bc7e43c"},{"rt":5987,"response":{"prior knowledge":2,"curiosity":4},"accuracy":[],"trial_type":"survey","trial_index":7,"time_elapsed":48655,"internal_node_id":"0.0-3.0-1.0","prolific_id":"6337875a4d0587706d8f2543","session_id":"643c2501d45d44435e0a2f67","study_id":"64370a36d30bfa807bc7e43c"},{"rt":null,"stimulus":"\n\t\t\t<div class=\"flip_card\">\n\t\t\t\t<div class=\"flip_card_inner\">\n\t\t\t\t\t<div class=\"flip_card_front\">\n\t\t\t\t\t\t<img src=img/18.png>\n\t\t\t\t\t</div>\n\t\t\t\t\t<div class=\"flip_card_back\">\n\t\t\t\t\t\t<h2>What year did the titanic sink?</h2>\n\t\t\t\t\t\t<br>\n\t\t\t\t\t\t<p>Answer: <strong>1912</strong></p>\n\t\t\t\t\t</div>\n\t\t\t\t</div>\n\t\t\t</div>\n\t\t\t","response":null,"trial_type":"html-keyboard-response","trial_index":8,"time_elapsed":53657,"internal_node_id":"0.0-3.0-2.0","prolific_id":"6337875a4d0587706d8f2543","session_id":"643c2501d45d44435e0a2f67","study_id":"64370a36d30bfa807bc7e43c"},{"rt":746,"stimulus":"\n\t\t\t\t\t<div>\n\t\t\t\t\t<h2>Trial 1 is over</h2>\n\t\t\t\t\t<p>Press <span style=\"color: red\"><strong>any key</strong></span> to continue to the next trial</p>\n\t\t\t\t\t</div>\n\t\t\t\t","response":" ","trial_type":"html-keyboard-response","trial_index":9,"time_elapsed":54403,"internal_node_id":"0.0-3.0-3.0","prolific_id":"6337875a4d0587706d8f2543","session_id":"643c2501d45d44435e0a2f67","study_id":"64370a36d30bfa807bc7e43c"},{"rt":7576,"response":{"prediction":"68"},"trial_type":"survey-text","trial_index":10,"time_elapsed":61984,"internal_node_id":"0.0-3.0-0.1","prolific_id":"6337875a4d0587706d8f2543","session_id":"643c2501d45d44435e0a2f67","study_id":"64370a36d30bfa807bc7e43c"},{"rt":5906,"response":{"prior knowledge":0,"curiosity":2},"accuracy":[],"trial_type":"survey","trial_index":11,"time_elapsed":67907,"internal_node_id":"0.0-3.0-1.1","prolific_id":"6337875a4d0587706d8f2543","session_id":"643c2501d45d44435e0a2f67","study_id":"64370a36d30bfa807bc7e43c"},{"rt":null,"stimulus":"\n\t\t\t<div class=\"flip_card\">\n\t\t\t\t<div class=\"flip_card_inner\">\n\t\t\t\t\t<div class=\"flip_card_front\">\n\t\t\t\t\t\t<img src=img/27.png>\n\t\t\t\t\t</div>\n\t\t\t\t\t<div class=\"flip_card_back\">\n\t\t\t\t\t\t<h2>How many books are in the Catholic Bible?</h2>\n\t\t\t\t\t\t<br>\n\t\t\t\t\t\t<p>Answer: <strong>73</strong></p>\n\t\t\t\t\t</div>\n\t\t\t\t</div>\n\t\t\t</div>\n\t\t\t","response":null,"trial_type":"html-keyboard-response","trial_index":12,"time_elapsed":72909,"internal_node_id":"0.0-3.0-2.1","prolific_id":"6337875a4d0587706d8f2543","session_id":"643c2501d45d44435e0a2f67","study_id":"64370a36d30bfa807bc7e43c"},{"rt":800,"stimulus":"\n\t\t\t\t\t<div>\n\t\t\t\t\t<h2>Trial 2 is over</h2>\n\t\t\t\t\t<p>Press <span style=\"color: red\"><strong>any key</strong></span> to continue to the next trial</p>\n\t\t\t\t\t</div>\n\t\t\t\t","response":" ","trial_type":"html-keyboard-response","trial_index":13,"time_elapsed":73711,"internal_node_id":"0.0-3.0-3.1","prolific_id":"6337875a4d0587706d8f2543","session_id":"643c2501d45d44435e0a2f67","study_id":"64370a36d30bfa807bc7e43c"},{"rt":6085,"response":{"prediction":"1896"},"trial_type":"survey-text","trial_index":14,"time_elapsed":79801,"internal_node_id":"0.0-3.0-0.2","prolific_id":"6337875a4d0587706d8f2543","session_id":"643c2501d45d44435e0a2f67","study_id":"64370a36d30bfa807bc7e43c"},{"rt":4804,"response":{"prior knowledge":1,"curiosity":4},"accuracy":[],"trial_type":"survey","trial_index":15,"time_elapsed":84648,"internal_node_id":"0.0-3.0-1.2","prolific_id":"6337875a4d0587706d8f2543","session_id":"643c2501d45d44435e0a2f67","study_id":"64370a36d30bfa807bc7e43c"},{"rt":null,"stimulus":"\n\t\t\t<div class=\"flip_card\">\n\t\t\t\t<div class=\"flip_card_inner\">\n\t\t\t\t\t<div class=\"flip_card_front\">\n\t\t\t\t\t\t<img src=img/9.png>\n\t\t\t\t\t</div>\n\t\t\t\t\t<div class=\"flip_card_back\">\n\t\t\t\t\t\t<h2>In what year did the first Modern Olympic Games take place?</h2>\n\t\t\t\t\t\t<br>\n\t\t\t\t\t\t<p>Answer: <strong>1896</strong></p>\n\t\t\t\t\t</div>\n\t\t\t\t</div>\n\t\t\t</div>\n\t\t\t","response":null,"trial_type":"html-keyboard-response","trial_index":16,"time_elapsed":89651,"internal_node_id":"0.0-3.0-2.2","prolific_id":"6337875a4d0587706d8f2543","session_id":"643c2501d45d44435e0a2f67","study_id":"64370a36d30bfa807bc7e43c"},{"rt":630,"stimulus":"\n\t\t\t\t\t<div>\n\t\t\t\t\t<h2>Trial 3 is over</h2>\n\t\t\t\t\t<p>Press <span style=\"color: red\"><strong>any key</strong></span> to continue to the next trial</p>\n\t\t\t\t\t</div>\n\t\t\t\t","response":" ","trial_type":"html-keyboard-response","trial_index":17,"time_elapsed":90281,"internal_node_id":"0.0-3.0-3.2","prolific_id":"6337875a4d0587706d8f2543","session_id":"643c2501d45d44435e0a2f67","study_id":"64370a36d30bfa807bc7e43c"},{"rt":5108,"response":{"prediction":"7"},"trial_type":"survey-text","trial_index":18,"time_elapsed":95393,"internal_node_id":"0.0-3.0-0.3","prolific_id":"6337875a4d0587706d8f2543","session_id":"643c2501d45d44435e0a2f67","study_id":"64370a36d30bfa807bc7e43c"},{"rt":4010,"response":{"prior knowledge":1,"curiosity":3},"accuracy":[],"trial_type":"survey","trial_index":19,"time_elapsed":99439,"internal_node_id":"0.0-3.0-1.3","prolific_id":"6337875a4d0587706d8f2543","session_id":"643c2501d45d44435e0a2f67","study_id":"64370a36d30bfa807bc7e43c"},{"rt":null,"stimulus":"\n\t\t\t<div class=\"flip_card\">\n\t\t\t\t<div class=\"flip_card_inner\">\n\t\t\t\t\t<div class=\"flip_card_front\">\n\t\t\t\t\t\t<img src=img/22.png>\n\t\t\t\t\t</div>\n\t\t\t\t\t<div class=\"flip_card_back\">\n\t\t\t\t\t\t<h2>How many times a day do Muslims pray?</h2>\n\t\t\t\t\t\t<br>\n\t\t\t\t\t\t<p>Answer: <strong>5</strong></p>\n\t\t\t\t\t</div>\n\t\t\t\t</div>\n\t\t\t</div>\n\t\t\t","response":null,"trial_type":"html-keyboard-response","trial_index":20,"time_elapsed":104441,"internal_node_id":"0.0-3.0-2.3","prolific_id":"6337875a4d0587706d8f2543","session_id":"643c2501d45d44435e0a2f67","study_id":"64370a36d30bfa807bc7e43c"},{"rt":648,"stimulus":"\n\t\t\t\t\t<div>\n\t\t\t\t\t<h2>Trial 4 is over</h2>\n\t\t\t\t\t<p>Press <span style=\"color: red\"><strong>any key</strong></span> to continue to the next trial</p>\n\t\t\t\t\t</div>\n\t\t\t\t","response":" ","trial_type":"html-keyboard-response","trial_index":21,"time_elapsed":105090,"internal_node_id":"0.0-3.0-3.3","prolific_id":"6337875a4d0587706d8f2543","session_id":"643c2501d45d44435e0a2f67","study_id":"64370a36d30bfa807bc7e43c"},{"rt":20380,"response":{"prediction":"1700"},"trial_type":"survey-text","trial_index":22,"time_elapsed":125471,"internal_node_id":"0.0-3.0-0.4","prolific_id":"6337875a4d0587706d8f2543","session_id":"643c2501d45d44435e0a2f67","study_id":"64370a36d30bfa807bc7e43c"},{"rt":4275,"response":{"prior knowledge":1,"curiosity":4},"accuracy":[],"trial_type":"survey","trial_index":23,"time_elapsed":129763,"internal_node_id":"0.0-3.0-1.4","prolific_id":"6337875a4d0587706d8f2543","session_id":"643c2501d45d44435e0a2f67","study_id":"64370a36d30bfa807bc7e43c"},{"rt":null,"stimulus":"\n\t\t\t<div class=\"flip_card\">\n\t\t\t\t<div class=\"flip_card_inner\">\n\t\t\t\t\t<div class=\"flip_card_front\">\n\t\t\t\t\t\t<img src=img/28.png>\n\t\t\t\t\t</div>\n\t\t\t\t\t<div class=\"flip_card_back\">\n\t\t\t\t\t\t<h2>How many people are vegan globally (in millions)?</h2>\n\t\t\t\t\t\t<br>\n\t\t\t\t\t\t<p>Answer: <strong>79</strong></p>\n\t\t\t\t\t</div>\n\t\t\t\t</div>\n\t\t\t</div>\n\t\t\t","response":null,"trial_type":"html-keyboard-response","trial_index":24,"time_elapsed":134764,"internal_node_id":"0.0-3.0-2.4","prolific_id":"6337875a4d0587706d8f2543","session_id":"643c2501d45d44435e0a2f67","study_id":"64370a36d30bfa807bc7e43c"},{"rt":773,"stimulus":"\n\t\t\t\t\t<div>\n\t\t\t\t\t<h2>Trial 5 is over</h2>\n\t\t\t\t\t<p>Press <span style=\"color: red\"><strong>any key</strong></span> to continue to the next trial</p>\n\t\t\t\t\t</div>\n\t\t\t\t","response":" ","trial_type":"html-keyboard-response","trial_index":25,"time_elapsed":135538,"internal_node_id":"0.0-3.0-3.4","prolific_id":"6337875a4d0587706d8f2543","session_id":"643c2501d45d44435e0a2f67","study_id":"64370a36d30bfa807bc7e43c"},{"rt":5635,"response":{"prediction":"108"},"trial_type":"survey-text","trial_index":26,"time_elapsed":141177,"internal_node_id":"0.0-3.0-0.5","prolific_id":"6337875a4d0587706d8f2543","session_id":"643c2501d45d44435e0a2f67","study_id":"64370a36d30bfa807bc7e43c"},{"rt":4000,"response":{"prior knowledge":3,"curiosity":5},"accuracy":[],"trial_type":"survey","trial_index":27,"time_elapsed":145228,"internal_node_id":"0.0-3.0-1.5","prolific_id":"6337875a4d0587706d8f2543","session_id":"643c2501d45d44435e0a2f67","study_id":"64370a36d30bfa807bc7e43c"},{"rt":null,"stimulus":"\n\t\t\t<div class=\"flip_card\">\n\t\t\t\t<div class=\"flip_card_inner\">\n\t\t\t\t\t<div class=\"flip_card_front\">\n\t\t\t\t\t\t<img src=img/14.png>\n\t\t\t\t\t</div>\n\t\t\t\t\t<div class=\"flip_card_back\">\n\t\t\t\t\t\t<h2>How many books has Stephen King published?</h2>\n\t\t\t\t\t\t<br>\n\t\t\t\t\t\t<p>Answer: <strong>65</strong></p>\n\t\t\t\t\t</div>\n\t\t\t\t</div>\n\t\t\t</div>\n\t\t\t","response":null,"trial_type":"html-keyboard-response","trial_index":28,"time_elapsed":150231,"internal_node_id":"0.0-3.0-2.5","prolific_id":"6337875a4d0587706d8f2543","session_id":"643c2501d45d44435e0a2f67","study_id":"64370a36d30bfa807bc7e43c"},{"rt":650,"stimulus":"\n\t\t\t\t\t<div>\n\t\t\t\t\t<h2>Trial 6 is over</h2>\n\t\t\t\t\t<p>Press <span style=\"color: red\"><strong>any key</strong></span> to continue to the next trial</p>\n\t\t\t\t\t</div>\n\t\t\t\t","response":" ","trial_type":"html-keyboard-response","trial_index":29,"time_elapsed":150882,"internal_node_id":"0.0-3.0-3.5","prolific_id":"6337875a4d0587706d8f2543","session_id":"643c2501d45d44435e0a2f67","study_id":"64370a36d30bfa807bc7e43c"},{"rt":4091,"response":{"prediction":"36"},"trial_type":"survey-text","trial_index":30,"time_elapsed":154976,"internal_node_id":"0.0-3.0-0.6","prolific_id":"6337875a4d0587706d8f2543","session_id":"643c2501d45d44435e0a2f67","study_id":"64370a36d30bfa807bc7e43c"},{"rt":3794,"response":{"prior knowledge":0,"curiosity":4},"accuracy":[],"trial_type":"survey","trial_index":31,"time_elapsed":158808,"internal_node_id":"0.0-3.0-1.6","prolific_id":"6337875a4d0587706d8f2543","session_id":"643c2501d45d44435e0a2f67","study_id":"64370a36d30bfa807bc7e43c"},{"rt":null,"stimulus":"\n\t\t\t<div class=\"flip_card\">\n\t\t\t\t<div class=\"flip_card_inner\">\n\t\t\t\t\t<div class=\"flip_card_front\">\n\t\t\t\t\t\t<img src=img/13.png>\n\t\t\t\t\t</div>\n\t\t\t\t\t<div class=\"flip_card_back\">\n\t\t\t\t\t\t<h2>How old was King Tut when he died?</h2>\n\t\t\t\t\t\t<br>\n\t\t\t\t\t\t<p>Answer: <strong>19</strong></p>\n\t\t\t\t\t</div>\n\t\t\t\t</div>\n\t\t\t</div>\n\t\t\t","response":null,"trial_type":"html-keyboard-response","trial_index":32,"time_elapsed":163810,"internal_node_id":"0.0-3.0-2.6","prolific_id":"6337875a4d0587706d8f2543","session_id":"643c2501d45d44435e0a2f67","study_id":"64370a36d30bfa807bc7e43c"},{"rt":563,"stimulus":"\n\t\t\t\t\t<div>\n\t\t\t\t\t<h2>Trial 7 is over</h2>\n\t\t\t\t\t<p>Press <span style=\"color: red\"><strong>any key</strong></span> to continue to the next trial</p>\n\t\t\t\t\t</div>\n\t\t\t\t","response":" ","trial_type":"html-keyboard-response","trial_index":33,"time_elapsed":164372,"internal_node_id":"0.0-3.0-3.6","prolific_id":"6337875a4d0587706d8f2543","session_id":"643c2501d45d44435e0a2f67","study_id":"64370a36d30bfa807bc7e43c"},{"rt":4377,"response":{"prediction":"17"},"trial_type":"survey-text","trial_index":34,"time_elapsed":168753,"internal_node_id":"0.0-3.0-0.7","prolific_id":"6337875a4d0587706d8f2543","session_id":"643c2501d45d44435e0a2f67","study_id":"64370a36d30bfa807bc7e43c"},{"rt":3635,"response":{"prior knowledge":0,"curiosity":4},"accuracy":[],"trial_type":"survey","trial_index":35,"time_elapsed":172420,"internal_node_id":"0.0-3.0-1.7","prolific_id":"6337875a4d0587706d8f2543","session_id":"643c2501d45d44435e0a2f67","study_id":"64370a36d30bfa807bc7e43c"},{"rt":null,"stimulus":"\n\t\t\t<div class=\"flip_card\">\n\t\t\t\t<div class=\"flip_card_inner\">\n\t\t\t\t\t<div class=\"flip_card_front\">\n\t\t\t\t\t\t<img src=img/19.png>\n\t\t\t\t\t</div>\n\t\t\t\t\t<div class=\"flip_card_back\">\n\t\t\t\t\t\t<h2>How many native species of kangaroos are found in Australia?</h2>\n\t\t\t\t\t\t<br>\n\t\t\t\t\t\t<p>Answer: <strong>4</strong></p>\n\t\t\t\t\t</div>\n\t\t\t\t</div>\n\t\t\t</div>\n\t\t\t","response":null,"trial_type":"html-keyboard-response","trial_index":36,"time_elapsed":177421,"internal_node_id":"0.0-3.0-2.7","prolific_id":"6337875a4d0587706d8f2543","session_id":"643c2501d45d44435e0a2f67","study_id":"64370a36d30bfa807bc7e43c"},{"rt":672,"stimulus":"\n\t\t\t\t\t<div>\n\t\t\t\t\t<h2>Trial 8 is over</h2>\n\t\t\t\t\t<p>Press <span style=\"color: red\"><strong>any key</strong></span> to continue to the next trial</p>\n\t\t\t\t\t</div>\n\t\t\t\t","response":" ","trial_type":"html-keyboard-response","trial_index":37,"time_elapsed":178094,"internal_node_id":"0.0-3.0-3.7","prolific_id":"6337875a4d0587706d8f2543","session_id":"643c2501d45d44435e0a2f67","study_id":"64370a36d30bfa807bc7e43c"},{"rt":11110,"response":{"prediction":"2010"},"trial_type":"survey-text","trial_index":38,"time_elapsed":189208,"internal_node_id":"0.0-3.0-0.8","prolific_id":"6337875a4d0587706d8f2543","session_id":"643c2501d45d44435e0a2f67","study_id":"64370a36d30bfa807bc7e43c"},{"rt":4608,"response":{"prior knowledge":2,"curiosity":3},"accuracy":[],"trial_type":"survey","trial_index":39,"time_elapsed":193831,"internal_node_id":"0.0-3.0-1.8","prolific_id":"6337875a4d0587706d8f2543","session_id":"643c2501d45d44435e0a2f67","study_id":"64370a36d30bfa807bc7e43c"},{"rt":null,"stimulus":"\n\t\t\t<div class=\"flip_card\">\n\t\t\t\t<div class=\"flip_card_inner\">\n\t\t\t\t\t<div class=\"flip_card_front\">\n\t\t\t\t\t\t<img src=img/23.png>\n\t\t\t\t\t</div>\n\t\t\t\t\t<div class=\"flip_card_back\">\n\t\t\t\t\t\t<h2>What year was the very first model of the iPhone released?</h2>\n\t\t\t\t\t\t<br>\n\t\t\t\t\t\t<p>Answer: <strong>2007</strong></p>\n\t\t\t\t\t</div>\n\t\t\t\t</div>\n\t\t\t</div>\n\t\t\t","response":null,"trial_type":"html-keyboard-response","trial_index":40,"time_elapsed":198832,"internal_node_id":"0.0-3.0-2.8","prolific_id":"6337875a4d0587706d8f2543","session_id":"643c2501d45d44435e0a2f67","study_id":"64370a36d30bfa807bc7e43c"},{"rt":658,"stimulus":"\n\t\t\t\t\t<div>\n\t\t\t\t\t<h2>Trial 9 is over</h2>\n\t\t\t\t\t<p>Press <span style=\"color: red\"><strong>any key</strong></span> to continue to the next trial</p>\n\t\t\t\t\t</div>\n\t\t\t\t","response":" ","trial_type":"html-keyboard-response","trial_index":41,"time_elapsed":199492,"internal_node_id":"0.0-3.0-3.8","prolific_id":"6337875a4d0587706d8f2543","session_id":"643c2501d45d44435e0a2f67","study_id":"64370a36d30bfa807bc7e43c"},{"rt":4516,"response":{"prediction":"1989"},"trial_type":"survey-text","trial_index":42,"time_elapsed":204011,"internal_node_id":"0.0-3.0-0.9","prolific_id":"6337875a4d0587706d8f2543","session_id":"643c2501d45d44435e0a2f67","study_id":"64370a36d30bfa807bc7e43c"},{"rt":3490,"response":{"prior knowledge":4,"curiosity":5},"accuracy":[],"trial_type":"survey","trial_index":43,"time_elapsed":207528,"internal_node_id":"0.0-3.0-1.9","prolific_id":"6337875a4d0587706d8f2543","session_id":"643c2501d45d44435e0a2f67","study_id":"64370a36d30bfa807bc7e43c"},{"rt":null,"stimulus":"\n\t\t\t<div class=\"flip_card\">\n\t\t\t\t<div class=\"flip_card_inner\">\n\t\t\t\t\t<div class=\"flip_card_front\">\n\t\t\t\t\t\t<img src=img/7.png>\n\t\t\t\t\t</div>\n\t\t\t\t\t<div class=\"flip_card_back\">\n\t\t\t\t\t\t<h2>What year did the Berlin Wall fall?</h2>\n\t\t\t\t\t\t<br>\n\t\t\t\t\t\t<p>Answer: <strong>1989</strong></p>\n\t\t\t\t\t</div>\n\t\t\t\t</div>\n\t\t\t</div>\n\t\t\t","response":null,"trial_type":"html-keyboard-response","trial_index":44,"time_elapsed":212532,"internal_node_id":"0.0-3.0-2.9","prolific_id":"6337875a4d0587706d8f2543","session_id":"643c2501d45d44435e0a2f67","study_id":"64370a36d30bfa807bc7e43c"},{"rt":732,"stimulus":"\n\t\t\t\t\t<div>\n\t\t\t\t\t<h2>Trial 10 is over</h2>\n\t\t\t\t\t<p>Press <span style=\"color: red\"><strong>any key</strong></span> to continue to the next trial</p>\n\t\t\t\t\t</div>\n\t\t\t\t","response":" ","trial_type":"html-keyboard-response","trial_index":45,"time_elapsed":213265,"internal_node_id":"0.0-3.0-3.9","prolific_id":"6337875a4d0587706d8f2543","session_id":"643c2501d45d44435e0a2f67","study_id":"64370a36d30bfa807bc7e43c"},{"rt":6412,"response":{"prediction":"128"},"trial_type":"survey-text","trial_index":46,"time_elapsed":219680,"internal_node_id":"0.0-3.0-0.10","prolific_id":"6337875a4d0587706d8f2543","session_id":"643c2501d45d44435e0a2f67","study_id":"64370a36d30bfa807bc7e43c"},{"rt":3362,"response":{"prior knowledge":1,"curiosity":5},"accuracy":[],"trial_type":"survey","trial_index":47,"time_elapsed":223079,"internal_node_id":"0.0-3.0-1.10","prolific_id":"6337875a4d0587706d8f2543","session_id":"643c2501d45d44435e0a2f67","study_id":"64370a36d30bfa807bc7e43c"},{"rt":null,"stimulus":"\n\t\t\t<div class=\"flip_card\">\n\t\t\t\t<div class=\"flip_card_inner\">\n\t\t\t\t\t<div class=\"flip_card_front\">\n\t\t\t\t\t\t<img src=img/12.png>\n\t\t\t\t\t</div>\n\t\t\t\t\t<div class=\"flip_card_back\">\n\t\t\t\t\t\t<h2>How many constellations are there?</h2>\n\t\t\t\t\t\t<br>\n\t\t\t\t\t\t<p>Answer: <strong>88</strong></p>\n\t\t\t\t\t</div>\n\t\t\t\t</div>\n\t\t\t</div>\n\t\t\t","response":null,"trial_type":"html-keyboard-response","trial_index":48,"time_elapsed":228082,"internal_node_id":"0.0-3.0-2.10","prolific_id":"6337875a4d0587706d8f2543","session_id":"643c2501d45d44435e0a2f67","study_id":"64370a36d30bfa807bc7e43c"},{"rt":804,"stimulus":"\n\t\t\t\t\t<div>\n\t\t\t\t\t<h2>Trial 11 is over</h2>\n\t\t\t\t\t<p>Press <span style=\"color: red\"><strong>any key</strong></span> to continue to the next trial</p>\n\t\t\t\t\t</div>\n\t\t\t\t","response":" ","trial_type":"html-keyboard-response","trial_index":49,"time_elapsed":228888,"internal_node_id":"0.0-3.0-3.10","prolific_id":"6337875a4d0587706d8f2543","session_id":"643c2501d45d44435e0a2f67","study_id":"64370a36d30bfa807bc7e43c"},{"rt":2821,"response":{"prediction":"13"},"trial_type":"survey-text","trial_index":50,"time_elapsed":231713,"internal_node_id":"0.0-3.0-0.11","prolific_id":"6337875a4d0587706d8f2543","session_id":"643c2501d45d44435e0a2f67","study_id":"64370a36d30bfa807bc7e43c"},{"rt":3860,"response":{"prior knowledge":5,"curiosity":0},"accuracy":[],"trial_type":"survey","trial_index":51,"time_elapsed":235603,"internal_node_id":"0.0-3.0-1.11","prolific_id":"6337875a4d0587706d8f2543","session_id":"643c2501d45d44435e0a2f67","study_id":"64370a36d30bfa807bc7e43c"},{"rt":null,"stimulus":"\n\t\t\t<div class=\"flip_card\">\n\t\t\t\t<div class=\"flip_card_inner\">\n\t\t\t\t\t<div class=\"flip_card_front\">\n\t\t\t\t\t\t<img src=img/25.png>\n\t\t\t\t\t</div>\n\t\t\t\t\t<div class=\"flip_card_back\">\n\t\t\t\t\t\t<h2>How much is in a Baker's Dozen?</h2>\n\t\t\t\t\t\t<br>\n\t\t\t\t\t\t<p>Answer: <strong>13</strong></p>\n\t\t\t\t\t</div>\n\t\t\t\t</div>\n\t\t\t</div>\n\t\t\t","response":null,"trial_type":"html-keyboard-response","trial_index":52,"time_elapsed":240605,"internal_node_id":"0.0-3.0-2.11","prolific_id":"6337875a4d0587706d8f2543","session_id":"643c2501d45d44435e0a2f67","study_id":"64370a36d30bfa807bc7e43c"},{"rt":671,"stimulus":"\n\t\t\t\t\t<div>\n\t\t\t\t\t<h2>Trial 12 is over</h2>\n\t\t\t\t\t<p>Press <span style=\"color: red\"><strong>any key</strong></span> to continue to the next trial</p>\n\t\t\t\t\t</div>\n\t\t\t\t","response":" ","trial_type":"html-keyboard-response","trial_index":53,"time_elapsed":241276,"internal_node_id":"0.0-3.0-3.11","prolific_id":"6337875a4d0587706d8f2543","session_id":"643c2501d45d44435e0a2f67","study_id":"64370a36d30bfa807bc7e43c"},{"rt":5811,"response":{"prediction":"1908"},"trial_type":"survey-text","trial_index":54,"time_elapsed":247089,"internal_node_id":"0.0-3.0-0.12","prolific_id":"6337875a4d0587706d8f2543","session_id":"643c2501d45d44435e0a2f67","study_id":"64370a36d30bfa807bc7e43c"},{"rt":4894,"response":{"prior knowledge":0,"curiosity":4},"accuracy":[],"trial_type":"survey","trial_index":55,"time_elapsed":252008,"internal_node_id":"0.0-3.0-1.12","prolific_id":"6337875a4d0587706d8f2543","session_id":"643c2501d45d44435e0a2f67","study_id":"64370a36d30bfa807bc7e43c"},{"rt":null,"stimulus":"\n\t\t\t<div class=\"flip_card\">\n\t\t\t\t<div class=\"flip_card_inner\">\n\t\t\t\t\t<div class=\"flip_card_front\">\n\t\t\t\t\t\t<img src=img/3.png>\n\t\t\t\t\t</div>\n\t\t\t\t\t<div class=\"flip_card_back\">\n\t\t\t\t\t\t<h2>In what year was the Mexican artist Frida Kahlo born?</h2>\n\t\t\t\t\t\t<br>\n\t\t\t\t\t\t<p>Answer: <strong>1907</strong></p>\n\t\t\t\t\t</div>\n\t\t\t\t</div>\n\t\t\t</div>\n\t\t\t","response":null,"trial_type":"html-keyboard-response","trial_index":56,"time_elapsed":257010,"internal_node_id":"0.0-3.0-2.12","prolific_id":"6337875a4d0587706d8f2543","session_id":"643c2501d45d44435e0a2f67","study_id":"64370a36d30bfa807bc7e43c"},{"rt":708,"stimulus":"\n\t\t\t\t\t<div>\n\t\t\t\t\t<h2>Trial 13 is over</h2>\n\t\t\t\t\t<p>Press <span style=\"color: red\"><strong>any key</strong></span> to continue to the next trial</p>\n\t\t\t\t\t</div>\n\t\t\t\t","response":" ","trial_type":"html-keyboard-response","trial_index":57,"time_elapsed":257719,"internal_node_id":"0.0-3.0-3.12","prolific_id":"6337875a4d0587706d8f2543","session_id":"643c2501d45d44435e0a2f67","study_id":"64370a36d30bfa807bc7e43c"},{"rt":7121,"response":{"prediction":"4000"},"trial_type":"survey-text","trial_index":58,"time_elapsed":264841,"internal_node_id":"0.0-3.0-0.13","prolific_id":"6337875a4d0587706d8f2543","session_id":"643c2501d45d44435e0a2f67","study_id":"64370a36d30bfa807bc7e43c"},{"rt":4099,"response":{"prior knowledge":2,"curiosity":5},"accuracy":[],"trial_type":"survey","trial_index":59,"time_elapsed":268969,"internal_node_id":"0.0-3.0-1.13","prolific_id":"6337875a4d0587706d8f2543","session_id":"643c2501d45d44435e0a2f67","study_id":"64370a36d30bfa807bc7e43c"},{"rt":null,"stimulus":"\n\t\t\t<div class=\"flip_card\">\n\t\t\t\t<div class=\"flip_card_inner\">\n\t\t\t\t\t<div class=\"flip_card_front\">\n\t\t\t\t\t\t<img src=img/11.png>\n\t\t\t\t\t</div>\n\t\t\t\t\t<div class=\"flip_card_back\">\n\t\t\t\t\t\t<h2>What is the diameter of Earth in miles?</h2>\n\t\t\t\t\t\t<br>\n\t\t\t\t\t\t<p>Answer: <strong>7917.5</strong></p>\n\t\t\t\t\t</div>\n\t\t\t\t</div>\n\t\t\t</div>\n\t\t\t","response":null,"trial_type":"html-keyboard-response","trial_index":60,"time_elapsed":273972,"internal_node_id":"0.0-3.0-2.13","prolific_id":"6337875a4d0587706d8f2543","session_id":"643c2501d45d44435e0a2f67","study_id":"64370a36d30bfa807bc7e43c"},{"rt":761,"stimulus":"\n\t\t\t\t\t<div>\n\t\t\t\t\t<h2>Trial 14 is over</h2>\n\t\t\t\t\t<p>Press <span style=\"color: red\"><strong>any key</strong></span> to continue to the next trial</p>\n\t\t\t\t\t</div>\n\t\t\t\t","response":" ","trial_type":"html-keyboard-response","trial_index":61,"time_elapsed":274734,"internal_node_id":"0.0-3.0-3.13","prolific_id":"6337875a4d0587706d8f2543","session_id":"643c2501d45d44435e0a2f67","study_id":"64370a36d30bfa807bc7e43c"},{"rt":13735,"response":{"prediction":"6"},"trial_type":"survey-text","trial_index":62,"time_elapsed":288473,"internal_node_id":"0.0-3.0-0.14","prolific_id":"6337875a4d0587706d8f2543","session_id":"643c2501d45d44435e0a2f67","study_id":"64370a36d30bfa807bc7e43c"},{"rt":4227,"response":{"prior knowledge":2,"curiosity":5},"accuracy":[],"trial_type":"survey","trial_index":63,"time_elapsed":292716,"internal_node_id":"0.0-3.0-1.14","prolific_id":"6337875a4d0587706d8f2543","session_id":"643c2501d45d44435e0a2f67","study_id":"64370a36d30bfa807bc7e43c"},{"rt":null,"stimulus":"\n\t\t\t<div class=\"flip_card\">\n\t\t\t\t<div class=\"flip_card_inner\">\n\t\t\t\t\t<div class=\"flip_card_front\">\n\t\t\t\t\t\t<img src=img/10.png>\n\t\t\t\t\t</div>\n\t\t\t\t\t<div class=\"flip_card_back\">\n\t\t\t\t\t\t<h2>How many countries have territory in the Arctic Circle?</h2>\n\t\t\t\t\t\t<br>\n\t\t\t\t\t\t<p>Answer: <strong>8</strong></p>\n\t\t\t\t\t</div>\n\t\t\t\t</div>\n\t\t\t</div>\n\t\t\t","response":null,"trial_type":"html-keyboard-response","trial_index":64,"time_elapsed":297718,"internal_node_id":"0.0-3.0-2.14","prolific_id":"6337875a4d0587706d8f2543","session_id":"643c2501d45d44435e0a2f67","study_id":"64370a36d30bfa807bc7e43c"},{"rt":759,"stimulus":"\n\t\t\t\t\t<div>\n\t\t\t\t\t<h2>Trial 15 is over</h2>\n\t\t\t\t\t<p>Press <span style=\"color: red\"><strong>any key</strong></span> to continue to the next trial</p>\n\t\t\t\t\t</div>\n\t\t\t\t","response":" ","trial_type":"html-keyboard-response","trial_index":65,"time_elapsed":298479,"internal_node_id":"0.0-3.0-3.14","prolific_id":"6337875a4d0587706d8f2543","session_id":"643c2501d45d44435e0a2f67","study_id":"64370a36d30bfa807bc7e43c"},{"rt":4616,"response":{"prediction":"7"},"trial_type":"survey-text","trial_index":66,"time_elapsed":303098,"internal_node_id":"0.0-3.0-0.15","prolific_id":"6337875a4d0587706d8f2543","session_id":"643c2501d45d44435e0a2f67","study_id":"64370a36d30bfa807bc7e43c"},{"rt":4662,"response":{"prior knowledge":0,"curiosity":5},"accuracy":[],"trial_type":"survey","trial_index":67,"time_elapsed":307791,"internal_node_id":"0.0-3.0-1.15","prolific_id":"6337875a4d0587706d8f2543","session_id":"643c2501d45d44435e0a2f67","study_id":"64370a36d30bfa807bc7e43c"},{"rt":null,"stimulus":"\n\t\t\t<div class=\"flip_card\">\n\t\t\t\t<div class=\"flip_card_inner\">\n\t\t\t\t\t<div class=\"flip_card_front\">\n\t\t\t\t\t\t<img src=img/6.png>\n\t\t\t\t\t</div>\n\t\t\t\t\t<div class=\"flip_card_back\">\n\t\t\t\t\t\t<h2>How many tones are in the Vietnamese language?</h2>\n\t\t\t\t\t\t<br>\n\t\t\t\t\t\t<p>Answer: <strong>6</strong></p>\n\t\t\t\t\t</div>\n\t\t\t\t</div>\n\t\t\t</div>\n\t\t\t","response":null,"trial_type":"html-keyboard-response","trial_index":68,"time_elapsed":312793,"internal_node_id":"0.0-3.0-2.15","prolific_id":"6337875a4d0587706d8f2543","session_id":"643c2501d45d44435e0a2f67","study_id":"64370a36d30bfa807bc7e43c"},{"rt":659,"stimulus":"\n\t\t\t\t\t<div>\n\t\t\t\t\t<h2>Trial 16 is over</h2>\n\t\t\t\t\t<p>Press <span style=\"color: red\"><strong>any key</strong></span> to continue to the next trial</p>\n\t\t\t\t\t</div>\n\t\t\t\t","response":" ","trial_type":"html-keyboard-response","trial_index":69,"time_elapsed":313454,"internal_node_id":"0.0-3.0-3.15","prolific_id":"6337875a4d0587706d8f2543","session_id":"643c2501d45d44435e0a2f67","study_id":"64370a36d30bfa807bc7e43c"},{"rt":4952,"response":{"prediction":"12"},"trial_type":"survey-text","trial_index":70,"time_elapsed":318411,"internal_node_id":"0.0-3.0-0.16","prolific_id":"6337875a4d0587706d8f2543","session_id":"643c2501d45d44435e0a2f67","study_id":"64370a36d30bfa807bc7e43c"},{"rt":4932,"response":{"prior knowledge":1,"curiosity":4},"accuracy":[],"trial_type":"survey","trial_index":71,"time_elapsed":323413,"internal_node_id":"0.0-3.0-1.16","prolific_id":"6337875a4d0587706d8f2543","session_id":"643c2501d45d44435e0a2f67","study_id":"64370a36d30bfa807bc7e43c"},{"rt":null,"stimulus":"\n\t\t\t<div class=\"flip_card\">\n\t\t\t\t<div class=\"flip_card_inner\">\n\t\t\t\t\t<div class=\"flip_card_front\">\n\t\t\t\t\t\t<img src=img/21.png>\n\t\t\t\t\t</div>\n\t\t\t\t\t<div class=\"flip_card_back\">\n\t\t\t\t\t\t<h2>How many different animals (real or imaginary) are represented in the Chinese calendar?</h2>\n\t\t\t\t\t\t<br>\n\t\t\t\t\t\t<p>Answer: <strong>12</strong></p>\n\t\t\t\t\t</div>\n\t\t\t\t</div>\n\t\t\t</div>\n\t\t\t","response":null,"trial_type":"html-keyboard-response","trial_index":72,"time_elapsed":328415,"internal_node_id":"0.0-3.0-2.16","prolific_id":"6337875a4d0587706d8f2543","session_id":"643c2501d45d44435e0a2f67","study_id":"64370a36d30bfa807bc7e43c"},{"rt":710,"stimulus":"\n\t\t\t\t\t<div>\n\t\t\t\t\t<h2>Trial 17 is over</h2>\n\t\t\t\t\t<p>Press <span style=\"color: red\"><strong>any key</strong></span> to continue to the next trial</p>\n\t\t\t\t\t</div>\n\t\t\t\t","response":" ","trial_type":"html-keyboard-response","trial_index":73,"time_elapsed":329127,"internal_node_id":"0.0-3.0-3.16","prolific_id":"6337875a4d0587706d8f2543","session_id":"643c2501d45d44435e0a2f67","study_id":"64370a36d30bfa807bc7e43c"},{"rt":2998,"response":{"prediction":"14"},"trial_type":"survey-text","trial_index":74,"time_elapsed":332131,"internal_node_id":"0.0-3.0-0.17","prolific_id":"6337875a4d0587706d8f2543","session_id":"643c2501d45d44435e0a2f67","study_id":"64370a36d30bfa807bc7e43c"},{"rt":2424,"response":{"prior knowledge":5,"curiosity":5},"accuracy":[],"trial_type":"survey","trial_index":75,"time_elapsed":334625,"internal_node_id":"0.0-3.0-1.17","prolific_id":"6337875a4d0587706d8f2543","session_id":"643c2501d45d44435e0a2f67","study_id":"64370a36d30bfa807bc7e43c"},{"rt":null,"stimulus":"\n\t\t\t<div class=\"flip_card\">\n\t\t\t\t<div class=\"flip_card_inner\">\n\t\t\t\t\t<div class=\"flip_card_front\">\n\t\t\t\t\t\t<img src=img/2.png>\n\t\t\t\t\t</div>\n\t\t\t\t\t<div class=\"flip_card_back\">\n\t\t\t\t\t\t<h2>How many lines are in a sonnet?</h2>\n\t\t\t\t\t\t<br>\n\t\t\t\t\t\t<p>Answer: <strong>14</strong></p>\n\t\t\t\t\t</div>\n\t\t\t\t</div>\n\t\t\t</div>\n\t\t\t","response":null,"trial_type":"html-keyboard-response","trial_index":76,"time_elapsed":339628,"internal_node_id":"0.0-3.0-2.17","prolific_id":"6337875a4d0587706d8f2543","session_id":"643c2501d45d44435e0a2f67","study_id":"64370a36d30bfa807bc7e43c"},{"rt":724,"stimulus":"\n\t\t\t\t\t<div>\n\t\t\t\t\t<h2>Trial 18 is over</h2>\n\t\t\t\t\t<p>Press <span style=\"color: red\"><strong>any key</strong></span> to continue to the next trial</p>\n\t\t\t\t\t</div>\n\t\t\t\t","response":" ","trial_type":"html-keyboard-response","trial_index":77,"time_elapsed":340353,"internal_node_id":"0.0-3.0-3.17","prolific_id":"6337875a4d0587706d8f2543","session_id":"643c2501d45d44435e0a2f67","study_id":"64370a36d30bfa807bc7e43c"},{"rt":4038,"response":{"prediction":"57"},"trial_type":"survey-text","trial_index":78,"time_elapsed":344394,"internal_node_id":"0.0-3.0-0.18","prolific_id":"6337875a4d0587706d8f2543","session_id":"643c2501d45d44435e0a2f67","study_id":"64370a36d30bfa807bc7e43c"},{"rt":4320,"response":{"prior knowledge":2,"curiosity":5},"accuracy":[],"trial_type":"survey","trial_index":79,"time_elapsed":348752,"internal_node_id":"0.0-3.0-1.18","prolific_id":"6337875a4d0587706d8f2543","session_id":"643c2501d45d44435e0a2f67","study_id":"64370a36d30bfa807bc7e43c"},{"rt":null,"stimulus":"\n\t\t\t<div class=\"flip_card\">\n\t\t\t\t<div class=\"flip_card_inner\">\n\t\t\t\t\t<div class=\"flip_card_front\">\n\t\t\t\t\t\t<img src=img/17.png>\n\t\t\t\t\t</div>\n\t\t\t\t\t<div class=\"flip_card_back\">\n\t\t\t\t\t\t<h2>How many countries are in Africa?</h2>\n\t\t\t\t\t\t<br>\n\t\t\t\t\t\t<p>Answer: <strong>54</strong></p>\n\t\t\t\t\t</div>\n\t\t\t\t</div>\n\t\t\t</div>\n\t\t\t","response":null,"trial_type":"html-keyboard-response","trial_index":80,"time_elapsed":353754,"internal_node_id":"0.0-3.0-2.18","prolific_id":"6337875a4d0587706d8f2543","session_id":"643c2501d45d44435e0a2f67","study_id":"64370a36d30bfa807bc7e43c"},{"rt":2565,"stimulus":"\n\t\t\t\t\t<div>\n\t\t\t\t\t<h2>Trial 19 is over</h2>\n\t\t\t\t\t<p>Press <span style=\"color: red\"><strong>any key</strong></span> to continue to the next trial</p>\n\t\t\t\t\t</div>\n\t\t\t\t","response":" ","trial_type":"html-keyboard-response","trial_index":81,"time_elapsed":356322,"internal_node_id":"0.0-3.0-3.18","prolific_id":"6337875a4d0587706d8f2543","session_id":"643c2501d45d44435e0a2f67","study_id":"64370a36d30bfa807bc7e43c"},{"rt":5574,"response":{"prediction":"141"},"trial_type":"survey-text","trial_index":82,"time_elapsed":361898,"internal_node_id":"0.0-3.0-0.19","prolific_id":"6337875a4d0587706d8f2543","session_id":"643c2501d45d44435e0a2f67","study_id":"64370a36d30bfa807bc7e43c"},{"rt":4751,"response":{"prior knowledge":1,"curiosity":5},"accuracy":[],"trial_type":"survey","trial_index":83,"time_elapsed":366678,"internal_node_id":"0.0-3.0-1.19","prolific_id":"6337875a4d0587706d8f2543","session_id":"643c2501d45d44435e0a2f67","study_id":"64370a36d30bfa807bc7e43c"},{"rt":null,"stimulus":"\n\t\t\t<div class=\"flip_card\">\n\t\t\t\t<div class=\"flip_card_inner\">\n\t\t\t\t\t<div class=\"flip_card_front\">\n\t\t\t\t\t\t<img src=img/8.png>\n\t\t\t\t\t</div>\n\t\t\t\t\t<div class=\"flip_card_back\">\n\t\t\t\t\t\t<h2>How many floors are in the Burj Khalifa, the tallest building in the world?</h2>\n\t\t\t\t\t\t<br>\n\t\t\t\t\t\t<p>Answer: <strong>163</strong></p>\n\t\t\t\t\t</div>\n\t\t\t\t</div>\n\t\t\t</div>\n\t\t\t","response":null,"trial_type":"html-keyboard-response","trial_index":84,"time_elapsed":371681,"internal_node_id":"0.0-3.0-2.19","prolific_id":"6337875a4d0587706d8f2543","session_id":"643c2501d45d44435e0a2f67","study_id":"64370a36d30bfa807bc7e43c"},{"rt":826,"stimulus":"\n\t\t\t\t\t<div>\n\t\t\t\t\t<h2>Trial 20 is over</h2>\n\t\t\t\t\t<p>Press <span style=\"color: red\"><strong>any key</strong></span> to continue to the next trial</p>\n\t\t\t\t\t</div>\n\t\t\t\t","response":" ","trial_type":"html-keyboard-response","trial_index":85,"time_elapsed":372509,"internal_node_id":"0.0-3.0-3.19","prolific_id":"6337875a4d0587706d8f2543","session_id":"643c2501d45d44435e0a2f67","study_id":"64370a36d30bfa807bc7e43c"},{"rt":5036,"response":{"prediction":"8"},"trial_type":"survey-text","trial_index":86,"time_elapsed":377546,"internal_node_id":"0.0-3.0-0.20","prolific_id":"6337875a4d0587706d8f2543","session_id":"643c2501d45d44435e0a2f67","study_id":"64370a36d30bfa807bc7e43c"},{"rt":4175,"response":{"prior knowledge":0,"curiosity":3},"accuracy":[],"trial_type":"survey","trial_index":87,"time_elapsed":381749,"internal_node_id":"0.0-3.0-1.20","prolific_id":"6337875a4d0587706d8f2543","session_id":"643c2501d45d44435e0a2f67","study_id":"64370a36d30bfa807bc7e43c"},{"rt":null,"stimulus":"\n\t\t\t<div class=\"flip_card\">\n\t\t\t\t<div class=\"flip_card_inner\">\n\t\t\t\t\t<div class=\"flip_card_front\">\n\t\t\t\t\t\t<img src=img/24.png>\n\t\t\t\t\t</div>\n\t\t\t\t\t<div class=\"flip_card_back\">\n\t\t\t\t\t\t<h2>How many countries in Africa have French as the official language?</h2>\n\t\t\t\t\t\t<br>\n\t\t\t\t\t\t<p>Answer: <strong>21</strong></p>\n\t\t\t\t\t</div>\n\t\t\t\t</div>\n\t\t\t</div>\n\t\t\t","response":null,"trial_type":"html-keyboard-response","trial_index":88,"time_elapsed":386751,"internal_node_id":"0.0-3.0-2.20","prolific_id":"6337875a4d0587706d8f2543","session_id":"643c2501d45d44435e0a2f67","study_id":"64370a36d30bfa807bc7e43c"},{"rt":777,"stimulus":"\n\t\t\t\t\t<div>\n\t\t\t\t\t<h2>Trial 21 is over</h2>\n\t\t\t\t\t<p>Press <span style=\"color: red\"><strong>any key</strong></span> to continue to the next trial</p>\n\t\t\t\t\t</div>\n\t\t\t\t","response":" ","trial_type":"html-keyboard-response","trial_index":89,"time_elapsed":387528,"internal_node_id":"0.0-3.0-3.20","prolific_id":"6337875a4d0587706d8f2543","session_id":"643c2501d45d44435e0a2f67","study_id":"64370a36d30bfa807bc7e43c"},{"rt":4848,"response":{"prediction":"12"},"trial_type":"survey-text","trial_index":90,"time_elapsed":392378,"internal_node_id":"0.0-3.0-0.21","prolific_id":"6337875a4d0587706d8f2543","session_id":"643c2501d45d44435e0a2f67","study_id":"64370a36d30bfa807bc7e43c"},{"rt":3443,"response":{"prior knowledge":0,"curiosity":4},"accuracy":[],"trial_type":"survey","trial_index":91,"time_elapsed":395857,"internal_node_id":"0.0-3.0-1.21","prolific_id":"6337875a4d0587706d8f2543","session_id":"643c2501d45d44435e0a2f67","study_id":"64370a36d30bfa807bc7e43c"},{"rt":null,"stimulus":"\n\t\t\t<div class=\"flip_card\">\n\t\t\t\t<div class=\"flip_card_inner\">\n\t\t\t\t\t<div class=\"flip_card_front\">\n\t\t\t\t\t\t<img src=img/20.png>\n\t\t\t\t\t</div>\n\t\t\t\t\t<div class=\"flip_card_back\">\n\t\t\t\t\t\t<h2>How many single hand gestures, or mudras, are used in Indian classical dance?</h2>\n\t\t\t\t\t\t<br>\n\t\t\t\t\t\t<p>Answer: <strong>28</strong></p>\n\t\t\t\t\t</div>\n\t\t\t\t</div>\n\t\t\t</div>\n\t\t\t","response":null,"trial_type":"html-keyboard-response","trial_index":92,"time_elapsed":400860,"internal_node_id":"0.0-3.0-2.21","prolific_id":"6337875a4d0587706d8f2543","session_id":"643c2501d45d44435e0a2f67","study_id":"64370a36d30bfa807bc7e43c"},{"rt":664,"stimulus":"\n\t\t\t\t\t<div>\n\t\t\t\t\t<h2>Trial 22 is over</h2>\n\t\t\t\t\t<p>Press <span style=\"color: red\"><strong>any key</strong></span> to continue to the next trial</p>\n\t\t\t\t\t</div>\n\t\t\t\t","response":" ","trial_type":"html-keyboard-response","trial_index":93,"time_elapsed":401525,"internal_node_id":"0.0-3.0-3.21","prolific_id":"6337875a4d0587706d8f2543","session_id":"643c2501d45d44435e0a2f67","study_id":"64370a36d30bfa807bc7e43c"},{"rt":13962,"response":{"prediction":"86"},"trial_type":"survey-text","trial_index":94,"time_elapsed":415491,"internal_node_id":"0.0-3.0-0.22","prolific_id":"6337875a4d0587706d8f2543","session_id":"643c2501d45d44435e0a2f67","study_id":"64370a36d30bfa807bc7e43c"},{"rt":3602,"response":{"prior knowledge":0,"curiosity":4},"accuracy":[],"trial_type":"survey","trial_index":95,"time_elapsed":419163,"internal_node_id":"0.0-3.0-1.22","prolific_id":"6337875a4d0587706d8f2543","session_id":"643c2501d45d44435e0a2f67","study_id":"64370a36d30bfa807bc7e43c"},{"rt":null,"stimulus":"\n\t\t\t<div class=\"flip_card\">\n\t\t\t\t<div class=\"flip_card_inner\">\n\t\t\t\t\t<div class=\"flip_card_front\">\n\t\t\t\t\t\t<img src=img/16.png>\n\t\t\t\t\t</div>\n\t\t\t\t\t<div class=\"flip_card_back\">\n\t\t\t\t\t\t<h2>How many bones is a human baby born with?</h2>\n\t\t\t\t\t\t<br>\n\t\t\t\t\t\t<p>Answer: <strong>300</strong></p>\n\t\t\t\t\t</div>\n\t\t\t\t</div>\n\t\t\t</div>\n\t\t\t","response":null,"trial_type":"html-keyboard-response","trial_index":96,"time_elapsed":424165,"internal_node_id":"0.0-3.0-2.22","prolific_id":"6337875a4d0587706d8f2543","session_id":"643c2501d45d44435e0a2f67","study_id":"64370a36d30bfa807bc7e43c"},{"rt":658,"stimulus":"\n\t\t\t\t\t<div>\n\t\t\t\t\t<h2>Trial 23 is over</h2>\n\t\t\t\t\t<p>Press <span style=\"color: red\"><strong>any key</strong></span> to continue to the next trial</p>\n\t\t\t\t\t</div>\n\t\t\t\t","response":" ","trial_type":"html-keyboard-response","trial_index":97,"time_elapsed":424824,"internal_node_id":"0.0-3.0-3.22","prolific_id":"6337875a4d0587706d8f2543","session_id":"643c2501d45d44435e0a2f67","study_id":"64370a36d30bfa807bc7e43c"},{"rt":4583,"response":{"prediction":"1500"},"trial_type":"survey-text","trial_index":98,"time_elapsed":429410,"internal_node_id":"0.0-3.0-0.23","prolific_id":"6337875a4d0587706d8f2543","session_id":"643c2501d45d44435e0a2f67","study_id":"64370a36d30bfa807bc7e43c"},{"rt":4195,"response":{"prior knowledge":0,"curiosity":4},"accuracy":[],"trial_type":"survey","trial_index":99,"time_elapsed":433642,"internal_node_id":"0.0-3.0-1.23","prolific_id":"6337875a4d0587706d8f2543","session_id":"643c2501d45d44435e0a2f67","study_id":"64370a36d30bfa807bc7e43c"},{"rt":null,"stimulus":"\n\t\t\t<div class=\"flip_card\">\n\t\t\t\t<div class=\"flip_card_inner\">\n\t\t\t\t\t<div class=\"flip_card_front\">\n\t\t\t\t\t\t<img src=img/26.png>\n\t\t\t\t\t</div>\n\t\t\t\t\t<div class=\"flip_card_back\">\n\t\t\t\t\t\t<h2>How long is the Great Wall of China (in miles)?</h2>\n\t\t\t\t\t\t<br>\n\t\t\t\t\t\t<p>Answer: <strong>13171</strong></p>\n\t\t\t\t\t</div>\n\t\t\t\t</div>\n\t\t\t</div>\n\t\t\t","response":null,"trial_type":"html-keyboard-response","trial_index":100,"time_elapsed":438644,"internal_node_id":"0.0-3.0-2.23","prolific_id":"6337875a4d0587706d8f2543","session_id":"643c2501d45d44435e0a2f67","study_id":"64370a36d30bfa807bc7e43c"},{"rt":723,"stimulus":"\n\t\t\t\t\t<div>\n\t\t\t\t\t<h2>Trial 24 is over</h2>\n\t\t\t\t\t<p>Press <span style=\"color: red\"><strong>any key</strong></span> to continue to the next trial</p>\n\t\t\t\t\t</div>\n\t\t\t\t","response":" ","trial_type":"html-keyboard-response","trial_index":101,"time_elapsed":439370,"internal_node_id":"0.0-3.0-3.23","prolific_id":"6337875a4d0587706d8f2543","session_id":"643c2501d45d44435e0a2f67","study_id":"64370a36d30bfa807bc7e43c"},{"rt":11919,"response":{"prediction":"6"},"trial_type":"survey-text","trial_index":102,"time_elapsed":451290,"internal_node_id":"0.0-3.0-0.24","prolific_id":"6337875a4d0587706d8f2543","session_id":"643c2501d45d44435e0a2f67","study_id":"64370a36d30bfa807bc7e43c"},{"rt":3287,"response":{"prior knowledge":1,"curiosity":5},"accuracy":[],"trial_type":"survey","trial_index":103,"time_elapsed":454608,"internal_node_id":"0.0-3.0-1.24","prolific_id":"6337875a4d0587706d8f2543","session_id":"643c2501d45d44435e0a2f67","study_id":"64370a36d30bfa807bc7e43c"},{"rt":null,"stimulus":"\n\t\t\t<div class=\"flip_card\">\n\t\t\t\t<div class=\"flip_card_inner\">\n\t\t\t\t\t<div class=\"flip_card_front\">\n\t\t\t\t\t\t<img src=img/30.png>\n\t\t\t\t\t</div>\n\t\t\t\t\t<div class=\"flip_card_back\">\n\t\t\t\t\t\t<h2>How many moons does Neptune have?</h2>\n\t\t\t\t\t\t<br>\n\t\t\t\t\t\t<p>Answer: <strong>14</strong></p>\n\t\t\t\t\t</div>\n\t\t\t\t</div>\n\t\t\t</div>\n\t\t\t","response":null,"trial_type":"html-keyboard-response","trial_index":104,"time_elapsed":459610,"internal_node_id":"0.0-3.0-2.24","prolific_id":"6337875a4d0587706d8f2543","session_id":"643c2501d45d44435e0a2f67","study_id":"64370a36d30bfa807bc7e43c"},{"rt":659,"stimulus":"\n\t\t\t\t\t<div>\n\t\t\t\t\t<h2>Trial 25 is over</h2>\n\t\t\t\t\t<p>Press <span style=\"color: red\"><strong>any key</strong></span> to continue to the next trial</p>\n\t\t\t\t\t</div>\n\t\t\t\t","response":" ","trial_type":"html-keyboard-response","trial_index":105,"time_elapsed":460270,"internal_node_id":"0.0-3.0-3.24","prolific_id":"6337875a4d0587706d8f2543","session_id":"643c2501d45d44435e0a2f67","study_id":"64370a36d30bfa807bc7e43c"},{"rt":4970,"response":{"prediction":"1902"},"trial_type":"survey-text","trial_index":106,"time_elapsed":465246,"internal_node_id":"0.0-3.0-0.25","prolific_id":"6337875a4d0587706d8f2543","session_id":"643c2501d45d44435e0a2f67","study_id":"64370a36d30bfa807bc7e43c"},{"rt":3949,"response":{"prior knowledge":1,"curiosity":4},"accuracy":[],"trial_type":"survey","trial_index":107,"time_elapsed":469266,"internal_node_id":"0.0-3.0-1.25","prolific_id":"6337875a4d0587706d8f2543","session_id":"643c2501d45d44435e0a2f67","study_id":"64370a36d30bfa807bc7e43c"},{"rt":null,"stimulus":"\n\t\t\t<div class=\"flip_card\">\n\t\t\t\t<div class=\"flip_card_inner\">\n\t\t\t\t\t<div class=\"flip_card_front\">\n\t\t\t\t\t\t<img src=img/5.png>\n\t\t\t\t\t</div>\n\t\t\t\t\t<div class=\"flip_card_back\">\n\t\t\t\t\t\t<h2>In what year was the first Nobel Prize awarded?</h2>\n\t\t\t\t\t\t<br>\n\t\t\t\t\t\t<p>Answer: <strong>1901</strong></p>\n\t\t\t\t\t</div>\n\t\t\t\t</div>\n\t\t\t</div>\n\t\t\t","response":null,"trial_type":"html-keyboard-response","trial_index":108,"time_elapsed":474269,"internal_node_id":"0.0-3.0-2.25","prolific_id":"6337875a4d0587706d8f2543","session_id":"643c2501d45d44435e0a2f67","study_id":"64370a36d30bfa807bc7e43c"},{"rt":557,"stimulus":"\n\t\t\t\t\t<div>\n\t\t\t\t\t<h2>Trial 26 is over</h2>\n\t\t\t\t\t<p>Press <span style=\"color: red\"><strong>any key</strong></span> to continue to the next trial</p>\n\t\t\t\t\t</div>\n\t\t\t\t","response":" ","trial_type":"html-keyboard-response","trial_index":109,"time_elapsed":474826,"internal_node_id":"0.0-3.0-3.25","prolific_id":"6337875a4d0587706d8f2543","session_id":"643c2501d45d44435e0a2f67","study_id":"64370a36d30bfa807bc7e43c"},{"rt":6454,"response":{"prediction":"5"},"trial_type":"survey-text","trial_index":110,"time_elapsed":481282,"internal_node_id":"0.0-3.0-0.26","prolific_id":"6337875a4d0587706d8f2543","session_id":"643c2501d45d44435e0a2f67","study_id":"64370a36d30bfa807bc7e43c"},{"rt":4823,"response":{"prior knowledge":0,"curiosity":4},"accuracy":[],"trial_type":"survey","trial_index":111,"time_elapsed":486121,"internal_node_id":"0.0-3.0-1.26","prolific_id":"6337875a4d0587706d8f2543","session_id":"643c2501d45d44435e0a2f67","study_id":"64370a36d30bfa807bc7e43c"},{"rt":null,"stimulus":"\n\t\t\t<div class=\"flip_card\">\n\t\t\t\t<div class=\"flip_card_inner\">\n\t\t\t\t\t<div class=\"flip_card_front\">\n\t\t\t\t\t\t<img src=img/4.png>\n\t\t\t\t\t</div>\n\t\t\t\t\t<div class=\"flip_card_back\">\n\t\t\t\t\t\t<h2>How many main islands make up Japan?</h2>\n\t\t\t\t\t\t<br>\n\t\t\t\t\t\t<p>Answer: <strong>4</strong></p>\n\t\t\t\t\t</div>\n\t\t\t\t</div>\n\t\t\t</div>\n\t\t\t","response":null,"trial_type":"html-keyboard-response","trial_index":112,"time_elapsed":491124,"internal_node_id":"0.0-3.0-2.26","prolific_id":"6337875a4d0587706d8f2543","session_id":"643c2501d45d44435e0a2f67","study_id":"64370a36d30bfa807bc7e43c"},{"rt":609,"stimulus":"\n\t\t\t\t\t<div>\n\t\t\t\t\t<h2>Trial 27 is over</h2>\n\t\t\t\t\t<p>Press <span style=\"color: red\"><strong>any key</strong></span> to continue to the next trial</p>\n\t\t\t\t\t</div>\n\t\t\t\t","response":" ","trial_type":"html-keyboard-response","trial_index":113,"time_elapsed":491733,"internal_node_id":"0.0-3.0-3.26","prolific_id":"6337875a4d0587706d8f2543","session_id":"643c2501d45d44435e0a2f67","study_id":"64370a36d30bfa807bc7e43c"},{"rt":5554,"response":{"prediction":"13"},"trial_type":"survey-text","trial_index":114,"time_elapsed":497290,"internal_node_id":"0.0-3.0-0.27","prolific_id":"6337875a4d0587706d8f2543","session_id":"643c2501d45d44435e0a2f67","study_id":"64370a36d30bfa807bc7e43c"},{"rt":3984,"response":{"prior knowledge":2,"curiosity":4},"accuracy":[],"trial_type":"survey","trial_index":115,"time_elapsed":501289,"internal_node_id":"0.0-3.0-1.27","prolific_id":"6337875a4d0587706d8f2543","session_id":"643c2501d45d44435e0a2f67","study_id":"64370a36d30bfa807bc7e43c"},{"rt":null,"stimulus":"\n\t\t\t<div class=\"flip_card\">\n\t\t\t\t<div class=\"flip_card_inner\">\n\t\t\t\t\t<div class=\"flip_card_front\">\n\t\t\t\t\t\t<img src=img/29.png>\n\t\t\t\t\t</div>\n\t\t\t\t\t<div class=\"flip_card_back\">\n\t\t\t\t\t\t<h2>A bar mitzvah is traditionally celebrated when Jewish males turn what age?</h2>\n\t\t\t\t\t\t<br>\n\t\t\t\t\t\t<p>Answer: <strong>13</strong></p>\n\t\t\t\t\t</div>\n\t\t\t\t</div>\n\t\t\t</div>\n\t\t\t","response":null,"trial_type":"html-keyboard-response","trial_index":116,"time_elapsed":506291,"internal_node_id":"0.0-3.0-2.27","prolific_id":"6337875a4d0587706d8f2543","session_id":"643c2501d45d44435e0a2f67","study_id":"64370a36d30bfa807bc7e43c"},{"rt":738,"stimulus":"\n\t\t\t\t\t<div>\n\t\t\t\t\t<h2>Trial 28 is over</h2>\n\t\t\t\t\t<p>Press <span style=\"color: red\"><strong>any key</strong></span> to continue to the next trial</p>\n\t\t\t\t\t</div>\n\t\t\t\t","response":" ","trial_type":"html-keyboard-response","trial_index":117,"time_elapsed":507029,"internal_node_id":"0.0-3.0-3.27","prolific_id":"6337875a4d0587706d8f2543","session_id":"643c2501d45d44435e0a2f67","study_id":"64370a36d30bfa807bc7e43c"},{"rt":7937,"response":{"prediction":"7"},"trial_type":"survey-text","trial_index":118,"time_elapsed":514971,"internal_node_id":"0.0-3.0-0.28","prolific_id":"6337875a4d0587706d8f2543","session_id":"643c2501d45d44435e0a2f67","study_id":"64370a36d30bfa807bc7e43c"},{"rt":4586,"response":{"prior knowledge":1,"curiosity":4},"accuracy":[],"trial_type":"survey","trial_index":119,"time_elapsed":519584,"internal_node_id":"0.0-3.0-1.28","prolific_id":"6337875a4d0587706d8f2543","session_id":"643c2501d45d44435e0a2f67","study_id":"64370a36d30bfa807bc7e43c"},{"rt":null,"stimulus":"\n\t\t\t<div class=\"flip_card\">\n\t\t\t\t<div class=\"flip_card_inner\">\n\t\t\t\t\t<div class=\"flip_card_front\">\n\t\t\t\t\t\t<img src=img/1.png>\n\t\t\t\t\t</div>\n\t\t\t\t\t<div class=\"flip_card_back\">\n\t\t\t\t\t\t<h2>How many soccer players should each team have on the field at the start of each match?</h2>\n\t\t\t\t\t\t<br>\n\t\t\t\t\t\t<p>Answer: <strong>11</strong></p>\n\t\t\t\t\t</div>\n\t\t\t\t</div>\n\t\t\t</div>\n\t\t\t","response":null,"trial_type":"html-keyboard-response","trial_index":120,"time_elapsed":524587,"internal_node_id":"0.0-3.0-2.28","prolific_id":"6337875a4d0587706d8f2543","session_id":"643c2501d45d44435e0a2f67","study_id":"64370a36d30bfa807bc7e43c"},{"rt":709,"stimulus":"\n\t\t\t\t\t<div>\n\t\t\t\t\t<h2>Trial 29 is over</h2>\n\t\t\t\t\t<p>Press <span style=\"color: red\"><strong>any key</strong></span> to continue to the next trial</p>\n\t\t\t\t\t</div>\n\t\t\t\t","response":" ","trial_type":"html-keyboard-response","trial_index":121,"time_elapsed":525296,"internal_node_id":"0.0-3.0-3.28","prolific_id":"6337875a4d0587706d8f2543","session_id":"643c2501d45d44435e0a2f67","study_id":"64370a36d30bfa807bc7e43c"},{"rt":8177,"response":{"prediction":"120"},"trial_type":"survey-text","trial_index":122,"time_elapsed":533476,"internal_node_id":"0.0-3.0-0.29","prolific_id":"6337875a4d0587706d8f2543","session_id":"643c2501d45d44435e0a2f67","study_id":"64370a36d30bfa807bc7e43c"},{"rt":3507,"response":{"prior knowledge":1,"curiosity":4},"accuracy":[],"trial_type":"survey","trial_index":123,"time_elapsed":537011,"internal_node_id":"0.0-3.0-1.29","prolific_id":"6337875a4d0587706d8f2543","session_id":"643c2501d45d44435e0a2f67","study_id":"64370a36d30bfa807bc7e43c"},{"rt":null,"stimulus":"\n\t\t\t<div class=\"flip_card\">\n\t\t\t\t<div class=\"flip_card_inner\">\n\t\t\t\t\t<div class=\"flip_card_front\">\n\t\t\t\t\t\t<img src=img/15.png>\n\t\t\t\t\t</div>\n\t\t\t\t\t<div class=\"flip_card_back\">\n\t\t\t\t\t\t<h2>How many double stitches does a baseball have?</h2>\n\t\t\t\t\t\t<br>\n\t\t\t\t\t\t<p>Answer: <strong>108</strong></p>\n\t\t\t\t\t</div>\n\t\t\t\t</div>\n\t\t\t</div>\n\t\t\t","response":null,"trial_type":"html-keyboard-response","trial_index":124,"time_elapsed":542014,"internal_node_id":"0.0-3.0-2.29","prolific_id":"6337875a4d0587706d8f2543","session_id":"643c2501d45d44435e0a2f67","study_id":"64370a36d30bfa807bc7e43c"},{"rt":836,"stimulus":"\n\t\t\t\t\t<div>\n\t\t\t\t\t<h2>Trial 30 is over</h2>\n\t\t\t\t\t<p>Press <span style=\"color: red\"><strong>any key</strong></span> to continue to the next trial</p>\n\t\t\t\t\t</div>\n\t\t\t\t","response":" ","trial_type":"html-keyboard-response","trial_index":125,"time_elapsed":542851,"internal_node_id":"0.0-3.0-3.29","prolific_id":"6337875a4d0587706d8f2543","session_id":"643c2501d45d44435e0a2f67","study_id":"64370a36d30bfa807bc7e43c"},{"rt":null,"stimulus":"\n\t\t\t<h2>Good job! You've finished the 30 trials:p</h2>\n\t\t\t<p>In the next session, you will see two cards on the screen in each trial.</p>\n\t\t\t<p>On one card is a pattern that you have seen before in the experiment,\n\t\t\t\tand on the other card is one you have not seen.</p><br>\n\t\t\t<p>Your task is to choose the one you think you <em>have</em> seen before for every trial.</p>\n\t\t\t<p>Press '<span style=\"color: red;\"><strong>F</strong></span>' to choose the card on the left,\n\t\t\t\tand '<span style=\"color: red;\"><strong>J</strong></span>' to choose the card on the right.</p>\n\t\t\t<p>Have fun!</p>\n\t\t\t<br>\n\t\t\t<p>The trials will begin in 30 seconds</p>\n\t\t\t","response":null,"trial_type":"html-keyboard-response","trial_index":126,"time_elapsed":572853,"internal_node_id":"0.0-4.0","prolific_id":"6337875a4d0587706d8f2543","session_id":"643c2501d45d44435e0a2f67","study_id":"64370a36d30bfa807bc7e43c"},{"rt":1360,"stimulus":"\n\t\t\t\t\t\t<div class=\"two_card_container\">\n\t\t\t\t\t\t<div class=\"card_container\">\n\t\t\t\t\t\t<img src=img/35.png>\n\t\t\t\t\t\t</div>\n\n\t\t\t\t\t\t<div class=\"card_container\">\n\t\t\t\t\t\t<img src=img/16.png>\n\t\t\t\t\t\t</div>","response":"j","task":"response","correct_response":"j","trial_type":"html-keyboard-response","trial_index":127,"time_elapsed":574214,"internal_node_id":"0.0-5.0-0.0","prolific_id":"6337875a4d0587706d8f2543","session_id":"643c2501d45d44435e0a2f67","study_id":"64370a36d30bfa807bc7e43c","correct":true},{"rt":null,"stimulus":"\n\t\t\t\t\t<p>Correct!</p>\n\t\t\t\t\t","response":null,"trial_type":"html-keyboard-response","trial_index":128,"time_elapsed":575215,"internal_node_id":"0.0-5.0-1.0","prolific_id":"6337875a4d0587706d8f2543","session_id":"643c2501d45d44435e0a2f67","study_id":"64370a36d30bfa807bc7e43c"},{"rt":1149,"stimulus":"\n\t\t\t\t\t\t<div class=\"two_card_container\">\n\t\t\t\t\t\t<div class=\"card_container\">\n\t\t\t\t\t\t<img src=img/14.png>\n\t\t\t\t\t\t</div>\n\n\t\t\t\t\t\t<div class=\"card_container\">\n\t\t\t\t\t\t<img src=img/31.png>\n\t\t\t\t\t\t</div>","response":"f","task":"response","correct_response":"f","trial_type":"html-keyboard-response","trial_index":129,"time_elapsed":576365,"internal_node_id":"0.0-5.0-0.1","prolific_id":"6337875a4d0587706d8f2543","session_id":"643c2501d45d44435e0a2f67","study_id":"64370a36d30bfa807bc7e43c","correct":true},{"rt":null,"stimulus":"\n\t\t\t\t\t<p>Correct!</p>\n\t\t\t\t\t","response":null,"trial_type":"html-keyboard-response","trial_index":130,"time_elapsed":577366,"internal_node_id":"0.0-5.0-1.1","prolific_id":"6337875a4d0587706d8f2543","session_id":"643c2501d45d44435e0a2f67","study_id":"64370a36d30bfa807bc7e43c"},{"rt":1251,"stimulus":"\n\t\t\t\t\t\t<div class=\"two_card_container\">\n\t\t\t\t\t\t<div class=\"card_container\">\n\t\t\t\t\t\t<img src=img/32.png>\n\t\t\t\t\t\t</div>\n\n\t\t\t\t\t\t<div class=\"card_container\">\n\t\t\t\t\t\t<img src=img/12.png>\n\t\t\t\t\t\t</div>","response":"j","task":"response","correct_response":"j","trial_type":"html-keyboard-response","trial_index":131,"time_elapsed":578618,"internal_node_id":"0.0-5.0-0.2","prolific_id":"6337875a4d0587706d8f2543","session_id":"643c2501d45d44435e0a2f67","study_id":"64370a36d30bfa807bc7e43c","correct":true},{"rt":null,"stimulus":"\n\t\t\t\t\t<p>Correct!</p>\n\t\t\t\t\t","response":null,"trial_type":"html-keyboard-response","trial_index":132,"time_elapsed":579619,"internal_node_id":"0.0-5.0-1.2","prolific_id":"6337875a4d0587706d8f2543","session_id":"643c2501d45d44435e0a2f67","study_id":"64370a36d30bfa807bc7e43c"},{"rt":1205,"stimulus":"\n\t\t\t\t\t\t<div class=\"two_card_container\">\n\t\t\t\t\t\t<div class=\"card_container\">\n\t\t\t\t\t\t<img src=img/40.png>\n\t\t\t\t\t\t</div>\n\n\t\t\t\t\t\t<div class=\"card_container\">\n\t\t\t\t\t\t<img src=img/21.png>\n\t\t\t\t\t\t</div>","response":"f","task":"response","correct_response":"j","trial_type":"html-keyboard-response","trial_index":133,"time_elapsed":580825,"internal_node_id":"0.0-5.0-0.3","prolific_id":"6337875a4d0587706d8f2543","session_id":"643c2501d45d44435e0a2f67","study_id":"64370a36d30bfa807bc7e43c","correct":false},{"rt":null,"stimulus":"\n\t\t\t\t\t<p>Wrong answer</p>\n\t\t\t\t\t","response":null,"trial_type":"html-keyboard-response","trial_index":134,"time_elapsed":581825,"internal_node_id":"0.0-5.0-1.3","prolific_id":"6337875a4d0587706d8f2543","session_id":"643c2501d45d44435e0a2f67","study_id":"64370a36d30bfa807bc7e43c"},{"rt":1161,"stimulus":"\n\t\t\t\t\t\t<div class=\"two_card_container\">\n\t\t\t\t\t\t<div class=\"card_container\">\n\t\t\t\t\t\t<img src=img/20.png>\n\t\t\t\t\t\t</div>\n\n\t\t\t\t\t\t<div class=\"card_container\">\n\t\t\t\t\t\t<img src=img/39.png>\n\t\t\t\t\t\t</div>","response":"f","task":"response","correct_response":"f","trial_type":"html-keyboard-response","trial_index":135,"time_elapsed":582988,"internal_node_id":"0.0-5.0-0.4","prolific_id":"6337875a4d0587706d8f2543","session_id":"643c2501d45d44435e0a2f67","study_id":"64370a36d30bfa807bc7e43c","correct":true},{"rt":null,"stimulus":"\n\t\t\t\t\t<p>Correct!</p>\n\t\t\t\t\t","response":null,"trial_type":"html-keyboard-response","trial_index":136,"time_elapsed":583988,"internal_node_id":"0.0-5.0-1.4","prolific_id":"6337875a4d0587706d8f2543","session_id":"643c2501d45d44435e0a2f67","study_id":"64370a36d30bfa807bc7e43c"},{"rt":1099,"stimulus":"\n\t\t\t\t\t\t<div class=\"two_card_container\">\n\t\t\t\t\t\t<div class=\"card_container\">\n\t\t\t\t\t\t<img src=img/33.png>\n\t\t\t\t\t\t</div>\n\n\t\t\t\t\t\t<div class=\"card_container\">\n\t\t\t\t\t\t<img src=img/18.png>\n\t\t\t\t\t\t</div>","response":"j","task":"response","correct_response":"j","trial_type":"html-keyboard-response","trial_index":137,"time_elapsed":585088,"internal_node_id":"0.0-5.0-0.5","prolific_id":"6337875a4d0587706d8f2543","session_id":"643c2501d45d44435e0a2f67","study_id":"64370a36d30bfa807bc7e43c","correct":true},{"rt":null,"stimulus":"\n\t\t\t\t\t<p>Correct!</p>\n\t\t\t\t\t","response":null,"trial_type":"html-keyboard-response","trial_index":138,"time_elapsed":586090,"internal_node_id":"0.0-5.0-1.5","prolific_id":"6337875a4d0587706d8f2543","session_id":"643c2501d45d44435e0a2f67","study_id":"64370a36d30bfa807bc7e43c"},{"rt":1356,"stimulus":"\n\t\t\t\t\t\t<div class=\"two_card_container\">\n\t\t\t\t\t\t<div class=\"card_container\">\n\t\t\t\t\t\t<img src=img/11.png>\n\t\t\t\t\t\t</div>\n\n\t\t\t\t\t\t<div class=\"card_container\">\n\t\t\t\t\t\t<img src=img/36.png>\n\t\t\t\t\t\t</div>","response":"j","task":"response","correct_response":"f","trial_type":"html-keyboard-response","trial_index":139,"time_elapsed":587446,"internal_node_id":"0.0-5.0-0.6","prolific_id":"6337875a4d0587706d8f2543","session_id":"643c2501d45d44435e0a2f67","study_id":"64370a36d30bfa807bc7e43c","correct":false},{"rt":null,"stimulus":"\n\t\t\t\t\t<p>Wrong answer</p>\n\t\t\t\t\t","response":null,"trial_type":"html-keyboard-response","trial_index":140,"time_elapsed":588448,"internal_node_id":"0.0-5.0-1.6","prolific_id":"6337875a4d0587706d8f2543","session_id":"643c2501d45d44435e0a2f67","study_id":"64370a36d30bfa807bc7e43c"},{"rt":1232,"stimulus":"\n\t\t\t\t\t\t<div class=\"two_card_container\">\n\t\t\t\t\t\t<div class=\"card_container\">\n\t\t\t\t\t\t<img src=img/37.png>\n\t\t\t\t\t\t</div>\n\n\t\t\t\t\t\t<div class=\"card_container\">\n\t\t\t\t\t\t<img src=img/5.png>\n\t\t\t\t\t\t</div>","response":"f","task":"response","correct_response":"j","trial_type":"html-keyboard-response","trial_index":141,"time_elapsed":589683,"internal_node_id":"0.0-5.0-0.7","prolific_id":"6337875a4d0587706d8f2543","session_id":"643c2501d45d44435e0a2f67","study_id":"64370a36d30bfa807bc7e43c","correct":false},{"rt":null,"stimulus":"\n\t\t\t\t\t<p>Wrong answer</p>\n\t\t\t\t\t","response":null,"trial_type":"html-keyboard-response","trial_index":142,"time_elapsed":590685,"internal_node_id":"0.0-5.0-1.7","prolific_id":"6337875a4d0587706d8f2543","session_id":"643c2501d45d44435e0a2f67","study_id":"64370a36d30bfa807bc7e43c"},{"rt":1190,"stimulus":"\n\t\t\t\t\t\t<div class=\"two_card_container\">\n\t\t\t\t\t\t<div class=\"card_container\">\n\t\t\t\t\t\t<img src=img/22.png>\n\t\t\t\t\t\t</div>\n\n\t\t\t\t\t\t<div class=\"card_container\">\n\t\t\t\t\t\t<img src=img/38.png>\n\t\t\t\t\t\t</div>","response":"j","task":"response","correct_response":"f","trial_type":"html-keyboard-response","trial_index":143,"time_elapsed":591875,"internal_node_id":"0.0-5.0-0.8","prolific_id":"6337875a4d0587706d8f2543","session_id":"643c2501d45d44435e0a2f67","study_id":"64370a36d30bfa807bc7e43c","correct":false},{"rt":null,"stimulus":"\n\t\t\t\t\t<p>Wrong answer</p>\n\t\t\t\t\t","response":null,"trial_type":"html-keyboard-response","trial_index":144,"time_elapsed":592877,"internal_node_id":"0.0-5.0-1.8","prolific_id":"6337875a4d0587706d8f2543","session_id":"643c2501d45d44435e0a2f67","study_id":"64370a36d30bfa807bc7e43c"},{"rt":1111,"stimulus":"\n\t\t\t\t\t\t<div class=\"two_card_container\">\n\t\t\t\t\t\t<div class=\"card_container\">\n\t\t\t\t\t\t<img src=img/26.png>\n\t\t\t\t\t\t</div>\n\n\t\t\t\t\t\t<div class=\"card_container\">\n\t\t\t\t\t\t<img src=img/34.png>\n\t\t\t\t\t\t</div>","response":"f","task":"response","correct_response":"f","trial_type":"html-keyboard-response","trial_index":145,"time_elapsed":593988,"internal_node_id":"0.0-5.0-0.9","prolific_id":"6337875a4d0587706d8f2543","session_id":"643c2501d45d44435e0a2f67","study_id":"64370a36d30bfa807bc7e43c","correct":true},{"rt":null,"stimulus":"\n\t\t\t\t\t<p>Correct!</p>\n\t\t\t\t\t","response":null,"trial_type":"html-keyboard-response","trial_index":146,"time_elapsed":594989,"internal_node_id":"0.0-5.0-1.9","prolific_id":"6337875a4d0587706d8f2543","session_id":"643c2501d45d44435e0a2f67","study_id":"64370a36d30bfa807bc7e43c"},{"rt":null,"stimulus":"\n\t\t\t<h2>Good job :p</h2>\n\t\t\t<p>In the next session, you will see a trivia question on the screen in each trial.</p>\n\t\t\t<p>Each of these trivia questions is chosen from the questions you have already seen in the first session of the experiment.</p><br>\n\t\t\t<p>Your task is to answer the trivia question based on what you remember as accurately as you can.</p>\n\t\t\t<p>Have fun!</p>\n\t\t\t<br>\n\t\t\t<p>The trials will begin in 30 seconds</p>\n\t\t\t","response":null,"trial_type":"html-keyboard-response","trial_index":147,"time_elapsed":624990,"internal_node_id":"0.0-6.0","prolific_id":"6337875a4d0587706d8f2543","session_id":"643c2501d45d44435e0a2f67","study_id":"64370a36d30bfa807bc7e43c"},{"rt":3642,"response":{"answer":"14"},"task":"response","correct_response":"14","trial_type":"survey-text","trial_index":148,"time_elapsed":628636,"internal_node_id":"0.0-7.0-0.0","prolific_id":"6337875a4d0587706d8f2543","session_id":"643c2501d45d44435e0a2f67","study_id":"64370a36d30bfa807bc7e43c","difference":0},{"rt":null,"stimulus":"<h2>The correct answer is 14.</h2><p>Your answer was different from the answer by 0.</p><p>You got the right answer. Amazing work!</p>","response":null,"trial_type":"html-keyboard-response","trial_index":149,"time_elapsed":631137,"internal_node_id":"0.0-7.0-1.0","prolific_id":"6337875a4d0587706d8f2543","session_id":"643c2501d45d44435e0a2f67","study_id":"64370a36d30bfa807bc7e43c"},{"rt":2976,"response":{"answer":"1989"},"task":"response","correct_response":"1989","trial_type":"survey-text","trial_index":150,"time_elapsed":634116,"internal_node_id":"0.0-7.0-0.1","prolific_id":"6337875a4d0587706d8f2543","session_id":"643c2501d45d44435e0a2f67","study_id":"64370a36d30bfa807bc7e43c","difference":0},{"rt":null,"stimulus":"<h2>The correct answer is 1989.</h2><p>Your answer was different from the answer by 0.</p><p>You got the right answer. Amazing work!</p>","response":null,"trial_type":"html-keyboard-response","trial_index":151,"time_elapsed":636616,"internal_node_id":"0.0-7.0-1.1","prolific_id":"6337875a4d0587706d8f2543","session_id":"643c2501d45d44435e0a2f67","study_id":"64370a36d30bfa807bc7e43c"},{"rt":3001,"response":{"answer":"76"},"task":"response","correct_response":"79","trial_type":"survey-text","trial_index":152,"time_elapsed":639620,"internal_node_id":"0.0-7.0-0.2","prolific_id":"6337875a4d0587706d8f2543","session_id":"643c2501d45d44435e0a2f67","study_id":"64370a36d30bfa807bc7e43c","difference":4},{"rt":null,"stimulus":"<h2>The correct answer is 79.</h2><p>Your answer was different from the answer by 3.</p><p>Excellent. Kudos to you!</p>","response":null,"trial_type":"html-keyboard-response","trial_index":153,"time_elapsed":642122,"internal_node_id":"0.0-7.0-1.2","prolific_id":"6337875a4d0587706d8f2543","session_id":"643c2501d45d44435e0a2f67","study_id":"64370a36d30bfa807bc7e43c"},{"rt":3254,"response":{"answer":"28"},"task":"response","correct_response":"28","trial_type":"survey-text","trial_index":154,"time_elapsed":645379,"internal_node_id":"0.0-7.0-0.3","prolific_id":"6337875a4d0587706d8f2543","session_id":"643c2501d45d44435e0a2f67","study_id":"64370a36d30bfa807bc7e43c","difference":0},{"rt":null,"stimulus":"<h2>The correct answer is 28.</h2><p>Your answer was different from the answer by 0.</p><p>You got the right answer. Amazing work!</p>","response":null,"trial_type":"html-keyboard-response","trial_index":155,"time_elapsed":647880,"internal_node_id":"0.0-7.0-1.3","prolific_id":"6337875a4d0587706d8f2543","session_id":"643c2501d45d44435e0a2f67","study_id":"64370a36d30bfa807bc7e43c"},{"rt":2608,"response":{"answer":"11"},"task":"response","correct_response":"11","trial_type":"survey-text","trial_index":156,"time_elapsed":650492,"internal_node_id":"0.0-7.0-0.4","prolific_id":"6337875a4d0587706d8f2543","session_id":"643c2501d45d44435e0a2f67","study_id":"64370a36d30bfa807bc7e43c","difference":0},{"rt":null,"stimulus":"<h2>The correct answer is 11.</h2><p>Your answer was different from the answer by 0.</p><p>You got the right answer. Amazing work!</p>","response":null,"trial_type":"html-keyboard-response","trial_index":157,"time_elapsed":652994,"internal_node_id":"0.0-7.0-1.4","prolific_id":"6337875a4d0587706d8f2543","session_id":"643c2501d45d44435e0a2f67","study_id":"64370a36d30bfa807bc7e43c"},{"rt":4176,"response":{"answer":"15000"},"task":"response","correct_response":"13171","trial_type":"survey-text","trial_index":158,"time_elapsed":657175,"internal_node_id":"0.0-7.0-0.5","prolific_id":"6337875a4d0587706d8f2543","session_id":"643c2501d45d44435e0a2f67","study_id":"64370a36d30bfa807bc7e43c","difference":14},{"rt":null,"stimulus":"<h2>The correct answer is 13171.</h2><p>Your answer was different from the answer by 1829.</p><p>A pretty good job indeed.</p>","response":null,"trial_type":"html-keyboard-response","trial_index":159,"time_elapsed":659678,"internal_node_id":"0.0-7.0-1.5","prolific_id":"6337875a4d0587706d8f2543","session_id":"643c2501d45d44435e0a2f67","study_id":"64370a36d30bfa807bc7e43c"},{"rt":3314,"response":{"answer":"26"},"task":"response","correct_response":"21","trial_type":"survey-text","trial_index":160,"time_elapsed":662997,"internal_node_id":"0.0-7.0-0.6","prolific_id":"6337875a4d0587706d8f2543","session_id":"643c2501d45d44435e0a2f67","study_id":"64370a36d30bfa807bc7e43c","difference":24},{"rt":null,"stimulus":"<h2>The correct answer is 21.</h2><p>Your answer was different from the answer by 5.</p><p>A pretty good job indeed.</p>","response":null,"trial_type":"html-keyboard-response","trial_index":161,"time_elapsed":665499,"internal_node_id":"0.0-7.0-1.6","prolific_id":"6337875a4d0587706d8f2543","session_id":"643c2501d45d44435e0a2f67","study_id":"64370a36d30bfa807bc7e43c"},{"rt":3389,"response":{"answer":"65"},"task":"response","correct_response":"65","trial_type":"survey-text","trial_index":162,"time_elapsed":668892,"internal_node_id":"0.0-7.0-0.7","prolific_id":"6337875a4d0587706d8f2543","session_id":"643c2501d45d44435e0a2f67","study_id":"64370a36d30bfa807bc7e43c","difference":0},{"rt":null,"stimulus":"<h2>The correct answer is 65.</h2><p>Your answer was different from the answer by 0.</p><p>You got the right answer. Amazing work!</p>","response":null,"trial_type":"html-keyboard-response","trial_index":163,"time_elapsed":671393,"internal_node_id":"0.0-7.0-1.7","prolific_id":"6337875a4d0587706d8f2543","session_id":"643c2501d45d44435e0a2f67","study_id":"64370a36d30bfa807bc7e43c"},{"rt":4145,"response":{"answer":"8"},"task":"response","correct_response":"8","trial_type":"survey-text","trial_index":164,"time_elapsed":675540,"internal_node_id":"0.0-7.0-0.8","prolific_id":"6337875a4d0587706d8f2543","session_id":"643c2501d45d44435e0a2f67","study_id":"64370a36d30bfa807bc7e43c","difference":0},{"rt":null,"stimulus":"<h2>The correct answer is 8.</h2><p>Your answer was different from the answer by 0.</p><p>You got the right answer. Amazing work!</p>","response":null,"trial_type":"html-keyboard-response","trial_index":165,"time_elapsed":678042,"internal_node_id":"0.0-7.0-1.8","prolific_id":"6337875a4d0587706d8f2543","session_id":"643c2501d45d44435e0a2f67","study_id":"64370a36d30bfa807bc7e43c"},{"rt":3542,"response":{"answer":"1901"},"task":"response","correct_response":"1901","trial_type":"survey-text","trial_index":166,"time_elapsed":681588,"internal_node_id":"0.0-7.0-0.9","prolific_id":"6337875a4d0587706d8f2543","session_id":"643c2501d45d44435e0a2f67","study_id":"64370a36d30bfa807bc7e43c","difference":0},{"rt":null,"stimulus":"<h2>The correct answer is 1901.</h2><p>Your answer was different from the answer by 0.</p><p>You got the right answer. Amazing work!</p>","response":null,"trial_type":"html-keyboard-response","trial_index":167,"time_elapsed":684089,"internal_node_id":"0.0-7.0-1.9","prolific_id":"6337875a4d0587706d8f2543","session_id":"643c2501d45d44435e0a2f67","study_id":"64370a36d30bfa807bc7e43c"}]