[{"success":true,"timeout":false,"failed_images":[],"failed_audio":[],"failed_video":[],"trial_type":"preload","trial_index":0,"time_elapsed":19223,"internal_node_id":"0.0-0.0","prolific_id":"6365793164c193ec942a66b5","session_id":"643c24b5baf25be8d3512269","study_id":"64370a36d30bfa807bc7e43c"},{"rt":13282,"stimulus":"\n\t\t\t\t\t<p>Welcome and thank you for participating in this study!</p>\n\t\t\t\t\t<p>In each trial, you will be given a trivia question and then be asked to:</p><br>\n\t\t\t\t\t<div class=\"list\">\n\t\t\t\t\t<p>1) Predict the answer</p>\n\t\t\t\t\t<p>2) Rate how much you already know about the topic</p>\n\t\t\t\t\t<p>3) Rate how much you want to know the answer</p>\n\t\t\t\t\t</div>\n\t\t\t\t\t<br>\n\t\t\t\t\t<p>Then, you will see a card that flips over to reveal the answer.</p>\n\t\t\t\t\t<br>\n\t\t\t\t\t<p>Let's try a practice round. Press <span style=\"color: red\"><strong>any key</strong></span> to move to the next slide</p>\n\t\t\t\t\t","response":"f","trial_type":"html-keyboard-response","trial_index":1,"time_elapsed":32507,"internal_node_id":"0.0-1.0","prolific_id":"6365793164c193ec942a66b5","session_id":"643c24b5baf25be8d3512269","study_id":"64370a36d30bfa807bc7e43c"},{"rt":5464,"response":{"practice prediction":"8"},"task":"practice","trial_type":"survey-text","trial_index":2,"time_elapsed":37983,"internal_node_id":"0.0-2.0-0.0","prolific_id":"6365793164c193ec942a66b5","session_id":"643c24b5baf25be8d3512269","study_id":"64370a36d30bfa807bc7e43c"},{"rt":10157,"response":{"practice":3},"accuracy":[],"trial_type":"survey","trial_index":3,"time_elapsed":48244,"internal_node_id":"0.0-2.0-1.0","prolific_id":"6365793164c193ec942a66b5","session_id":"643c24b5baf25be8d3512269","study_id":"64370a36d30bfa807bc7e43c"},{"rt":null,"stimulus":"\n\t\t\t\t<div class=\"flip_card\">\n\t\t\t\t\t<div class=\"flip_card_inner\">\n\t\t\t\t\t\t<div class=\"flip_card_front\">\n\t\t\t\t\t\t\t<img src=img/practice.png>\n\t\t\t\t\t\t</div>\n\t\t\t\t\t\t<div class=\"flip_card_back\">\n\t\t\t\t\t\t\t<h2>\"How many legs does a lobster have?\"</h2>\n\t\t\t\t\t\t    <br>\n\t\t\t\t\t\t    <p>Answer: <strong>\"10\"</strong></p>\n\t\t\t\t\t    </div>\n\t\t\t\t    </div>\n\t\t\t    </div>\n\t\t\t\t","response":null,"trial_type":"html-keyboard-response","trial_index":4,"time_elapsed":53248,"internal_node_id":"0.0-2.0-2.0","prolific_id":"6365793164c193ec942a66b5","session_id":"643c24b5baf25be8d3512269","study_id":"64370a36d30bfa807bc7e43c"},{"rt":5479,"stimulus":"\n\t\t\t\t\t<div>\n\t\t\t\t\t<h2>The practice round is over</h2>\n\t\t\t\t\t<p>Press <span style=\"color: red\"><strong>any key</strong></span> to continue to the actual trials</p>\n\t\t\t\t\t<p>Good Luck!</p>\n\t\t\t\t\t</div>\n\t\t\t\t\t","response":"f","trial_type":"html-keyboard-response","trial_index":5,"time_elapsed":58730,"internal_node_id":"0.0-2.0-3.0","prolific_id":"6365793164c193ec942a66b5","session_id":"643c24b5baf25be8d3512269","study_id":"64370a36d30bfa807bc7e43c"},{"rt":13430,"response":{"prediction":"120"},"trial_type":"survey-text","trial_index":6,"time_elapsed":72167,"internal_node_id":"0.0-3.0-0.0","prolific_id":"6365793164c193ec942a66b5","session_id":"643c24b5baf25be8d3512269","study_id":"64370a36d30bfa807bc7e43c"},{"rt":7840,"response":{"prior knowledge":1,"curiosity":0},"accuracy":[],"trial_type":"survey","trial_index":7,"time_elapsed":80110,"internal_node_id":"0.0-3.0-1.0","prolific_id":"6365793164c193ec942a66b5","session_id":"643c24b5baf25be8d3512269","study_id":"64370a36d30bfa807bc7e43c"},{"rt":null,"stimulus":"\n\t\t\t<div class=\"flip_card\">\n\t\t\t\t<div class=\"flip_card_inner\">\n\t\t\t\t\t<div class=\"flip_card_front\">\n\t\t\t\t\t\t<img src=img/26.png>\n\t\t\t\t\t</div>\n\t\t\t\t\t<div class=\"flip_card_back\">\n\t\t\t\t\t\t<h2>How many double stitches does a baseball have?</h2>\n\t\t\t\t\t\t<br>\n\t\t\t\t\t\t<p>Answer: <strong>108</strong></p>\n\t\t\t\t\t</div>\n\t\t\t\t</div>\n\t\t\t</div>\n\t\t\t","response":null,"trial_type":"html-keyboard-response","trial_index":8,"time_elapsed":85115,"internal_node_id":"0.0-3.0-2.0","prolific_id":"6365793164c193ec942a66b5","session_id":"643c24b5baf25be8d3512269","study_id":"64370a36d30bfa807bc7e43c"},{"rt":1338,"stimulus":"\n\t\t\t\t\t<div>\n\t\t\t\t\t<h2>Trial 1 is over</h2>\n\t\t\t\t\t<p>Press <span style=\"color: red\"><strong>any key</strong></span> to continue to the next trial</p>\n\t\t\t\t\t</div>\n\t\t\t\t","response":"f","trial_type":"html-keyboard-response","trial_index":9,"time_elapsed":86456,"internal_node_id":"0.0-3.0-3.0","prolific_id":"6365793164c193ec942a66b5","session_id":"643c24b5baf25be8d3512269","study_id":"64370a36d30bfa807bc7e43c"},{"rt":7132,"response":{"prediction":"25"},"trial_type":"survey-text","trial_index":10,"time_elapsed":93592,"internal_node_id":"0.0-3.0-0.1","prolific_id":"6365793164c193ec942a66b5","session_id":"643c24b5baf25be8d3512269","study_id":"64370a36d30bfa807bc7e43c"},{"rt":3187,"response":{"prior knowledge":1,"curiosity":0},"accuracy":[],"trial_type":"survey","trial_index":11,"time_elapsed":96828,"internal_node_id":"0.0-3.0-1.1","prolific_id":"6365793164c193ec942a66b5","session_id":"643c24b5baf25be8d3512269","study_id":"64370a36d30bfa807bc7e43c"},{"rt":null,"stimulus":"\n\t\t\t<div class=\"flip_card\">\n\t\t\t\t<div class=\"flip_card_inner\">\n\t\t\t\t\t<div class=\"flip_card_front\">\n\t\t\t\t\t\t<img src=img/19.png>\n\t\t\t\t\t</div>\n\t\t\t\t\t<div class=\"flip_card_back\">\n\t\t\t\t\t\t<h2>How many constellations are there?</h2>\n\t\t\t\t\t\t<br>\n\t\t\t\t\t\t<p>Answer: <strong>88</strong></p>\n\t\t\t\t\t</div>\n\t\t\t\t</div>\n\t\t\t</div>\n\t\t\t","response":null,"trial_type":"html-keyboard-response","trial_index":12,"time_elapsed":101831,"internal_node_id":"0.0-3.0-2.1","prolific_id":"6365793164c193ec942a66b5","session_id":"643c24b5baf25be8d3512269","study_id":"64370a36d30bfa807bc7e43c"},{"rt":794,"stimulus":"\n\t\t\t\t\t<div>\n\t\t\t\t\t<h2>Trial 2 is over</h2>\n\t\t\t\t\t<p>Press <span style=\"color: red\"><strong>any key</strong></span> to continue to the next trial</p>\n\t\t\t\t\t</div>\n\t\t\t\t","response":"f","trial_type":"html-keyboard-response","trial_index":13,"time_elapsed":102626,"internal_node_id":"0.0-3.0-3.1","prolific_id":"6365793164c193ec942a66b5","session_id":"643c24b5baf25be8d3512269","study_id":"64370a36d30bfa807bc7e43c"},{"rt":4402,"response":{"prediction":"20"},"trial_type":"survey-text","trial_index":14,"time_elapsed":107032,"internal_node_id":"0.0-3.0-0.2","prolific_id":"6365793164c193ec942a66b5","session_id":"643c24b5baf25be8d3512269","study_id":"64370a36d30bfa807bc7e43c"},{"rt":3804,"response":{"prior knowledge":1,"curiosity":0},"accuracy":[],"trial_type":"survey","trial_index":15,"time_elapsed":110875,"internal_node_id":"0.0-3.0-1.2","prolific_id":"6365793164c193ec942a66b5","session_id":"643c24b5baf25be8d3512269","study_id":"64370a36d30bfa807bc7e43c"},{"rt":null,"stimulus":"\n\t\t\t<div class=\"flip_card\">\n\t\t\t\t<div class=\"flip_card_inner\">\n\t\t\t\t\t<div class=\"flip_card_front\">\n\t\t\t\t\t\t<img src=img/17.png>\n\t\t\t\t\t</div>\n\t\t\t\t\t<div class=\"flip_card_back\">\n\t\t\t\t\t\t<h2>How many books has Stephen King published?</h2>\n\t\t\t\t\t\t<br>\n\t\t\t\t\t\t<p>Answer: <strong>65</strong></p>\n\t\t\t\t\t</div>\n\t\t\t\t</div>\n\t\t\t</div>\n\t\t\t","response":null,"trial_type":"html-keyboard-response","trial_index":16,"time_elapsed":115878,"internal_node_id":"0.0-3.0-2.2","prolific_id":"6365793164c193ec942a66b5","session_id":"643c24b5baf25be8d3512269","study_id":"64370a36d30bfa807bc7e43c"},{"rt":843,"stimulus":"\n\t\t\t\t\t<div>\n\t\t\t\t\t<h2>Trial 3 is over</h2>\n\t\t\t\t\t<p>Press <span style=\"color: red\"><strong>any key</strong></span> to continue to the next trial</p>\n\t\t\t\t\t</div>\n\t\t\t\t","response":"f","trial_type":"html-keyboard-response","trial_index":17,"time_elapsed":116722,"internal_node_id":"0.0-3.0-3.2","prolific_id":"6365793164c193ec942a66b5","session_id":"643c24b5baf25be8d3512269","study_id":"64370a36d30bfa807bc7e43c"},{"rt":14259,"response":{"prediction":"13400"},"trial_type":"survey-text","trial_index":18,"time_elapsed":130985,"internal_node_id":"0.0-3.0-0.3","prolific_id":"6365793164c193ec942a66b5","session_id":"643c24b5baf25be8d3512269","study_id":"64370a36d30bfa807bc7e43c"},{"rt":3901,"response":{"prior knowledge":3,"curiosity":1},"accuracy":[],"trial_type":"survey","trial_index":19,"time_elapsed":134942,"internal_node_id":"0.0-3.0-1.3","prolific_id":"6365793164c193ec942a66b5","session_id":"643c24b5baf25be8d3512269","study_id":"64370a36d30bfa807bc7e43c"},{"rt":null,"stimulus":"\n\t\t\t<div class=\"flip_card\">\n\t\t\t\t<div class=\"flip_card_inner\">\n\t\t\t\t\t<div class=\"flip_card_front\">\n\t\t\t\t\t\t<img src=img/24.png>\n\t\t\t\t\t</div>\n\t\t\t\t\t<div class=\"flip_card_back\">\n\t\t\t\t\t\t<h2>What is the diameter of Earth in miles?</h2>\n\t\t\t\t\t\t<br>\n\t\t\t\t\t\t<p>Answer: <strong>7917.5</strong></p>\n\t\t\t\t\t</div>\n\t\t\t\t</div>\n\t\t\t</div>\n\t\t\t","response":null,"trial_type":"html-keyboard-response","trial_index":20,"time_elapsed":139947,"internal_node_id":"0.0-3.0-2.3","prolific_id":"6365793164c193ec942a66b5","session_id":"643c24b5baf25be8d3512269","study_id":"64370a36d30bfa807bc7e43c"},{"rt":3508,"stimulus":"\n\t\t\t\t\t<div>\n\t\t\t\t\t<h2>Trial 4 is over</h2>\n\t\t\t\t\t<p>Press <span style=\"color: red\"><strong>any key</strong></span> to continue to the next trial</p>\n\t\t\t\t\t</div>\n\t\t\t\t","response":"enter","trial_type":"html-keyboard-response","trial_index":21,"time_elapsed":143465,"internal_node_id":"0.0-3.0-3.3","prolific_id":"6365793164c193ec942a66b5","session_id":"643c24b5baf25be8d3512269","study_id":"64370a36d30bfa807bc7e43c"},{"rt":9652,"response":{"prediction":"3"},"trial_type":"survey-text","trial_index":22,"time_elapsed":153128,"internal_node_id":"0.0-3.0-0.4","prolific_id":"6365793164c193ec942a66b5","session_id":"643c24b5baf25be8d3512269","study_id":"64370a36d30bfa807bc7e43c"},{"rt":3462,"response":{"prior knowledge":2,"curiosity":0},"accuracy":[],"trial_type":"survey","trial_index":23,"time_elapsed":156706,"internal_node_id":"0.0-3.0-1.4","prolific_id":"6365793164c193ec942a66b5","session_id":"643c24b5baf25be8d3512269","study_id":"64370a36d30bfa807bc7e43c"},{"rt":null,"stimulus":"\n\t\t\t<div class=\"flip_card\">\n\t\t\t\t<div class=\"flip_card_inner\">\n\t\t\t\t\t<div class=\"flip_card_front\">\n\t\t\t\t\t\t<img src=img/1.png>\n\t\t\t\t\t</div>\n\t\t\t\t\t<div class=\"flip_card_back\">\n\t\t\t\t\t\t<h2>How many countries in Africa have French as the official language?</h2>\n\t\t\t\t\t\t<br>\n\t\t\t\t\t\t<p>Answer: <strong>21</strong></p>\n\t\t\t\t\t</div>\n\t\t\t\t</div>\n\t\t\t</div>\n\t\t\t","response":null,"trial_type":"html-keyboard-response","trial_index":24,"time_elapsed":161710,"internal_node_id":"0.0-3.0-2.4","prolific_id":"6365793164c193ec942a66b5","session_id":"643c24b5baf25be8d3512269","study_id":"64370a36d30bfa807bc7e43c"},{"rt":754,"stimulus":"\n\t\t\t\t\t<div>\n\t\t\t\t\t<h2>Trial 5 is over</h2>\n\t\t\t\t\t<p>Press <span style=\"color: red\"><strong>any key</strong></span> to continue to the next trial</p>\n\t\t\t\t\t</div>\n\t\t\t\t","response":"f","trial_type":"html-keyboard-response","trial_index":25,"time_elapsed":162464,"internal_node_id":"0.0-3.0-3.4","prolific_id":"6365793164c193ec942a66b5","session_id":"643c24b5baf25be8d3512269","study_id":"64370a36d30bfa807bc7e43c"},{"rt":3909,"response":{"prediction":"4"},"trial_type":"survey-text","trial_index":26,"time_elapsed":166377,"internal_node_id":"0.0-3.0-0.5","prolific_id":"6365793164c193ec942a66b5","session_id":"643c24b5baf25be8d3512269","study_id":"64370a36d30bfa807bc7e43c"},{"rt":5780,"response":{"prior knowledge":0,"curiosity":0},"accuracy":[],"trial_type":"survey","trial_index":27,"time_elapsed":172214,"internal_node_id":"0.0-3.0-1.5","prolific_id":"6365793164c193ec942a66b5","session_id":"643c24b5baf25be8d3512269","study_id":"64370a36d30bfa807bc7e43c"},{"rt":null,"stimulus":"\n\t\t\t<div class=\"flip_card\">\n\t\t\t\t<div class=\"flip_card_inner\">\n\t\t\t\t\t<div class=\"flip_card_front\">\n\t\t\t\t\t\t<img src=img/2.png>\n\t\t\t\t\t</div>\n\t\t\t\t\t<div class=\"flip_card_back\">\n\t\t\t\t\t\t<h2>How many native species of kangaroos are found in Australia?</h2>\n\t\t\t\t\t\t<br>\n\t\t\t\t\t\t<p>Answer: <strong>4</strong></p>\n\t\t\t\t\t</div>\n\t\t\t\t</div>\n\t\t\t</div>\n\t\t\t","response":null,"trial_type":"html-keyboard-response","trial_index":28,"time_elapsed":177217,"internal_node_id":"0.0-3.0-2.5","prolific_id":"6365793164c193ec942a66b5","session_id":"643c24b5baf25be8d3512269","study_id":"64370a36d30bfa807bc7e43c"},{"rt":654,"stimulus":"\n\t\t\t\t\t<div>\n\t\t\t\t\t<h2>Trial 6 is over</h2>\n\t\t\t\t\t<p>Press <span style=\"color: red\"><strong>any key</strong></span> to continue to the next trial</p>\n\t\t\t\t\t</div>\n\t\t\t\t","response":"f","trial_type":"html-keyboard-response","trial_index":29,"time_elapsed":177872,"internal_node_id":"0.0-3.0-3.5","prolific_id":"6365793164c193ec942a66b5","session_id":"643c24b5baf25be8d3512269","study_id":"64370a36d30bfa807bc7e43c"},{"rt":10787,"response":{"prediction":"2"},"trial_type":"survey-text","trial_index":30,"time_elapsed":188667,"internal_node_id":"0.0-3.0-0.6","prolific_id":"6365793164c193ec942a66b5","session_id":"643c24b5baf25be8d3512269","study_id":"64370a36d30bfa807bc7e43c"},{"rt":3391,"response":{"prior knowledge":1,"curiosity":0},"accuracy":[],"trial_type":"survey","trial_index":31,"time_elapsed":192103,"internal_node_id":"0.0-3.0-1.6","prolific_id":"6365793164c193ec942a66b5","session_id":"643c24b5baf25be8d3512269","study_id":"64370a36d30bfa807bc7e43c"},{"rt":null,"stimulus":"\n\t\t\t<div class=\"flip_card\">\n\t\t\t\t<div class=\"flip_card_inner\">\n\t\t\t\t\t<div class=\"flip_card_front\">\n\t\t\t\t\t\t<img src=img/4.png>\n\t\t\t\t\t</div>\n\t\t\t\t\t<div class=\"flip_card_back\">\n\t\t\t\t\t\t<h2>How many people are vegan globally (in millions)?</h2>\n\t\t\t\t\t\t<br>\n\t\t\t\t\t\t<p>Answer: <strong>79</strong></p>\n\t\t\t\t\t</div>\n\t\t\t\t</div>\n\t\t\t</div>\n\t\t\t","response":null,"trial_type":"html-keyboard-response","trial_index":32,"time_elapsed":197109,"internal_node_id":"0.0-3.0-2.6","prolific_id":"6365793164c193ec942a66b5","session_id":"643c24b5baf25be8d3512269","study_id":"64370a36d30bfa807bc7e43c"},{"rt":1515,"stimulus":"\n\t\t\t\t\t<div>\n\t\t\t\t\t<h2>Trial 7 is over</h2>\n\t\t\t\t\t<p>Press <span style=\"color: red\"><strong>any key</strong></span> to continue to the next trial</p>\n\t\t\t\t\t</div>\n\t\t\t\t","response":"enter","trial_type":"html-keyboard-response","trial_index":33,"time_elapsed":198627,"internal_node_id":"0.0-3.0-3.6","prolific_id":"6365793164c193ec942a66b5","session_id":"643c24b5baf25be8d3512269","study_id":"64370a36d30bfa807bc7e43c"},{"rt":4782,"response":{"prediction":"19"},"trial_type":"survey-text","trial_index":34,"time_elapsed":203425,"internal_node_id":"0.0-3.0-0.7","prolific_id":"6365793164c193ec942a66b5","session_id":"643c24b5baf25be8d3512269","study_id":"64370a36d30bfa807bc7e43c"},{"rt":4084,"response":{"prior knowledge":1,"curiosity":0},"accuracy":[],"trial_type":"survey","trial_index":35,"time_elapsed":207595,"internal_node_id":"0.0-3.0-1.7","prolific_id":"6365793164c193ec942a66b5","session_id":"643c24b5baf25be8d3512269","study_id":"64370a36d30bfa807bc7e43c"},{"rt":null,"stimulus":"\n\t\t\t<div class=\"flip_card\">\n\t\t\t\t<div class=\"flip_card_inner\">\n\t\t\t\t\t<div class=\"flip_card_front\">\n\t\t\t\t\t\t<img src=img/23.png>\n\t\t\t\t\t</div>\n\t\t\t\t\t<div class=\"flip_card_back\">\n\t\t\t\t\t\t<h2>How old was King Tut when he died?</h2>\n\t\t\t\t\t\t<br>\n\t\t\t\t\t\t<p>Answer: <strong>19</strong></p>\n\t\t\t\t\t</div>\n\t\t\t\t</div>\n\t\t\t</div>\n\t\t\t","response":null,"trial_type":"html-keyboard-response","trial_index":36,"time_elapsed":212599,"internal_node_id":"0.0-3.0-2.7","prolific_id":"6365793164c193ec942a66b5","session_id":"643c24b5baf25be8d3512269","study_id":"64370a36d30bfa807bc7e43c"},{"rt":691,"stimulus":"\n\t\t\t\t\t<div>\n\t\t\t\t\t<h2>Trial 8 is over</h2>\n\t\t\t\t\t<p>Press <span style=\"color: red\"><strong>any key</strong></span> to continue to the next trial</p>\n\t\t\t\t\t</div>\n\t\t\t\t","response":"f","trial_type":"html-keyboard-response","trial_index":37,"time_elapsed":213291,"internal_node_id":"0.0-3.0-3.7","prolific_id":"6365793164c193ec942a66b5","session_id":"643c24b5baf25be8d3512269","study_id":"64370a36d30bfa807bc7e43c"},{"rt":6788,"response":{"prediction":"140"},"trial_type":"survey-text","trial_index":38,"time_elapsed":220085,"internal_node_id":"0.0-3.0-0.8","prolific_id":"6365793164c193ec942a66b5","session_id":"643c24b5baf25be8d3512269","study_id":"64370a36d30bfa807bc7e43c"},{"rt":3456,"response":{"prior knowledge":2,"curiosity":0},"accuracy":[],"trial_type":"survey","trial_index":39,"time_elapsed":223591,"internal_node_id":"0.0-3.0-1.8","prolific_id":"6365793164c193ec942a66b5","session_id":"643c24b5baf25be8d3512269","study_id":"64370a36d30bfa807bc7e43c"},{"rt":null,"stimulus":"\n\t\t\t<div class=\"flip_card\">\n\t\t\t\t<div class=\"flip_card_inner\">\n\t\t\t\t\t<div class=\"flip_card_front\">\n\t\t\t\t\t\t<img src=img/22.png>\n\t\t\t\t\t</div>\n\t\t\t\t\t<div class=\"flip_card_back\">\n\t\t\t\t\t\t<h2>How many floors are in the Burj Khalifa, the tallest building in the world?</h2>\n\t\t\t\t\t\t<br>\n\t\t\t\t\t\t<p>Answer: <strong>163</strong></p>\n\t\t\t\t\t</div>\n\t\t\t\t</div>\n\t\t\t</div>\n\t\t\t","response":null,"trial_type":"html-keyboard-response","trial_index":40,"time_elapsed":228595,"internal_node_id":"0.0-3.0-2.8","prolific_id":"6365793164c193ec942a66b5","session_id":"643c24b5baf25be8d3512269","study_id":"64370a36d30bfa807bc7e43c"},{"rt":953,"stimulus":"\n\t\t\t\t\t<div>\n\t\t\t\t\t<h2>Trial 9 is over</h2>\n\t\t\t\t\t<p>Press <span style=\"color: red\"><strong>any key</strong></span> to continue to the next trial</p>\n\t\t\t\t\t</div>\n\t\t\t\t","response":"f","trial_type":"html-keyboard-response","trial_index":41,"time_elapsed":229549,"internal_node_id":"0.0-3.0-3.8","prolific_id":"6365793164c193ec942a66b5","session_id":"643c24b5baf25be8d3512269","study_id":"64370a36d30bfa807bc7e43c"},{"rt":3174,"response":{"prediction":"13"},"trial_type":"survey-text","trial_index":42,"time_elapsed":232730,"internal_node_id":"0.0-3.0-0.9","prolific_id":"6365793164c193ec942a66b5","session_id":"643c24b5baf25be8d3512269","study_id":"64370a36d30bfa807bc7e43c"},{"rt":3137,"response":{"prior knowledge":5,"curiosity":0},"accuracy":[],"trial_type":"survey","trial_index":43,"time_elapsed":235908,"internal_node_id":"0.0-3.0-1.9","prolific_id":"6365793164c193ec942a66b5","session_id":"643c24b5baf25be8d3512269","study_id":"64370a36d30bfa807bc7e43c"},{"rt":null,"stimulus":"\n\t\t\t<div class=\"flip_card\">\n\t\t\t\t<div class=\"flip_card_inner\">\n\t\t\t\t\t<div class=\"flip_card_front\">\n\t\t\t\t\t\t<img src=img/14.png>\n\t\t\t\t\t</div>\n\t\t\t\t\t<div class=\"flip_card_back\">\n\t\t\t\t\t\t<h2>How much is in a Baker's Dozen?</h2>\n\t\t\t\t\t\t<br>\n\t\t\t\t\t\t<p>Answer: <strong>13</strong></p>\n\t\t\t\t\t</div>\n\t\t\t\t</div>\n\t\t\t</div>\n\t\t\t","response":null,"trial_type":"html-keyboard-response","trial_index":44,"time_elapsed":240911,"internal_node_id":"0.0-3.0-2.9","prolific_id":"6365793164c193ec942a66b5","session_id":"643c24b5baf25be8d3512269","study_id":"64370a36d30bfa807bc7e43c"},{"rt":1262,"stimulus":"\n\t\t\t\t\t<div>\n\t\t\t\t\t<h2>Trial 10 is over</h2>\n\t\t\t\t\t<p>Press <span style=\"color: red\"><strong>any key</strong></span> to continue to the next trial</p>\n\t\t\t\t\t</div>\n\t\t\t\t","response":"f","trial_type":"html-keyboard-response","trial_index":45,"time_elapsed":242174,"internal_node_id":"0.0-3.0-3.9","prolific_id":"6365793164c193ec942a66b5","session_id":"643c24b5baf25be8d3512269","study_id":"64370a36d30bfa807bc7e43c"},{"rt":11652,"response":{"prediction":"9"},"trial_type":"survey-text","trial_index":46,"time_elapsed":253832,"internal_node_id":"0.0-3.0-0.10","prolific_id":"6365793164c193ec942a66b5","session_id":"643c24b5baf25be8d3512269","study_id":"64370a36d30bfa807bc7e43c"},{"rt":5518,"response":{"prior knowledge":2,"curiosity":4},"accuracy":[],"trial_type":"survey","trial_index":47,"time_elapsed":259394,"internal_node_id":"0.0-3.0-1.10","prolific_id":"6365793164c193ec942a66b5","session_id":"643c24b5baf25be8d3512269","study_id":"64370a36d30bfa807bc7e43c"},{"rt":null,"stimulus":"\n\t\t\t<div class=\"flip_card\">\n\t\t\t\t<div class=\"flip_card_inner\">\n\t\t\t\t\t<div class=\"flip_card_front\">\n\t\t\t\t\t\t<img src=img/10.png>\n\t\t\t\t\t</div>\n\t\t\t\t\t<div class=\"flip_card_back\">\n\t\t\t\t\t\t<h2>How many moons does Neptune have?</h2>\n\t\t\t\t\t\t<br>\n\t\t\t\t\t\t<p>Answer: <strong>14</strong></p>\n\t\t\t\t\t</div>\n\t\t\t\t</div>\n\t\t\t</div>\n\t\t\t","response":null,"trial_type":"html-keyboard-response","trial_index":48,"time_elapsed":264400,"internal_node_id":"0.0-3.0-2.10","prolific_id":"6365793164c193ec942a66b5","session_id":"643c24b5baf25be8d3512269","study_id":"64370a36d30bfa807bc7e43c"},{"rt":627,"stimulus":"\n\t\t\t\t\t<div>\n\t\t\t\t\t<h2>Trial 11 is over</h2>\n\t\t\t\t\t<p>Press <span style=\"color: red\"><strong>any key</strong></span> to continue to the next trial</p>\n\t\t\t\t\t</div>\n\t\t\t\t","response":"f","trial_type":"html-keyboard-response","trial_index":49,"time_elapsed":265031,"internal_node_id":"0.0-3.0-3.10","prolific_id":"6365793164c193ec942a66b5","session_id":"643c24b5baf25be8d3512269","study_id":"64370a36d30bfa807bc7e43c"},{"rt":13655,"response":{"prediction":"13"},"trial_type":"survey-text","trial_index":50,"time_elapsed":278699,"internal_node_id":"0.0-3.0-0.11","prolific_id":"6365793164c193ec942a66b5","session_id":"643c24b5baf25be8d3512269","study_id":"64370a36d30bfa807bc7e43c"},{"rt":6146,"response":{"prior knowledge":2,"curiosity":3},"accuracy":[],"trial_type":"survey","trial_index":51,"time_elapsed":284970,"internal_node_id":"0.0-3.0-1.11","prolific_id":"6365793164c193ec942a66b5","session_id":"643c24b5baf25be8d3512269","study_id":"64370a36d30bfa807bc7e43c"},{"rt":null,"stimulus":"\n\t\t\t<div class=\"flip_card\">\n\t\t\t\t<div class=\"flip_card_inner\">\n\t\t\t\t\t<div class=\"flip_card_front\">\n\t\t\t\t\t\t<img src=img/18.png>\n\t\t\t\t\t</div>\n\t\t\t\t\t<div class=\"flip_card_back\">\n\t\t\t\t\t\t<h2>How many different animals (real or imaginary) are represented in the Chinese calendar?</h2>\n\t\t\t\t\t\t<br>\n\t\t\t\t\t\t<p>Answer: <strong>12</strong></p>\n\t\t\t\t\t</div>\n\t\t\t\t</div>\n\t\t\t</div>\n\t\t\t","response":null,"trial_type":"html-keyboard-response","trial_index":52,"time_elapsed":289974,"internal_node_id":"0.0-3.0-2.11","prolific_id":"6365793164c193ec942a66b5","session_id":"643c24b5baf25be8d3512269","study_id":"64370a36d30bfa807bc7e43c"},{"rt":1151,"stimulus":"\n\t\t\t\t\t<div>\n\t\t\t\t\t<h2>Trial 12 is over</h2>\n\t\t\t\t\t<p>Press <span style=\"color: red\"><strong>any key</strong></span> to continue to the next trial</p>\n\t\t\t\t\t</div>\n\t\t\t\t","response":"f","trial_type":"html-keyboard-response","trial_index":53,"time_elapsed":291127,"internal_node_id":"0.0-3.0-3.11","prolific_id":"6365793164c193ec942a66b5","session_id":"643c24b5baf25be8d3512269","study_id":"64370a36d30bfa807bc7e43c"},{"rt":8074,"response":{"prediction":"16"},"trial_type":"survey-text","trial_index":54,"time_elapsed":299207,"internal_node_id":"0.0-3.0-0.12","prolific_id":"6365793164c193ec942a66b5","session_id":"643c24b5baf25be8d3512269","study_id":"64370a36d30bfa807bc7e43c"},{"rt":3545,"response":{"prior knowledge":0,"curiosity":0},"accuracy":[],"trial_type":"survey","trial_index":55,"time_elapsed":302810,"internal_node_id":"0.0-3.0-1.12","prolific_id":"6365793164c193ec942a66b5","session_id":"643c24b5baf25be8d3512269","study_id":"64370a36d30bfa807bc7e43c"},{"rt":null,"stimulus":"\n\t\t\t<div class=\"flip_card\">\n\t\t\t\t<div class=\"flip_card_inner\">\n\t\t\t\t\t<div class=\"flip_card_front\">\n\t\t\t\t\t\t<img src=img/6.png>\n\t\t\t\t\t</div>\n\t\t\t\t\t<div class=\"flip_card_back\">\n\t\t\t\t\t\t<h2>How many single hand gestures, or mudras, are used in Indian classical dance?</h2>\n\t\t\t\t\t\t<br>\n\t\t\t\t\t\t<p>Answer: <strong>28</strong></p>\n\t\t\t\t\t</div>\n\t\t\t\t</div>\n\t\t\t</div>\n\t\t\t","response":null,"trial_type":"html-keyboard-response","trial_index":56,"time_elapsed":307814,"internal_node_id":"0.0-3.0-2.12","prolific_id":"6365793164c193ec942a66b5","session_id":"643c24b5baf25be8d3512269","study_id":"64370a36d30bfa807bc7e43c"},{"rt":2025,"stimulus":"\n\t\t\t\t\t<div>\n\t\t\t\t\t<h2>Trial 13 is over</h2>\n\t\t\t\t\t<p>Press <span style=\"color: red\"><strong>any key</strong></span> to continue to the next trial</p>\n\t\t\t\t\t</div>\n\t\t\t\t","response":"f","trial_type":"html-keyboard-response","trial_index":57,"time_elapsed":309840,"internal_node_id":"0.0-3.0-3.12","prolific_id":"6365793164c193ec942a66b5","session_id":"643c24b5baf25be8d3512269","study_id":"64370a36d30bfa807bc7e43c"},{"rt":4770,"response":{"prediction":"2008"},"trial_type":"survey-text","trial_index":58,"time_elapsed":314616,"internal_node_id":"0.0-3.0-0.13","prolific_id":"6365793164c193ec942a66b5","session_id":"643c24b5baf25be8d3512269","study_id":"64370a36d30bfa807bc7e43c"},{"rt":3320,"response":{"prior knowledge":4,"curiosity":0},"accuracy":[],"trial_type":"survey","trial_index":59,"time_elapsed":317988,"internal_node_id":"0.0-3.0-1.13","prolific_id":"6365793164c193ec942a66b5","session_id":"643c24b5baf25be8d3512269","study_id":"64370a36d30bfa807bc7e43c"},{"rt":null,"stimulus":"\n\t\t\t<div class=\"flip_card\">\n\t\t\t\t<div class=\"flip_card_inner\">\n\t\t\t\t\t<div class=\"flip_card_front\">\n\t\t\t\t\t\t<img src=img/3.png>\n\t\t\t\t\t</div>\n\t\t\t\t\t<div class=\"flip_card_back\">\n\t\t\t\t\t\t<h2>What year was the very first model of the iPhone released?</h2>\n\t\t\t\t\t\t<br>\n\t\t\t\t\t\t<p>Answer: <strong>2007</strong></p>\n\t\t\t\t\t</div>\n\t\t\t\t</div>\n\t\t\t</div>\n\t\t\t","response":null,"trial_type":"html-keyboard-response","trial_index":60,"time_elapsed":322992,"internal_node_id":"0.0-3.0-2.13","prolific_id":"6365793164c193ec942a66b5","session_id":"643c24b5baf25be8d3512269","study_id":"64370a36d30bfa807bc7e43c"},{"rt":909,"stimulus":"\n\t\t\t\t\t<div>\n\t\t\t\t\t<h2>Trial 14 is over</h2>\n\t\t\t\t\t<p>Press <span style=\"color: red\"><strong>any key</strong></span> to continue to the next trial</p>\n\t\t\t\t\t</div>\n\t\t\t\t","response":"f","trial_type":"html-keyboard-response","trial_index":61,"time_elapsed":323900,"internal_node_id":"0.0-3.0-3.13","prolific_id":"6365793164c193ec942a66b5","session_id":"643c24b5baf25be8d3512269","study_id":"64370a36d30bfa807bc7e43c"},{"rt":3425,"response":{"prediction":"13"},"trial_type":"survey-text","trial_index":62,"time_elapsed":327335,"internal_node_id":"0.0-3.0-0.14","prolific_id":"6365793164c193ec942a66b5","session_id":"643c24b5baf25be8d3512269","study_id":"64370a36d30bfa807bc7e43c"},{"rt":3504,"response":{"prior knowledge":4,"curiosity":0},"accuracy":[],"trial_type":"survey","trial_index":63,"time_elapsed":330968,"internal_node_id":"0.0-3.0-1.14","prolific_id":"6365793164c193ec942a66b5","session_id":"643c24b5baf25be8d3512269","study_id":"64370a36d30bfa807bc7e43c"},{"rt":null,"stimulus":"\n\t\t\t<div class=\"flip_card\">\n\t\t\t\t<div class=\"flip_card_inner\">\n\t\t\t\t\t<div class=\"flip_card_front\">\n\t\t\t\t\t\t<img src=img/30.png>\n\t\t\t\t\t</div>\n\t\t\t\t\t<div class=\"flip_card_back\">\n\t\t\t\t\t\t<h2>A bar mitzvah is traditionally celebrated when Jewish males turn what age?</h2>\n\t\t\t\t\t\t<br>\n\t\t\t\t\t\t<p>Answer: <strong>13</strong></p>\n\t\t\t\t\t</div>\n\t\t\t\t</div>\n\t\t\t</div>\n\t\t\t","response":null,"trial_type":"html-keyboard-response","trial_index":64,"time_elapsed":335974,"internal_node_id":"0.0-3.0-2.14","prolific_id":"6365793164c193ec942a66b5","session_id":"643c24b5baf25be8d3512269","study_id":"64370a36d30bfa807bc7e43c"},{"rt":879,"stimulus":"\n\t\t\t\t\t<div>\n\t\t\t\t\t<h2>Trial 15 is over</h2>\n\t\t\t\t\t<p>Press <span style=\"color: red\"><strong>any key</strong></span> to continue to the next trial</p>\n\t\t\t\t\t</div>\n\t\t\t\t","response":"r","trial_type":"html-keyboard-response","trial_index":65,"time_elapsed":336856,"internal_node_id":"0.0-3.0-3.14","prolific_id":"6365793164c193ec942a66b5","session_id":"643c24b5baf25be8d3512269","study_id":"64370a36d30bfa807bc7e43c"},{"rt":2787,"response":{"prediction":"5"},"trial_type":"survey-text","trial_index":66,"time_elapsed":339650,"internal_node_id":"0.0-3.0-0.15","prolific_id":"6365793164c193ec942a66b5","session_id":"643c24b5baf25be8d3512269","study_id":"64370a36d30bfa807bc7e43c"},{"rt":3375,"response":{"prior knowledge":3,"curiosity":0},"accuracy":[],"trial_type":"survey","trial_index":67,"time_elapsed":343081,"internal_node_id":"0.0-3.0-1.15","prolific_id":"6365793164c193ec942a66b5","session_id":"643c24b5baf25be8d3512269","study_id":"64370a36d30bfa807bc7e43c"},{"rt":null,"stimulus":"\n\t\t\t<div class=\"flip_card\">\n\t\t\t\t<div class=\"flip_card_inner\">\n\t\t\t\t\t<div class=\"flip_card_front\">\n\t\t\t\t\t\t<img src=img/5.png>\n\t\t\t\t\t</div>\n\t\t\t\t\t<div class=\"flip_card_back\">\n\t\t\t\t\t\t<h2>How many times a day do Muslims pray?</h2>\n\t\t\t\t\t\t<br>\n\t\t\t\t\t\t<p>Answer: <strong>5</strong></p>\n\t\t\t\t\t</div>\n\t\t\t\t</div>\n\t\t\t</div>\n\t\t\t","response":null,"trial_type":"html-keyboard-response","trial_index":68,"time_elapsed":348084,"internal_node_id":"0.0-3.0-2.15","prolific_id":"6365793164c193ec942a66b5","session_id":"643c24b5baf25be8d3512269","study_id":"64370a36d30bfa807bc7e43c"},{"rt":681,"stimulus":"\n\t\t\t\t\t<div>\n\t\t\t\t\t<h2>Trial 16 is over</h2>\n\t\t\t\t\t<p>Press <span style=\"color: red\"><strong>any key</strong></span> to continue to the next trial</p>\n\t\t\t\t\t</div>\n\t\t\t\t","response":"3","trial_type":"html-keyboard-response","trial_index":69,"time_elapsed":348766,"internal_node_id":"0.0-3.0-3.15","prolific_id":"6365793164c193ec942a66b5","session_id":"643c24b5baf25be8d3512269","study_id":"64370a36d30bfa807bc7e43c"},{"rt":6998,"response":{"prediction":"1930"},"trial_type":"survey-text","trial_index":70,"time_elapsed":355771,"internal_node_id":"0.0-3.0-0.16","prolific_id":"6365793164c193ec942a66b5","session_id":"643c24b5baf25be8d3512269","study_id":"64370a36d30bfa807bc7e43c"},{"rt":2745,"response":{"prior knowledge":1,"curiosity":0},"accuracy":[],"trial_type":"survey","trial_index":71,"time_elapsed":358609,"internal_node_id":"0.0-3.0-1.16","prolific_id":"6365793164c193ec942a66b5","session_id":"643c24b5baf25be8d3512269","study_id":"64370a36d30bfa807bc7e43c"},{"rt":null,"stimulus":"\n\t\t\t<div class=\"flip_card\">\n\t\t\t\t<div class=\"flip_card_inner\">\n\t\t\t\t\t<div class=\"flip_card_front\">\n\t\t\t\t\t\t<img src=img/11.png>\n\t\t\t\t\t</div>\n\t\t\t\t\t<div class=\"flip_card_back\">\n\t\t\t\t\t\t<h2>In what year was the first Nobel Prize awarded?</h2>\n\t\t\t\t\t\t<br>\n\t\t\t\t\t\t<p>Answer: <strong>1901</strong></p>\n\t\t\t\t\t</div>\n\t\t\t\t</div>\n\t\t\t</div>\n\t\t\t","response":null,"trial_type":"html-keyboard-response","trial_index":72,"time_elapsed":363615,"internal_node_id":"0.0-3.0-2.16","prolific_id":"6365793164c193ec942a66b5","session_id":"643c24b5baf25be8d3512269","study_id":"64370a36d30bfa807bc7e43c"},{"rt":1227,"stimulus":"\n\t\t\t\t\t<div>\n\t\t\t\t\t<h2>Trial 17 is over</h2>\n\t\t\t\t\t<p>Press <span style=\"color: red\"><strong>any key</strong></span> to continue to the next trial</p>\n\t\t\t\t\t</div>\n\t\t\t\t","response":"d","trial_type":"html-keyboard-response","trial_index":73,"time_elapsed":364845,"internal_node_id":"0.0-3.0-3.16","prolific_id":"6365793164c193ec942a66b5","session_id":"643c24b5baf25be8d3512269","study_id":"64370a36d30bfa807bc7e43c"},{"rt":4030,"response":{"prediction":"26"},"trial_type":"survey-text","trial_index":74,"time_elapsed":368880,"internal_node_id":"0.0-3.0-0.17","prolific_id":"6365793164c193ec942a66b5","session_id":"643c24b5baf25be8d3512269","study_id":"64370a36d30bfa807bc7e43c"},{"rt":3446,"response":{"prior knowledge":0,"curiosity":0},"accuracy":[],"trial_type":"survey","trial_index":75,"time_elapsed":372395,"internal_node_id":"0.0-3.0-1.17","prolific_id":"6365793164c193ec942a66b5","session_id":"643c24b5baf25be8d3512269","study_id":"64370a36d30bfa807bc7e43c"},{"rt":null,"stimulus":"\n\t\t\t<div class=\"flip_card\">\n\t\t\t\t<div class=\"flip_card_inner\">\n\t\t\t\t\t<div class=\"flip_card_front\">\n\t\t\t\t\t\t<img src=img/13.png>\n\t\t\t\t\t</div>\n\t\t\t\t\t<div class=\"flip_card_back\">\n\t\t\t\t\t\t<h2>How many books are in the Catholic Bible?</h2>\n\t\t\t\t\t\t<br>\n\t\t\t\t\t\t<p>Answer: <strong>73</strong></p>\n\t\t\t\t\t</div>\n\t\t\t\t</div>\n\t\t\t</div>\n\t\t\t","response":null,"trial_type":"html-keyboard-response","trial_index":76,"time_elapsed":377399,"internal_node_id":"0.0-3.0-2.17","prolific_id":"6365793164c193ec942a66b5","session_id":"643c24b5baf25be8d3512269","study_id":"64370a36d30bfa807bc7e43c"},{"rt":1029,"stimulus":"\n\t\t\t\t\t<div>\n\t\t\t\t\t<h2>Trial 18 is over</h2>\n\t\t\t\t\t<p>Press <span style=\"color: red\"><strong>any key</strong></span> to continue to the next trial</p>\n\t\t\t\t\t</div>\n\t\t\t\t","response":"e","trial_type":"html-keyboard-response","trial_index":77,"time_elapsed":378428,"internal_node_id":"0.0-3.0-3.17","prolific_id":"6365793164c193ec942a66b5","session_id":"643c24b5baf25be8d3512269","study_id":"64370a36d30bfa807bc7e43c"},{"rt":3796,"response":{"prediction":"3500"},"trial_type":"survey-text","trial_index":78,"time_elapsed":382229,"internal_node_id":"0.0-3.0-0.18","prolific_id":"6365793164c193ec942a66b5","session_id":"643c24b5baf25be8d3512269","study_id":"64370a36d30bfa807bc7e43c"},{"rt":2756,"response":{"prior knowledge":1,"curiosity":0},"accuracy":[],"trial_type":"survey","trial_index":79,"time_elapsed":385026,"internal_node_id":"0.0-3.0-1.18","prolific_id":"6365793164c193ec942a66b5","session_id":"643c24b5baf25be8d3512269","study_id":"64370a36d30bfa807bc7e43c"},{"rt":null,"stimulus":"\n\t\t\t<div class=\"flip_card\">\n\t\t\t\t<div class=\"flip_card_inner\">\n\t\t\t\t\t<div class=\"flip_card_front\">\n\t\t\t\t\t\t<img src=img/9.png>\n\t\t\t\t\t</div>\n\t\t\t\t\t<div class=\"flip_card_back\">\n\t\t\t\t\t\t<h2>How long is the Great Wall of China (in miles)?</h2>\n\t\t\t\t\t\t<br>\n\t\t\t\t\t\t<p>Answer: <strong>13171</strong></p>\n\t\t\t\t\t</div>\n\t\t\t\t</div>\n\t\t\t</div>\n\t\t\t","response":null,"trial_type":"html-keyboard-response","trial_index":80,"time_elapsed":390029,"internal_node_id":"0.0-3.0-2.18","prolific_id":"6365793164c193ec942a66b5","session_id":"643c24b5baf25be8d3512269","study_id":"64370a36d30bfa807bc7e43c"},{"rt":880,"stimulus":"\n\t\t\t\t\t<div>\n\t\t\t\t\t<h2>Trial 19 is over</h2>\n\t\t\t\t\t<p>Press <span style=\"color: red\"><strong>any key</strong></span> to continue to the next trial</p>\n\t\t\t\t\t</div>\n\t\t\t\t","response":"3","trial_type":"html-keyboard-response","trial_index":81,"time_elapsed":390913,"internal_node_id":"0.0-3.0-3.18","prolific_id":"6365793164c193ec942a66b5","session_id":"643c24b5baf25be8d3512269","study_id":"64370a36d30bfa807bc7e43c"},{"rt":6803,"response":{"prediction":"3"},"trial_type":"survey-text","trial_index":82,"time_elapsed":397729,"internal_node_id":"0.0-3.0-0.19","prolific_id":"6365793164c193ec942a66b5","session_id":"643c24b5baf25be8d3512269","study_id":"64370a36d30bfa807bc7e43c"},{"rt":4035,"response":{"prior knowledge":2,"curiosity":0},"accuracy":[],"trial_type":"survey","trial_index":83,"time_elapsed":401851,"internal_node_id":"0.0-3.0-1.19","prolific_id":"6365793164c193ec942a66b5","session_id":"643c24b5baf25be8d3512269","study_id":"64370a36d30bfa807bc7e43c"},{"rt":null,"stimulus":"\n\t\t\t<div class=\"flip_card\">\n\t\t\t\t<div class=\"flip_card_inner\">\n\t\t\t\t\t<div class=\"flip_card_front\">\n\t\t\t\t\t\t<img src=img/20.png>\n\t\t\t\t\t</div>\n\t\t\t\t\t<div class=\"flip_card_back\">\n\t\t\t\t\t\t<h2>How many main islands make up Japan?</h2>\n\t\t\t\t\t\t<br>\n\t\t\t\t\t\t<p>Answer: <strong>4</strong></p>\n\t\t\t\t\t</div>\n\t\t\t\t</div>\n\t\t\t</div>\n\t\t\t","response":null,"trial_type":"html-keyboard-response","trial_index":84,"time_elapsed":406857,"internal_node_id":"0.0-3.0-2.19","prolific_id":"6365793164c193ec942a66b5","session_id":"643c24b5baf25be8d3512269","study_id":"64370a36d30bfa807bc7e43c"},{"rt":752,"stimulus":"\n\t\t\t\t\t<div>\n\t\t\t\t\t<h2>Trial 20 is over</h2>\n\t\t\t\t\t<p>Press <span style=\"color: red\"><strong>any key</strong></span> to continue to the next trial</p>\n\t\t\t\t\t</div>\n\t\t\t\t","response":"3","trial_type":"html-keyboard-response","trial_index":85,"time_elapsed":407611,"internal_node_id":"0.0-3.0-3.19","prolific_id":"6365793164c193ec942a66b5","session_id":"643c24b5baf25be8d3512269","study_id":"64370a36d30bfa807bc7e43c"},{"rt":3125,"response":{"prediction":"1989"},"trial_type":"survey-text","trial_index":86,"time_elapsed":410741,"internal_node_id":"0.0-3.0-0.20","prolific_id":"6365793164c193ec942a66b5","session_id":"643c24b5baf25be8d3512269","study_id":"64370a36d30bfa807bc7e43c"},{"rt":4370,"response":{"prior knowledge":5,"curiosity":0},"accuracy":[],"trial_type":"survey","trial_index":87,"time_elapsed":415161,"internal_node_id":"0.0-3.0-1.20","prolific_id":"6365793164c193ec942a66b5","session_id":"643c24b5baf25be8d3512269","study_id":"64370a36d30bfa807bc7e43c"},{"rt":null,"stimulus":"\n\t\t\t<div class=\"flip_card\">\n\t\t\t\t<div class=\"flip_card_inner\">\n\t\t\t\t\t<div class=\"flip_card_front\">\n\t\t\t\t\t\t<img src=img/29.png>\n\t\t\t\t\t</div>\n\t\t\t\t\t<div class=\"flip_card_back\">\n\t\t\t\t\t\t<h2>What year did the Berlin Wall fall?</h2>\n\t\t\t\t\t\t<br>\n\t\t\t\t\t\t<p>Answer: <strong>1989</strong></p>\n\t\t\t\t\t</div>\n\t\t\t\t</div>\n\t\t\t</div>\n\t\t\t","response":null,"trial_type":"html-keyboard-response","trial_index":88,"time_elapsed":420166,"internal_node_id":"0.0-3.0-2.20","prolific_id":"6365793164c193ec942a66b5","session_id":"643c24b5baf25be8d3512269","study_id":"64370a36d30bfa807bc7e43c"},{"rt":691,"stimulus":"\n\t\t\t\t\t<div>\n\t\t\t\t\t<h2>Trial 21 is over</h2>\n\t\t\t\t\t<p>Press <span style=\"color: red\"><strong>any key</strong></span> to continue to the next trial</p>\n\t\t\t\t\t</div>\n\t\t\t\t","response":"f","trial_type":"html-keyboard-response","trial_index":89,"time_elapsed":420857,"internal_node_id":"0.0-3.0-3.20","prolific_id":"6365793164c193ec942a66b5","session_id":"643c24b5baf25be8d3512269","study_id":"64370a36d30bfa807bc7e43c"},{"rt":2859,"response":{"prediction":"1914"},"trial_type":"survey-text","trial_index":90,"time_elapsed":423721,"internal_node_id":"0.0-3.0-0.21","prolific_id":"6365793164c193ec942a66b5","session_id":"643c24b5baf25be8d3512269","study_id":"64370a36d30bfa807bc7e43c"},{"rt":2720,"response":{"prior knowledge":4,"curiosity":0},"accuracy":[],"trial_type":"survey","trial_index":91,"time_elapsed":426484,"internal_node_id":"0.0-3.0-1.21","prolific_id":"6365793164c193ec942a66b5","session_id":"643c24b5baf25be8d3512269","study_id":"64370a36d30bfa807bc7e43c"},{"rt":null,"stimulus":"\n\t\t\t<div class=\"flip_card\">\n\t\t\t\t<div class=\"flip_card_inner\">\n\t\t\t\t\t<div class=\"flip_card_front\">\n\t\t\t\t\t\t<img src=img/21.png>\n\t\t\t\t\t</div>\n\t\t\t\t\t<div class=\"flip_card_back\">\n\t\t\t\t\t\t<h2>What year did the titanic sink?</h2>\n\t\t\t\t\t\t<br>\n\t\t\t\t\t\t<p>Answer: <strong>1912</strong></p>\n\t\t\t\t\t</div>\n\t\t\t\t</div>\n\t\t\t</div>\n\t\t\t","response":null,"trial_type":"html-keyboard-response","trial_index":92,"time_elapsed":431486,"internal_node_id":"0.0-3.0-2.21","prolific_id":"6365793164c193ec942a66b5","session_id":"643c24b5baf25be8d3512269","study_id":"64370a36d30bfa807bc7e43c"},{"rt":905,"stimulus":"\n\t\t\t\t\t<div>\n\t\t\t\t\t<h2>Trial 22 is over</h2>\n\t\t\t\t\t<p>Press <span style=\"color: red\"><strong>any key</strong></span> to continue to the next trial</p>\n\t\t\t\t\t</div>\n\t\t\t\t","response":"1","trial_type":"html-keyboard-response","trial_index":93,"time_elapsed":432393,"internal_node_id":"0.0-3.0-3.21","prolific_id":"6365793164c193ec942a66b5","session_id":"643c24b5baf25be8d3512269","study_id":"64370a36d30bfa807bc7e43c"},{"rt":2689,"response":{"prediction":"5"},"trial_type":"survey-text","trial_index":94,"time_elapsed":435086,"internal_node_id":"0.0-3.0-0.22","prolific_id":"6365793164c193ec942a66b5","session_id":"643c24b5baf25be8d3512269","study_id":"64370a36d30bfa807bc7e43c"},{"rt":2278,"response":{"prior knowledge":0,"curiosity":0},"accuracy":[],"trial_type":"survey","trial_index":95,"time_elapsed":437417,"internal_node_id":"0.0-3.0-1.22","prolific_id":"6365793164c193ec942a66b5","session_id":"643c24b5baf25be8d3512269","study_id":"64370a36d30bfa807bc7e43c"},{"rt":null,"stimulus":"\n\t\t\t<div class=\"flip_card\">\n\t\t\t\t<div class=\"flip_card_inner\">\n\t\t\t\t\t<div class=\"flip_card_front\">\n\t\t\t\t\t\t<img src=img/25.png>\n\t\t\t\t\t</div>\n\t\t\t\t\t<div class=\"flip_card_back\">\n\t\t\t\t\t\t<h2>How many tones are in the Vietnamese language?</h2>\n\t\t\t\t\t\t<br>\n\t\t\t\t\t\t<p>Answer: <strong>6</strong></p>\n\t\t\t\t\t</div>\n\t\t\t\t</div>\n\t\t\t</div>\n\t\t\t","response":null,"trial_type":"html-keyboard-response","trial_index":96,"time_elapsed":442421,"internal_node_id":"0.0-3.0-2.22","prolific_id":"6365793164c193ec942a66b5","session_id":"643c24b5baf25be8d3512269","study_id":"64370a36d30bfa807bc7e43c"},{"rt":529,"stimulus":"\n\t\t\t\t\t<div>\n\t\t\t\t\t<h2>Trial 23 is over</h2>\n\t\t\t\t\t<p>Press <span style=\"color: red\"><strong>any key</strong></span> to continue to the next trial</p>\n\t\t\t\t\t</div>\n\t\t\t\t","response":"1","trial_type":"html-keyboard-response","trial_index":97,"time_elapsed":442950,"internal_node_id":"0.0-3.0-3.22","prolific_id":"6365793164c193ec942a66b5","session_id":"643c24b5baf25be8d3512269","study_id":"64370a36d30bfa807bc7e43c"},{"rt":4013,"response":{"prediction":"55"},"trial_type":"survey-text","trial_index":98,"time_elapsed":446968,"internal_node_id":"0.0-3.0-0.23","prolific_id":"6365793164c193ec942a66b5","session_id":"643c24b5baf25be8d3512269","study_id":"64370a36d30bfa807bc7e43c"},{"rt":2407,"response":{"prior knowledge":1,"curiosity":0},"accuracy":[],"trial_type":"survey","trial_index":99,"time_elapsed":449412,"internal_node_id":"0.0-3.0-1.23","prolific_id":"6365793164c193ec942a66b5","session_id":"643c24b5baf25be8d3512269","study_id":"64370a36d30bfa807bc7e43c"},{"rt":null,"stimulus":"\n\t\t\t<div class=\"flip_card\">\n\t\t\t\t<div class=\"flip_card_inner\">\n\t\t\t\t\t<div class=\"flip_card_front\">\n\t\t\t\t\t\t<img src=img/8.png>\n\t\t\t\t\t</div>\n\t\t\t\t\t<div class=\"flip_card_back\">\n\t\t\t\t\t\t<h2>How many countries are in Africa?</h2>\n\t\t\t\t\t\t<br>\n\t\t\t\t\t\t<p>Answer: <strong>54</strong></p>\n\t\t\t\t\t</div>\n\t\t\t\t</div>\n\t\t\t</div>\n\t\t\t","response":null,"trial_type":"html-keyboard-response","trial_index":100,"time_elapsed":454415,"internal_node_id":"0.0-3.0-2.23","prolific_id":"6365793164c193ec942a66b5","session_id":"643c24b5baf25be8d3512269","study_id":"64370a36d30bfa807bc7e43c"},{"rt":628,"stimulus":"\n\t\t\t\t\t<div>\n\t\t\t\t\t<h2>Trial 24 is over</h2>\n\t\t\t\t\t<p>Press <span style=\"color: red\"><strong>any key</strong></span> to continue to the next trial</p>\n\t\t\t\t\t</div>\n\t\t\t\t","response":"1","trial_type":"html-keyboard-response","trial_index":101,"time_elapsed":455046,"internal_node_id":"0.0-3.0-3.23","prolific_id":"6365793164c193ec942a66b5","session_id":"643c24b5baf25be8d3512269","study_id":"64370a36d30bfa807bc7e43c"},{"rt":6479,"response":{"prediction":"10"},"trial_type":"survey-text","trial_index":102,"time_elapsed":461564,"internal_node_id":"0.0-3.0-0.24","prolific_id":"6365793164c193ec942a66b5","session_id":"643c24b5baf25be8d3512269","study_id":"64370a36d30bfa807bc7e43c"},{"rt":3312,"response":{"prior knowledge":2,"curiosity":0},"accuracy":[],"trial_type":"survey","trial_index":103,"time_elapsed":464953,"internal_node_id":"0.0-3.0-1.24","prolific_id":"6365793164c193ec942a66b5","session_id":"643c24b5baf25be8d3512269","study_id":"64370a36d30bfa807bc7e43c"},{"rt":null,"stimulus":"\n\t\t\t<div class=\"flip_card\">\n\t\t\t\t<div class=\"flip_card_inner\">\n\t\t\t\t\t<div class=\"flip_card_front\">\n\t\t\t\t\t\t<img src=img/7.png>\n\t\t\t\t\t</div>\n\t\t\t\t\t<div class=\"flip_card_back\">\n\t\t\t\t\t\t<h2>How many lines are in a sonnet?</h2>\n\t\t\t\t\t\t<br>\n\t\t\t\t\t\t<p>Answer: <strong>14</strong></p>\n\t\t\t\t\t</div>\n\t\t\t\t</div>\n\t\t\t</div>\n\t\t\t","response":null,"trial_type":"html-keyboard-response","trial_index":104,"time_elapsed":469957,"internal_node_id":"0.0-3.0-2.24","prolific_id":"6365793164c193ec942a66b5","session_id":"643c24b5baf25be8d3512269","study_id":"64370a36d30bfa807bc7e43c"},{"rt":737,"stimulus":"\n\t\t\t\t\t<div>\n\t\t\t\t\t<h2>Trial 25 is over</h2>\n\t\t\t\t\t<p>Press <span style=\"color: red\"><strong>any key</strong></span> to continue to the next trial</p>\n\t\t\t\t\t</div>\n\t\t\t\t","response":"1","trial_type":"html-keyboard-response","trial_index":105,"time_elapsed":470696,"internal_node_id":"0.0-3.0-3.24","prolific_id":"6365793164c193ec942a66b5","session_id":"643c24b5baf25be8d3512269","study_id":"64370a36d30bfa807bc7e43c"},{"rt":8478,"response":{"prediction":"600"},"trial_type":"survey-text","trial_index":106,"time_elapsed":479180,"internal_node_id":"0.0-3.0-0.25","prolific_id":"6365793164c193ec942a66b5","session_id":"643c24b5baf25be8d3512269","study_id":"64370a36d30bfa807bc7e43c"},{"rt":3185,"response":{"prior knowledge":0,"curiosity":0},"accuracy":[],"trial_type":"survey","trial_index":107,"time_elapsed":482431,"internal_node_id":"0.0-3.0-1.25","prolific_id":"6365793164c193ec942a66b5","session_id":"643c24b5baf25be8d3512269","study_id":"64370a36d30bfa807bc7e43c"},{"rt":null,"stimulus":"\n\t\t\t<div class=\"flip_card\">\n\t\t\t\t<div class=\"flip_card_inner\">\n\t\t\t\t\t<div class=\"flip_card_front\">\n\t\t\t\t\t\t<img src=img/12.png>\n\t\t\t\t\t</div>\n\t\t\t\t\t<div class=\"flip_card_back\">\n\t\t\t\t\t\t<h2>How many bones is a human baby born with?</h2>\n\t\t\t\t\t\t<br>\n\t\t\t\t\t\t<p>Answer: <strong>300</strong></p>\n\t\t\t\t\t</div>\n\t\t\t\t</div>\n\t\t\t</div>\n\t\t\t","response":null,"trial_type":"html-keyboard-response","trial_index":108,"time_elapsed":487433,"internal_node_id":"0.0-3.0-2.25","prolific_id":"6365793164c193ec942a66b5","session_id":"643c24b5baf25be8d3512269","study_id":"64370a36d30bfa807bc7e43c"},{"rt":742,"stimulus":"\n\t\t\t\t\t<div>\n\t\t\t\t\t<h2>Trial 26 is over</h2>\n\t\t\t\t\t<p>Press <span style=\"color: red\"><strong>any key</strong></span> to continue to the next trial</p>\n\t\t\t\t\t</div>\n\t\t\t\t","response":"1","trial_type":"html-keyboard-response","trial_index":109,"time_elapsed":488176,"internal_node_id":"0.0-3.0-3.25","prolific_id":"6365793164c193ec942a66b5","session_id":"643c24b5baf25be8d3512269","study_id":"64370a36d30bfa807bc7e43c"},{"rt":2331,"response":{"prediction":"11"},"trial_type":"survey-text","trial_index":110,"time_elapsed":490514,"internal_node_id":"0.0-3.0-0.26","prolific_id":"6365793164c193ec942a66b5","session_id":"643c24b5baf25be8d3512269","study_id":"64370a36d30bfa807bc7e43c"},{"rt":2923,"response":{"prior knowledge":4,"curiosity":0},"accuracy":[],"trial_type":"survey","trial_index":111,"time_elapsed":493476,"internal_node_id":"0.0-3.0-1.26","prolific_id":"6365793164c193ec942a66b5","session_id":"643c24b5baf25be8d3512269","study_id":"64370a36d30bfa807bc7e43c"},{"rt":null,"stimulus":"\n\t\t\t<div class=\"flip_card\">\n\t\t\t\t<div class=\"flip_card_inner\">\n\t\t\t\t\t<div class=\"flip_card_front\">\n\t\t\t\t\t\t<img src=img/15.png>\n\t\t\t\t\t</div>\n\t\t\t\t\t<div class=\"flip_card_back\">\n\t\t\t\t\t\t<h2>How many soccer players should each team have on the field at the start of each match?</h2>\n\t\t\t\t\t\t<br>\n\t\t\t\t\t\t<p>Answer: <strong>11</strong></p>\n\t\t\t\t\t</div>\n\t\t\t\t</div>\n\t\t\t</div>\n\t\t\t","response":null,"trial_type":"html-keyboard-response","trial_index":112,"time_elapsed":498480,"internal_node_id":"0.0-3.0-2.26","prolific_id":"6365793164c193ec942a66b5","session_id":"643c24b5baf25be8d3512269","study_id":"64370a36d30bfa807bc7e43c"},{"rt":602,"stimulus":"\n\t\t\t\t\t<div>\n\t\t\t\t\t<h2>Trial 27 is over</h2>\n\t\t\t\t\t<p>Press <span style=\"color: red\"><strong>any key</strong></span> to continue to the next trial</p>\n\t\t\t\t\t</div>\n\t\t\t\t","response":"1","trial_type":"html-keyboard-response","trial_index":113,"time_elapsed":499085,"internal_node_id":"0.0-3.0-3.26","prolific_id":"6365793164c193ec942a66b5","session_id":"643c24b5baf25be8d3512269","study_id":"64370a36d30bfa807bc7e43c"},{"rt":9508,"response":{"prediction":"6"},"trial_type":"survey-text","trial_index":114,"time_elapsed":508598,"internal_node_id":"0.0-3.0-0.27","prolific_id":"6365793164c193ec942a66b5","session_id":"643c24b5baf25be8d3512269","study_id":"64370a36d30bfa807bc7e43c"},{"rt":4427,"response":{"prior knowledge":3,"curiosity":0},"accuracy":[],"trial_type":"survey","trial_index":115,"time_elapsed":513051,"internal_node_id":"0.0-3.0-1.27","prolific_id":"6365793164c193ec942a66b5","session_id":"643c24b5baf25be8d3512269","study_id":"64370a36d30bfa807bc7e43c"},{"rt":null,"stimulus":"\n\t\t\t<div class=\"flip_card\">\n\t\t\t\t<div class=\"flip_card_inner\">\n\t\t\t\t\t<div class=\"flip_card_front\">\n\t\t\t\t\t\t<img src=img/27.png>\n\t\t\t\t\t</div>\n\t\t\t\t\t<div class=\"flip_card_back\">\n\t\t\t\t\t\t<h2>How many countries have territory in the Arctic Circle?</h2>\n\t\t\t\t\t\t<br>\n\t\t\t\t\t\t<p>Answer: <strong>8</strong></p>\n\t\t\t\t\t</div>\n\t\t\t\t</div>\n\t\t\t</div>\n\t\t\t","response":null,"trial_type":"html-keyboard-response","trial_index":116,"time_elapsed":518056,"internal_node_id":"0.0-3.0-2.27","prolific_id":"6365793164c193ec942a66b5","session_id":"643c24b5baf25be8d3512269","study_id":"64370a36d30bfa807bc7e43c"},{"rt":1242,"stimulus":"\n\t\t\t\t\t<div>\n\t\t\t\t\t<h2>Trial 28 is over</h2>\n\t\t\t\t\t<p>Press <span style=\"color: red\"><strong>any key</strong></span> to continue to the next trial</p>\n\t\t\t\t\t</div>\n\t\t\t\t","response":"1","trial_type":"html-keyboard-response","trial_index":117,"time_elapsed":519300,"internal_node_id":"0.0-3.0-3.27","prolific_id":"6365793164c193ec942a66b5","session_id":"643c24b5baf25be8d3512269","study_id":"64370a36d30bfa807bc7e43c"},{"rt":3938,"response":{"prediction":"1936"},"trial_type":"survey-text","trial_index":118,"time_elapsed":523244,"internal_node_id":"0.0-3.0-0.28","prolific_id":"6365793164c193ec942a66b5","session_id":"643c24b5baf25be8d3512269","study_id":"64370a36d30bfa807bc7e43c"},{"rt":5086,"response":{"prior knowledge":4,"curiosity":0},"accuracy":[],"trial_type":"survey","trial_index":119,"time_elapsed":528424,"internal_node_id":"0.0-3.0-1.28","prolific_id":"6365793164c193ec942a66b5","session_id":"643c24b5baf25be8d3512269","study_id":"64370a36d30bfa807bc7e43c"},{"rt":null,"stimulus":"\n\t\t\t<div class=\"flip_card\">\n\t\t\t\t<div class=\"flip_card_inner\">\n\t\t\t\t\t<div class=\"flip_card_front\">\n\t\t\t\t\t\t<img src=img/16.png>\n\t\t\t\t\t</div>\n\t\t\t\t\t<div class=\"flip_card_back\">\n\t\t\t\t\t\t<h2>In what year did the first Modern Olympic Games take place?</h2>\n\t\t\t\t\t\t<br>\n\t\t\t\t\t\t<p>Answer: <strong>1896</strong></p>\n\t\t\t\t\t</div>\n\t\t\t\t</div>\n\t\t\t</div>\n\t\t\t","response":null,"trial_type":"html-keyboard-response","trial_index":120,"time_elapsed":533428,"internal_node_id":"0.0-3.0-2.28","prolific_id":"6365793164c193ec942a66b5","session_id":"643c24b5baf25be8d3512269","study_id":"64370a36d30bfa807bc7e43c"},{"rt":720,"stimulus":"\n\t\t\t\t\t<div>\n\t\t\t\t\t<h2>Trial 29 is over</h2>\n\t\t\t\t\t<p>Press <span style=\"color: red\"><strong>any key</strong></span> to continue to the next trial</p>\n\t\t\t\t\t</div>\n\t\t\t\t","response":"1","trial_type":"html-keyboard-response","trial_index":121,"time_elapsed":534148,"internal_node_id":"0.0-3.0-3.28","prolific_id":"6365793164c193ec942a66b5","session_id":"643c24b5baf25be8d3512269","study_id":"64370a36d30bfa807bc7e43c"},{"rt":4836,"response":{"prediction":"1920"},"trial_type":"survey-text","trial_index":122,"time_elapsed":538991,"internal_node_id":"0.0-3.0-0.29","prolific_id":"6365793164c193ec942a66b5","session_id":"643c24b5baf25be8d3512269","study_id":"64370a36d30bfa807bc7e43c"},{"rt":2772,"response":{"prior knowledge":0,"curiosity":0},"accuracy":[],"trial_type":"survey","trial_index":123,"time_elapsed":541822,"internal_node_id":"0.0-3.0-1.29","prolific_id":"6365793164c193ec942a66b5","session_id":"643c24b5baf25be8d3512269","study_id":"64370a36d30bfa807bc7e43c"},{"rt":null,"stimulus":"\n\t\t\t<div class=\"flip_card\">\n\t\t\t\t<div class=\"flip_card_inner\">\n\t\t\t\t\t<div class=\"flip_card_front\">\n\t\t\t\t\t\t<img src=img/28.png>\n\t\t\t\t\t</div>\n\t\t\t\t\t<div class=\"flip_card_back\">\n\t\t\t\t\t\t<h2>In what year was the Mexican artist Frida Kahlo born?</h2>\n\t\t\t\t\t\t<br>\n\t\t\t\t\t\t<p>Answer: <strong>1907</strong></p>\n\t\t\t\t\t</div>\n\t\t\t\t</div>\n\t\t\t</div>\n\t\t\t","response":null,"trial_type":"html-keyboard-response","trial_index":124,"time_elapsed":546826,"internal_node_id":"0.0-3.0-2.29","prolific_id":"6365793164c193ec942a66b5","session_id":"643c24b5baf25be8d3512269","study_id":"64370a36d30bfa807bc7e43c"},{"rt":639,"stimulus":"\n\t\t\t\t\t<div>\n\t\t\t\t\t<h2>Trial 30 is over</h2>\n\t\t\t\t\t<p>Press <span style=\"color: red\"><strong>any key</strong></span> to continue to the next trial</p>\n\t\t\t\t\t</div>\n\t\t\t\t","response":"1","trial_type":"html-keyboard-response","trial_index":125,"time_elapsed":547468,"internal_node_id":"0.0-3.0-3.29","prolific_id":"6365793164c193ec942a66b5","session_id":"643c24b5baf25be8d3512269","study_id":"64370a36d30bfa807bc7e43c"},{"rt":null,"stimulus":"\n\t\t\t<h2>Good job! You've finished the 30 trials:p</h2>\n\t\t\t<p>In the next session, you will see two cards on the screen in each trial.</p>\n\t\t\t<p>On one card is a pattern that you have seen before in the experiment,\n\t\t\t\tand on the other card is one you have not seen.</p><br>\n\t\t\t<p>Your task is to choose the one you think you <em>have</em> seen before for every trial.</p>\n\t\t\t<p>Press '<span style=\"color: red;\"><strong>F</strong></span>' to choose the card on the left,\n\t\t\t\tand '<span style=\"color: red;\"><strong>J</strong></span>' to choose the card on the right.</p>\n\t\t\t<p>Have fun!</p>\n\t\t\t<br>\n\t\t\t<p>The trials will begin in 30 seconds</p>\n\t\t\t","response":null,"trial_type":"html-keyboard-response","trial_index":126,"time_elapsed":577470,"internal_node_id":"0.0-4.0","prolific_id":"6365793164c193ec942a66b5","session_id":"643c24b5baf25be8d3512269","study_id":"64370a36d30bfa807bc7e43c"},{"rt":1337,"stimulus":"\n\t\t\t\t\t\t<div class=\"two_card_container\">\n\t\t\t\t\t\t<div class=\"card_container\">\n\t\t\t\t\t\t<img src=img/1.png>\n\t\t\t\t\t\t</div>\n\n\t\t\t\t\t\t<div class=\"card_container\">\n\t\t\t\t\t\t<img src=img/37.png>\n\t\t\t\t\t\t</div>","response":"f","task":"response","correct_response":"f","trial_type":"html-keyboard-response","trial_index":127,"time_elapsed":578809,"internal_node_id":"0.0-5.0-0.0","prolific_id":"6365793164c193ec942a66b5","session_id":"643c24b5baf25be8d3512269","study_id":"64370a36d30bfa807bc7e43c","correct":true},{"rt":null,"stimulus":"\n\t\t\t\t\t<p>Correct!</p>\n\t\t\t\t\t","response":null,"trial_type":"html-keyboard-response","trial_index":128,"time_elapsed":579811,"internal_node_id":"0.0-5.0-1.0","prolific_id":"6365793164c193ec942a66b5","session_id":"643c24b5baf25be8d3512269","study_id":"64370a36d30bfa807bc7e43c"},{"rt":958,"stimulus":"\n\t\t\t\t\t\t<div class=\"two_card_container\">\n\t\t\t\t\t\t<div class=\"card_container\">\n\t\t\t\t\t\t<img src=img/31.png>\n\t\t\t\t\t\t</div>\n\n\t\t\t\t\t\t<div class=\"card_container\">\n\t\t\t\t\t\t<img src=img/24.png>\n\t\t\t\t\t\t</div>","response":"j","task":"response","correct_response":"j","trial_type":"html-keyboard-response","trial_index":129,"time_elapsed":580772,"internal_node_id":"0.0-5.0-0.1","prolific_id":"6365793164c193ec942a66b5","session_id":"643c24b5baf25be8d3512269","study_id":"64370a36d30bfa807bc7e43c","correct":true},{"rt":null,"stimulus":"\n\t\t\t\t\t<p>Correct!</p>\n\t\t\t\t\t","response":null,"trial_type":"html-keyboard-response","trial_index":130,"time_elapsed":581774,"internal_node_id":"0.0-5.0-1.1","prolific_id":"6365793164c193ec942a66b5","session_id":"643c24b5baf25be8d3512269","study_id":"64370a36d30bfa807bc7e43c"},{"rt":999,"stimulus":"\n\t\t\t\t\t\t<div class=\"two_card_container\">\n\t\t\t\t\t\t<div class=\"card_container\">\n\t\t\t\t\t\t<img src=img/33.png>\n\t\t\t\t\t\t</div>\n\n\t\t\t\t\t\t<div class=\"card_container\">\n\t\t\t\t\t\t<img src=img/30.png>\n\t\t\t\t\t\t</div>","response":"j","task":"response","correct_response":"j","trial_type":"html-keyboard-response","trial_index":131,"time_elapsed":582775,"internal_node_id":"0.0-5.0-0.2","prolific_id":"6365793164c193ec942a66b5","session_id":"643c24b5baf25be8d3512269","study_id":"64370a36d30bfa807bc7e43c","correct":true},{"rt":null,"stimulus":"\n\t\t\t\t\t<p>Correct!</p>\n\t\t\t\t\t","response":null,"trial_type":"html-keyboard-response","trial_index":132,"time_elapsed":583778,"internal_node_id":"0.0-5.0-1.2","prolific_id":"6365793164c193ec942a66b5","session_id":"643c24b5baf25be8d3512269","study_id":"64370a36d30bfa807bc7e43c"},{"rt":1030,"stimulus":"\n\t\t\t\t\t\t<div class=\"two_card_container\">\n\t\t\t\t\t\t<div class=\"card_container\">\n\t\t\t\t\t\t<img src=img/28.png>\n\t\t\t\t\t\t</div>\n\n\t\t\t\t\t\t<div class=\"card_container\">\n\t\t\t\t\t\t<img src=img/40.png>\n\t\t\t\t\t\t</div>","response":"f","task":"response","correct_response":"f","trial_type":"html-keyboard-response","trial_index":133,"time_elapsed":584815,"internal_node_id":"0.0-5.0-0.3","prolific_id":"6365793164c193ec942a66b5","session_id":"643c24b5baf25be8d3512269","study_id":"64370a36d30bfa807bc7e43c","correct":true},{"rt":null,"stimulus":"\n\t\t\t\t\t<p>Correct!</p>\n\t\t\t\t\t","response":null,"trial_type":"html-keyboard-response","trial_index":134,"time_elapsed":585821,"internal_node_id":"0.0-5.0-1.3","prolific_id":"6365793164c193ec942a66b5","session_id":"643c24b5baf25be8d3512269","study_id":"64370a36d30bfa807bc7e43c"},{"rt":1032,"stimulus":"\n\t\t\t\t\t\t<div class=\"two_card_container\">\n\t\t\t\t\t\t<div class=\"card_container\">\n\t\t\t\t\t\t<img src=img/23.png>\n\t\t\t\t\t\t</div>\n\n\t\t\t\t\t\t<div class=\"card_container\">\n\t\t\t\t\t\t<img src=img/34.png>\n\t\t\t\t\t\t</div>","response":"f","task":"response","correct_response":"f","trial_type":"html-keyboard-response","trial_index":135,"time_elapsed":586858,"internal_node_id":"0.0-5.0-0.4","prolific_id":"6365793164c193ec942a66b5","session_id":"643c24b5baf25be8d3512269","study_id":"64370a36d30bfa807bc7e43c","correct":true},{"rt":null,"stimulus":"\n\t\t\t\t\t<p>Correct!</p>\n\t\t\t\t\t","response":null,"trial_type":"html-keyboard-response","trial_index":136,"time_elapsed":587860,"internal_node_id":"0.0-5.0-1.4","prolific_id":"6365793164c193ec942a66b5","session_id":"643c24b5baf25be8d3512269","study_id":"64370a36d30bfa807bc7e43c"},{"rt":1375,"stimulus":"\n\t\t\t\t\t\t<div class=\"two_card_container\">\n\t\t\t\t\t\t<div class=\"card_container\">\n\t\t\t\t\t\t<img src=img/35.png>\n\t\t\t\t\t\t</div>\n\n\t\t\t\t\t\t<div class=\"card_container\">\n\t\t\t\t\t\t<img src=img/20.png>\n\t\t\t\t\t\t</div>","response":"f","task":"response","correct_response":"j","trial_type":"html-keyboard-response","trial_index":137,"time_elapsed":589237,"internal_node_id":"0.0-5.0-0.5","prolific_id":"6365793164c193ec942a66b5","session_id":"643c24b5baf25be8d3512269","study_id":"64370a36d30bfa807bc7e43c","correct":false},{"rt":null,"stimulus":"\n\t\t\t\t\t<p>Wrong answer</p>\n\t\t\t\t\t","response":null,"trial_type":"html-keyboard-response","trial_index":138,"time_elapsed":590238,"internal_node_id":"0.0-5.0-1.5","prolific_id":"6365793164c193ec942a66b5","session_id":"643c24b5baf25be8d3512269","study_id":"64370a36d30bfa807bc7e43c"},{"rt":1148,"stimulus":"\n\t\t\t\t\t\t<div class=\"two_card_container\">\n\t\t\t\t\t\t<div class=\"card_container\">\n\t\t\t\t\t\t<img src=img/6.png>\n\t\t\t\t\t\t</div>\n\n\t\t\t\t\t\t<div class=\"card_container\">\n\t\t\t\t\t\t<img src=img/39.png>\n\t\t\t\t\t\t</div>","response":"f","task":"response","correct_response":"f","trial_type":"html-keyboard-response","trial_index":139,"time_elapsed":591388,"internal_node_id":"0.0-5.0-0.6","prolific_id":"6365793164c193ec942a66b5","session_id":"643c24b5baf25be8d3512269","study_id":"64370a36d30bfa807bc7e43c","correct":true},{"rt":null,"stimulus":"\n\t\t\t\t\t<p>Correct!</p>\n\t\t\t\t\t","response":null,"trial_type":"html-keyboard-response","trial_index":140,"time_elapsed":592390,"internal_node_id":"0.0-5.0-1.6","prolific_id":"6365793164c193ec942a66b5","session_id":"643c24b5baf25be8d3512269","study_id":"64370a36d30bfa807bc7e43c"},{"rt":1087,"stimulus":"\n\t\t\t\t\t\t<div class=\"two_card_container\">\n\t\t\t\t\t\t<div class=\"card_container\">\n\t\t\t\t\t\t<img src=img/38.png>\n\t\t\t\t\t\t</div>\n\n\t\t\t\t\t\t<div class=\"card_container\">\n\t\t\t\t\t\t<img src=img/21.png>\n\t\t\t\t\t\t</div>","response":"f","task":"response","correct_response":"j","trial_type":"html-keyboard-response","trial_index":141,"time_elapsed":593479,"internal_node_id":"0.0-5.0-0.7","prolific_id":"6365793164c193ec942a66b5","session_id":"643c24b5baf25be8d3512269","study_id":"64370a36d30bfa807bc7e43c","correct":false},{"rt":null,"stimulus":"\n\t\t\t\t\t<p>Wrong answer</p>\n\t\t\t\t\t","response":null,"trial_type":"html-keyboard-response","trial_index":142,"time_elapsed":594480,"internal_node_id":"0.0-5.0-1.7","prolific_id":"6365793164c193ec942a66b5","session_id":"643c24b5baf25be8d3512269","study_id":"64370a36d30bfa807bc7e43c"},{"rt":1046,"stimulus":"\n\t\t\t\t\t\t<div class=\"two_card_container\">\n\t\t\t\t\t\t<div class=\"card_container\">\n\t\t\t\t\t\t<img src=img/32.png>\n\t\t\t\t\t\t</div>\n\n\t\t\t\t\t\t<div class=\"card_container\">\n\t\t\t\t\t\t<img src=img/7.png>\n\t\t\t\t\t\t</div>","response":"j","task":"response","correct_response":"j","trial_type":"html-keyboard-response","trial_index":143,"time_elapsed":595529,"internal_node_id":"0.0-5.0-0.8","prolific_id":"6365793164c193ec942a66b5","session_id":"643c24b5baf25be8d3512269","study_id":"64370a36d30bfa807bc7e43c","correct":true},{"rt":null,"stimulus":"\n\t\t\t\t\t<p>Correct!</p>\n\t\t\t\t\t","response":null,"trial_type":"html-keyboard-response","trial_index":144,"time_elapsed":596531,"internal_node_id":"0.0-5.0-1.8","prolific_id":"6365793164c193ec942a66b5","session_id":"643c24b5baf25be8d3512269","study_id":"64370a36d30bfa807bc7e43c"},{"rt":1242,"stimulus":"\n\t\t\t\t\t\t<div class=\"two_card_container\">\n\t\t\t\t\t\t<div class=\"card_container\">\n\t\t\t\t\t\t<img src=img/25.png>\n\t\t\t\t\t\t</div>\n\n\t\t\t\t\t\t<div class=\"card_container\">\n\t\t\t\t\t\t<img src=img/36.png>\n\t\t\t\t\t\t</div>","response":"j","task":"response","correct_response":"f","trial_type":"html-keyboard-response","trial_index":145,"time_elapsed":597774,"internal_node_id":"0.0-5.0-0.9","prolific_id":"6365793164c193ec942a66b5","session_id":"643c24b5baf25be8d3512269","study_id":"64370a36d30bfa807bc7e43c","correct":false},{"rt":null,"stimulus":"\n\t\t\t\t\t<p>Wrong answer</p>\n\t\t\t\t\t","response":null,"trial_type":"html-keyboard-response","trial_index":146,"time_elapsed":598776,"internal_node_id":"0.0-5.0-1.9","prolific_id":"6365793164c193ec942a66b5","session_id":"643c24b5baf25be8d3512269","study_id":"64370a36d30bfa807bc7e43c"},{"rt":22490,"stimulus":"\n\t\t\t<h2>Good job :p</h2>\n\t\t\t<p>In the next session, you will see a trivia question on the screen in each trial.</p>\n\t\t\t<p>Each of these trivia questions is chosen from the questions you have already seen in the first session of the experiment.</p><br>\n\t\t\t<p>Your task is to answer the trivia question based on what you remember as accurately as you can.</p>\n\t\t\t<p>Have fun!</p>\n\t\t\t<br>\n\t\t\t<p>The trials will begin in 30 seconds</p>\n\t\t\t","response":"f","trial_type":"html-keyboard-response","trial_index":147,"time_elapsed":621267,"internal_node_id":"0.0-6.0","prolific_id":"6365793164c193ec942a66b5","session_id":"643c24b5baf25be8d3512269","study_id":"64370a36d30bfa807bc7e43c"},{"rt":3797,"response":{"answer":"6"},"task":"response","correct_response":"6","trial_type":"survey-text","trial_index":148,"time_elapsed":625072,"internal_node_id":"0.0-7.0-0.0","prolific_id":"6365793164c193ec942a66b5","session_id":"643c24b5baf25be8d3512269","study_id":"64370a36d30bfa807bc7e43c","difference":0},{"rt":null,"stimulus":"<h2>The correct answer is 6.</h2><p>Your answer was different from the answer by 0.</p><p>You got the right answer. Amazing work!</p>","response":null,"trial_type":"html-keyboard-response","trial_index":149,"time_elapsed":627575,"internal_node_id":"0.0-7.0-1.0","prolific_id":"6365793164c193ec942a66b5","session_id":"643c24b5baf25be8d3512269","study_id":"64370a36d30bfa807bc7e43c"},{"rt":5824,"response":{"answer":"7917"},"task":"response","correct_response":"7917.5","trial_type":"survey-text","trial_index":150,"time_elapsed":633406,"internal_node_id":"0.0-7.0-0.1","prolific_id":"6365793164c193ec942a66b5","session_id":"643c24b5baf25be8d3512269","study_id":"64370a36d30bfa807bc7e43c","difference":0},{"rt":null,"stimulus":"<h2>The correct answer is 7917.5.</h2><p>Your answer was different from the answer by 0.5.</p><p>Excellent. Kudos to you!</p>","response":null,"trial_type":"html-keyboard-response","trial_index":151,"time_elapsed":635908,"internal_node_id":"0.0-7.0-1.1","prolific_id":"6365793164c193ec942a66b5","session_id":"643c24b5baf25be8d3512269","study_id":"64370a36d30bfa807bc7e43c"},{"rt":4887,"response":{"answer":"13100"},"task":"response","correct_response":"13171","trial_type":"survey-text","trial_index":152,"time_elapsed":640801,"internal_node_id":"0.0-7.0-0.2","prolific_id":"6365793164c193ec942a66b5","session_id":"643c24b5baf25be8d3512269","study_id":"64370a36d30bfa807bc7e43c","difference":1},{"rt":null,"stimulus":"<h2>The correct answer is 13171.</h2><p>Your answer was different from the answer by 71.</p><p>Excellent. Kudos to you!</p>","response":null,"trial_type":"html-keyboard-response","trial_index":153,"time_elapsed":643305,"internal_node_id":"0.0-7.0-1.2","prolific_id":"6365793164c193ec942a66b5","session_id":"643c24b5baf25be8d3512269","study_id":"64370a36d30bfa807bc7e43c"},{"rt":2300,"response":{"answer":"28"},"task":"response","correct_response":"28","trial_type":"survey-text","trial_index":154,"time_elapsed":645611,"internal_node_id":"0.0-7.0-0.3","prolific_id":"6365793164c193ec942a66b5","session_id":"643c24b5baf25be8d3512269","study_id":"64370a36d30bfa807bc7e43c","difference":0},{"rt":null,"stimulus":"<h2>The correct answer is 28.</h2><p>Your answer was different from the answer by 0.</p><p>You got the right answer. Amazing work!</p>","response":null,"trial_type":"html-keyboard-response","trial_index":155,"time_elapsed":648115,"internal_node_id":"0.0-7.0-1.3","prolific_id":"6365793164c193ec942a66b5","session_id":"643c24b5baf25be8d3512269","study_id":"64370a36d30bfa807bc7e43c"},{"rt":3184,"response":{"answer":"12"},"task":"response","correct_response":"12","trial_type":"survey-text","trial_index":156,"time_elapsed":651311,"internal_node_id":"0.0-7.0-0.4","prolific_id":"6365793164c193ec942a66b5","session_id":"643c24b5baf25be8d3512269","study_id":"64370a36d30bfa807bc7e43c","difference":0},{"rt":null,"stimulus":"<h2>The correct answer is 12.</h2><p>Your answer was different from the answer by 0.</p><p>You got the right answer. Amazing work!</p>","response":null,"trial_type":"html-keyboard-response","trial_index":157,"time_elapsed":653816,"internal_node_id":"0.0-7.0-1.4","prolific_id":"6365793164c193ec942a66b5","session_id":"643c24b5baf25be8d3512269","study_id":"64370a36d30bfa807bc7e43c"},{"rt":3294,"response":{"answer":"108"},"task":"response","correct_response":"108","trial_type":"survey-text","trial_index":158,"time_elapsed":657120,"internal_node_id":"0.0-7.0-0.5","prolific_id":"6365793164c193ec942a66b5","session_id":"643c24b5baf25be8d3512269","study_id":"64370a36d30bfa807bc7e43c","difference":0},{"rt":null,"stimulus":"<h2>The correct answer is 108.</h2><p>Your answer was different from the answer by 0.</p><p>You got the right answer. Amazing work!</p>","response":null,"trial_type":"html-keyboard-response","trial_index":159,"time_elapsed":659624,"internal_node_id":"0.0-7.0-1.5","prolific_id":"6365793164c193ec942a66b5","session_id":"643c24b5baf25be8d3512269","study_id":"64370a36d30bfa807bc7e43c"},{"rt":2570,"response":{"answer":"1989"},"task":"response","correct_response":"1989","trial_type":"survey-text","trial_index":160,"time_elapsed":662198,"internal_node_id":"0.0-7.0-0.6","prolific_id":"6365793164c193ec942a66b5","session_id":"643c24b5baf25be8d3512269","study_id":"64370a36d30bfa807bc7e43c","difference":0},{"rt":null,"stimulus":"<h2>The correct answer is 1989.</h2><p>Your answer was different from the answer by 0.</p><p>You got the right answer. Amazing work!</p>","response":null,"trial_type":"html-keyboard-response","trial_index":161,"time_elapsed":664702,"internal_node_id":"0.0-7.0-1.6","prolific_id":"6365793164c193ec942a66b5","session_id":"643c24b5baf25be8d3512269","study_id":"64370a36d30bfa807bc7e43c"},{"rt":1897,"response":{"answer":"19"},"task":"response","correct_response":"19","trial_type":"survey-text","trial_index":162,"time_elapsed":666605,"internal_node_id":"0.0-7.0-0.7","prolific_id":"6365793164c193ec942a66b5","session_id":"643c24b5baf25be8d3512269","study_id":"64370a36d30bfa807bc7e43c","difference":0},{"rt":null,"stimulus":"<h2>The correct answer is 19.</h2><p>Your answer was different from the answer by 0.</p><p>You got the right answer. Amazing work!</p>","response":null,"trial_type":"html-keyboard-response","trial_index":163,"time_elapsed":669108,"internal_node_id":"0.0-7.0-1.7","prolific_id":"6365793164c193ec942a66b5","session_id":"643c24b5baf25be8d3512269","study_id":"64370a36d30bfa807bc7e43c"},{"rt":1512,"response":{"answer":"4"},"task":"response","correct_response":"4","trial_type":"survey-text","trial_index":164,"time_elapsed":670627,"internal_node_id":"0.0-7.0-0.8","prolific_id":"6365793164c193ec942a66b5","session_id":"643c24b5baf25be8d3512269","study_id":"64370a36d30bfa807bc7e43c","difference":0},{"rt":null,"stimulus":"<h2>The correct answer is 4.</h2><p>Your answer was different from the answer by 0.</p><p>You got the right answer. Amazing work!</p>","response":null,"trial_type":"html-keyboard-response","trial_index":165,"time_elapsed":673129,"internal_node_id":"0.0-7.0-1.8","prolific_id":"6365793164c193ec942a66b5","session_id":"643c24b5baf25be8d3512269","study_id":"64370a36d30bfa807bc7e43c"},{"rt":3403,"response":{"answer":"1901"},"task":"response","correct_response":"1901","trial_type":"survey-text","trial_index":166,"time_elapsed":676541,"internal_node_id":"0.0-7.0-0.9","prolific_id":"6365793164c193ec942a66b5","session_id":"643c24b5baf25be8d3512269","study_id":"64370a36d30bfa807bc7e43c","difference":0},{"rt":null,"stimulus":"<h2>The correct answer is 1901.</h2><p>Your answer was different from the answer by 0.</p><p>You got the right answer. Amazing work!</p>","response":null,"trial_type":"html-keyboard-response","trial_index":167,"time_elapsed":679043,"internal_node_id":"0.0-7.0-1.9","prolific_id":"6365793164c193ec942a66b5","session_id":"643c24b5baf25be8d3512269","study_id":"64370a36d30bfa807bc7e43c"}]