[{"success":true,"timeout":false,"failed_images":[],"failed_audio":[],"failed_video":[],"trial_type":"preload","trial_index":0,"time_elapsed":2605,"internal_node_id":"0.0-0.0","prolific_id":"63ced2a0459f429d3da07830","session_id":"643c252a67eeef9602cd61ea","study_id":"64370a36d30bfa807bc7e43c"},{"rt":1973,"stimulus":"\n\t\t\t\t\t<p>Welcome and thank you for participating in this study!</p>\n\t\t\t\t\t<p>In each trial, you will be given a trivia question and then be asked to:</p><br>\n\t\t\t\t\t<div class=\"list\">\n\t\t\t\t\t<p>1) Predict the answer</p>\n\t\t\t\t\t<p>2) Rate how much you already know about the topic</p>\n\t\t\t\t\t<p>3) Rate how much you want to know the answer</p>\n\t\t\t\t\t</div>\n\t\t\t\t\t<br>\n\t\t\t\t\t<p>Then, you will see a card that flips over to reveal the answer.</p>\n\t\t\t\t\t<br>\n\t\t\t\t\t<p>Let's try a practice round. Press <span style=\"color: red\"><strong>any key</strong></span> to move to the next slide</p>\n\t\t\t\t\t","response":"control","trial_type":"html-keyboard-response","trial_index":1,"time_elapsed":4579,"internal_node_id":"0.0-1.0","prolific_id":"63ced2a0459f429d3da07830","session_id":"643c252a67eeef9602cd61ea","study_id":"64370a36d30bfa807bc7e43c"},{"rt":8014,"response":{"practice prediction":"8"},"task":"practice","trial_type":"survey-text","trial_index":2,"time_elapsed":12610,"internal_node_id":"0.0-2.0-0.0","prolific_id":"63ced2a0459f429d3da07830","session_id":"643c252a67eeef9602cd61ea","study_id":"64370a36d30bfa807bc7e43c"},{"rt":8008,"response":{"practice":3},"accuracy":[],"trial_type":"survey","trial_index":3,"time_elapsed":20666,"internal_node_id":"0.0-2.0-1.0","prolific_id":"63ced2a0459f429d3da07830","session_id":"643c252a67eeef9602cd61ea","study_id":"64370a36d30bfa807bc7e43c"},{"rt":null,"stimulus":"\n\t\t\t\t<div class=\"flip_card\">\n\t\t\t\t\t<div class=\"flip_card_inner\">\n\t\t\t\t\t\t<div class=\"flip_card_front\">\n\t\t\t\t\t\t\t<img src=img/practice.png>\n\t\t\t\t\t\t</div>\n\t\t\t\t\t\t<div class=\"flip_card_back\">\n\t\t\t\t\t\t\t<h2>\"How many legs does a lobster have?\"</h2>\n\t\t\t\t\t\t    <br>\n\t\t\t\t\t\t    <p>Answer: <strong>\"10\"</strong></p>\n\t\t\t\t\t    </div>\n\t\t\t\t    </div>\n\t\t\t    </div>\n\t\t\t\t","response":null,"trial_type":"html-keyboard-response","trial_index":4,"time_elapsed":25677,"internal_node_id":"0.0-2.0-2.0","prolific_id":"63ced2a0459f429d3da07830","session_id":"643c252a67eeef9602cd61ea","study_id":"64370a36d30bfa807bc7e43c"},{"rt":1668,"stimulus":"\n\t\t\t\t\t<div>\n\t\t\t\t\t<h2>The practice round is over</h2>\n\t\t\t\t\t<p>Press <span style=\"color: red\"><strong>any key</strong></span> to continue to the actual trials</p>\n\t\t\t\t\t<p>Good Luck!</p>\n\t\t\t\t\t</div>\n\t\t\t\t\t","response":" ","trial_type":"html-keyboard-response","trial_index":5,"time_elapsed":27346,"internal_node_id":"0.0-2.0-3.0","prolific_id":"63ced2a0459f429d3da07830","session_id":"643c252a67eeef9602cd61ea","study_id":"64370a36d30bfa807bc7e43c"},{"rt":6119,"response":{"prediction":"1904"},"trial_type":"survey-text","trial_index":6,"time_elapsed":33470,"internal_node_id":"0.0-3.0-0.0","prolific_id":"63ced2a0459f429d3da07830","session_id":"643c252a67eeef9602cd61ea","study_id":"64370a36d30bfa807bc7e43c"},{"rt":4634,"response":{"prior knowledge":0,"curiosity":3},"accuracy":[],"trial_type":"survey","trial_index":7,"time_elapsed":38127,"internal_node_id":"0.0-3.0-1.0","prolific_id":"63ced2a0459f429d3da07830","session_id":"643c252a67eeef9602cd61ea","study_id":"64370a36d30bfa807bc7e43c"},{"rt":null,"stimulus":"\n\t\t\t<div class=\"flip_card\">\n\t\t\t\t<div class=\"flip_card_inner\">\n\t\t\t\t\t<div class=\"flip_card_front\">\n\t\t\t\t\t\t<img src=img/26.png>\n\t\t\t\t\t</div>\n\t\t\t\t\t<div class=\"flip_card_back\">\n\t\t\t\t\t\t<h2>In what year was the Mexican artist Frida Kahlo born?</h2>\n\t\t\t\t\t\t<br>\n\t\t\t\t\t\t<p>Answer: <strong>1907</strong></p>\n\t\t\t\t\t</div>\n\t\t\t\t</div>\n\t\t\t</div>\n\t\t\t","response":null,"trial_type":"html-keyboard-response","trial_index":8,"time_elapsed":43144,"internal_node_id":"0.0-3.0-2.0","prolific_id":"63ced2a0459f429d3da07830","session_id":"643c252a67eeef9602cd61ea","study_id":"64370a36d30bfa807bc7e43c"},{"rt":1281,"stimulus":"\n\t\t\t\t\t<div>\n\t\t\t\t\t<h2>Trial 1 is over</h2>\n\t\t\t\t\t<p>Press <span style=\"color: red\"><strong>any key</strong></span> to continue to the next trial</p>\n\t\t\t\t\t</div>\n\t\t\t\t","response":" ","trial_type":"html-keyboard-response","trial_index":9,"time_elapsed":44426,"internal_node_id":"0.0-3.0-3.0","prolific_id":"63ced2a0459f429d3da07830","session_id":"643c252a67eeef9602cd61ea","study_id":"64370a36d30bfa807bc7e43c"},{"rt":4738,"response":{"prediction":"208"},"trial_type":"survey-text","trial_index":10,"time_elapsed":49168,"internal_node_id":"0.0-3.0-0.1","prolific_id":"63ced2a0459f429d3da07830","session_id":"643c252a67eeef9602cd61ea","study_id":"64370a36d30bfa807bc7e43c"},{"rt":4756,"response":{"prior knowledge":1,"curiosity":5},"accuracy":[],"trial_type":"survey","trial_index":11,"time_elapsed":53938,"internal_node_id":"0.0-3.0-1.1","prolific_id":"63ced2a0459f429d3da07830","session_id":"643c252a67eeef9602cd61ea","study_id":"64370a36d30bfa807bc7e43c"},{"rt":null,"stimulus":"\n\t\t\t<div class=\"flip_card\">\n\t\t\t\t<div class=\"flip_card_inner\">\n\t\t\t\t\t<div class=\"flip_card_front\">\n\t\t\t\t\t\t<img src=img/4.png>\n\t\t\t\t\t</div>\n\t\t\t\t\t<div class=\"flip_card_back\">\n\t\t\t\t\t\t<h2>How many bones is a human baby born with?</h2>\n\t\t\t\t\t\t<br>\n\t\t\t\t\t\t<p>Answer: <strong>300</strong></p>\n\t\t\t\t\t</div>\n\t\t\t\t</div>\n\t\t\t</div>\n\t\t\t","response":null,"trial_type":"html-keyboard-response","trial_index":12,"time_elapsed":58953,"internal_node_id":"0.0-3.0-2.1","prolific_id":"63ced2a0459f429d3da07830","session_id":"643c252a67eeef9602cd61ea","study_id":"64370a36d30bfa807bc7e43c"},{"rt":1047,"stimulus":"\n\t\t\t\t\t<div>\n\t\t\t\t\t<h2>Trial 2 is over</h2>\n\t\t\t\t\t<p>Press <span style=\"color: red\"><strong>any key</strong></span> to continue to the next trial</p>\n\t\t\t\t\t</div>\n\t\t\t\t","response":" ","trial_type":"html-keyboard-response","trial_index":13,"time_elapsed":60001,"internal_node_id":"0.0-3.0-3.1","prolific_id":"63ced2a0459f429d3da07830","session_id":"643c252a67eeef9602cd61ea","study_id":"64370a36d30bfa807bc7e43c"},{"rt":5514,"response":{"prediction":"7"},"trial_type":"survey-text","trial_index":14,"time_elapsed":65517,"internal_node_id":"0.0-3.0-0.2","prolific_id":"63ced2a0459f429d3da07830","session_id":"643c252a67eeef9602cd61ea","study_id":"64370a36d30bfa807bc7e43c"},{"rt":4571,"response":{"prior knowledge":0,"curiosity":3},"accuracy":[],"trial_type":"survey","trial_index":15,"time_elapsed":70126,"internal_node_id":"0.0-3.0-1.2","prolific_id":"63ced2a0459f429d3da07830","session_id":"643c252a67eeef9602cd61ea","study_id":"64370a36d30bfa807bc7e43c"},{"rt":null,"stimulus":"\n\t\t\t<div class=\"flip_card\">\n\t\t\t\t<div class=\"flip_card_inner\">\n\t\t\t\t\t<div class=\"flip_card_front\">\n\t\t\t\t\t\t<img src=img/5.png>\n\t\t\t\t\t</div>\n\t\t\t\t\t<div class=\"flip_card_back\">\n\t\t\t\t\t\t<h2>How many books are in the Catholic Bible?</h2>\n\t\t\t\t\t\t<br>\n\t\t\t\t\t\t<p>Answer: <strong>73</strong></p>\n\t\t\t\t\t</div>\n\t\t\t\t</div>\n\t\t\t</div>\n\t\t\t","response":null,"trial_type":"html-keyboard-response","trial_index":16,"time_elapsed":75131,"internal_node_id":"0.0-3.0-2.2","prolific_id":"63ced2a0459f429d3da07830","session_id":"643c252a67eeef9602cd61ea","study_id":"64370a36d30bfa807bc7e43c"},{"rt":3556,"stimulus":"\n\t\t\t\t\t<div>\n\t\t\t\t\t<h2>Trial 3 is over</h2>\n\t\t\t\t\t<p>Press <span style=\"color: red\"><strong>any key</strong></span> to continue to the next trial</p>\n\t\t\t\t\t</div>\n\t\t\t\t","response":" ","trial_type":"html-keyboard-response","trial_index":17,"time_elapsed":78691,"internal_node_id":"0.0-3.0-3.2","prolific_id":"63ced2a0459f429d3da07830","session_id":"643c252a67eeef9602cd61ea","study_id":"64370a36d30bfa807bc7e43c"},{"rt":6516,"response":{"prediction":"2009"},"trial_type":"survey-text","trial_index":18,"time_elapsed":85217,"internal_node_id":"0.0-3.0-0.3","prolific_id":"63ced2a0459f429d3da07830","session_id":"643c252a67eeef9602cd61ea","study_id":"64370a36d30bfa807bc7e43c"},{"rt":4323,"response":{"prior knowledge":0,"curiosity":3},"accuracy":[],"trial_type":"survey","trial_index":19,"time_elapsed":89579,"internal_node_id":"0.0-3.0-1.3","prolific_id":"63ced2a0459f429d3da07830","session_id":"643c252a67eeef9602cd61ea","study_id":"64370a36d30bfa807bc7e43c"},{"rt":null,"stimulus":"\n\t\t\t<div class=\"flip_card\">\n\t\t\t\t<div class=\"flip_card_inner\">\n\t\t\t\t\t<div class=\"flip_card_front\">\n\t\t\t\t\t\t<img src=img/7.png>\n\t\t\t\t\t</div>\n\t\t\t\t\t<div class=\"flip_card_back\">\n\t\t\t\t\t\t<h2>What year was the very first model of the iPhone released?</h2>\n\t\t\t\t\t\t<br>\n\t\t\t\t\t\t<p>Answer: <strong>2007</strong></p>\n\t\t\t\t\t</div>\n\t\t\t\t</div>\n\t\t\t</div>\n\t\t\t","response":null,"trial_type":"html-keyboard-response","trial_index":20,"time_elapsed":94594,"internal_node_id":"0.0-3.0-2.3","prolific_id":"63ced2a0459f429d3da07830","session_id":"643c252a67eeef9602cd61ea","study_id":"64370a36d30bfa807bc7e43c"},{"rt":1791,"stimulus":"\n\t\t\t\t\t<div>\n\t\t\t\t\t<h2>Trial 4 is over</h2>\n\t\t\t\t\t<p>Press <span style=\"color: red\"><strong>any key</strong></span> to continue to the next trial</p>\n\t\t\t\t\t</div>\n\t\t\t\t","response":" ","trial_type":"html-keyboard-response","trial_index":21,"time_elapsed":96386,"internal_node_id":"0.0-3.0-3.3","prolific_id":"63ced2a0459f429d3da07830","session_id":"643c252a67eeef9602cd61ea","study_id":"64370a36d30bfa807bc7e43c"},{"rt":7697,"response":{"prediction":"2"},"trial_type":"survey-text","trial_index":22,"time_elapsed":104089,"internal_node_id":"0.0-3.0-0.4","prolific_id":"63ced2a0459f429d3da07830","session_id":"643c252a67eeef9602cd61ea","study_id":"64370a36d30bfa807bc7e43c"},{"rt":4294,"response":{"prior knowledge":1,"curiosity":3},"accuracy":[],"trial_type":"survey","trial_index":23,"time_elapsed":108402,"internal_node_id":"0.0-3.0-1.4","prolific_id":"63ced2a0459f429d3da07830","session_id":"643c252a67eeef9602cd61ea","study_id":"64370a36d30bfa807bc7e43c"},{"rt":null,"stimulus":"\n\t\t\t<div class=\"flip_card\">\n\t\t\t\t<div class=\"flip_card_inner\">\n\t\t\t\t\t<div class=\"flip_card_front\">\n\t\t\t\t\t\t<img src=img/18.png>\n\t\t\t\t\t</div>\n\t\t\t\t\t<div class=\"flip_card_back\">\n\t\t\t\t\t\t<h2>How many double stitches does a baseball have?</h2>\n\t\t\t\t\t\t<br>\n\t\t\t\t\t\t<p>Answer: <strong>108</strong></p>\n\t\t\t\t\t</div>\n\t\t\t\t</div>\n\t\t\t</div>\n\t\t\t","response":null,"trial_type":"html-keyboard-response","trial_index":24,"time_elapsed":113419,"internal_node_id":"0.0-3.0-2.4","prolific_id":"63ced2a0459f429d3da07830","session_id":"643c252a67eeef9602cd61ea","study_id":"64370a36d30bfa807bc7e43c"},{"rt":990,"stimulus":"\n\t\t\t\t\t<div>\n\t\t\t\t\t<h2>Trial 5 is over</h2>\n\t\t\t\t\t<p>Press <span style=\"color: red\"><strong>any key</strong></span> to continue to the next trial</p>\n\t\t\t\t\t</div>\n\t\t\t\t","response":" ","trial_type":"html-keyboard-response","trial_index":25,"time_elapsed":114409,"internal_node_id":"0.0-3.0-3.4","prolific_id":"63ced2a0459f429d3da07830","session_id":"643c252a67eeef9602cd61ea","study_id":"64370a36d30bfa807bc7e43c"},{"rt":5126,"response":{"prediction":"100"},"trial_type":"survey-text","trial_index":26,"time_elapsed":119540,"internal_node_id":"0.0-3.0-0.5","prolific_id":"63ced2a0459f429d3da07830","session_id":"643c252a67eeef9602cd61ea","study_id":"64370a36d30bfa807bc7e43c"},{"rt":2447,"response":{"prior knowledge":0,"curiosity":4},"accuracy":[],"trial_type":"survey","trial_index":27,"time_elapsed":122000,"internal_node_id":"0.0-3.0-1.5","prolific_id":"63ced2a0459f429d3da07830","session_id":"643c252a67eeef9602cd61ea","study_id":"64370a36d30bfa807bc7e43c"},{"rt":null,"stimulus":"\n\t\t\t<div class=\"flip_card\">\n\t\t\t\t<div class=\"flip_card_inner\">\n\t\t\t\t\t<div class=\"flip_card_front\">\n\t\t\t\t\t\t<img src=img/28.png>\n\t\t\t\t\t</div>\n\t\t\t\t\t<div class=\"flip_card_back\">\n\t\t\t\t\t\t<h2>How long is the Great Wall of China (in miles)?</h2>\n\t\t\t\t\t\t<br>\n\t\t\t\t\t\t<p>Answer: <strong>13171</strong></p>\n\t\t\t\t\t</div>\n\t\t\t\t</div>\n\t\t\t</div>\n\t\t\t","response":null,"trial_type":"html-keyboard-response","trial_index":28,"time_elapsed":127012,"internal_node_id":"0.0-3.0-2.5","prolific_id":"63ced2a0459f429d3da07830","session_id":"643c252a67eeef9602cd61ea","study_id":"64370a36d30bfa807bc7e43c"},{"rt":916,"stimulus":"\n\t\t\t\t\t<div>\n\t\t\t\t\t<h2>Trial 6 is over</h2>\n\t\t\t\t\t<p>Press <span style=\"color: red\"><strong>any key</strong></span> to continue to the next trial</p>\n\t\t\t\t\t</div>\n\t\t\t\t","response":" ","trial_type":"html-keyboard-response","trial_index":29,"time_elapsed":127930,"internal_node_id":"0.0-3.0-3.5","prolific_id":"63ced2a0459f429d3da07830","session_id":"643c252a67eeef9602cd61ea","study_id":"64370a36d30bfa807bc7e43c"},{"rt":9585,"response":{"prediction":"180"},"trial_type":"survey-text","trial_index":30,"time_elapsed":137526,"internal_node_id":"0.0-3.0-0.6","prolific_id":"63ced2a0459f429d3da07830","session_id":"643c252a67eeef9602cd61ea","study_id":"64370a36d30bfa807bc7e43c"},{"rt":3617,"response":{"prior knowledge":0,"curiosity":0},"accuracy":[],"trial_type":"survey","trial_index":31,"time_elapsed":141181,"internal_node_id":"0.0-3.0-1.6","prolific_id":"63ced2a0459f429d3da07830","session_id":"643c252a67eeef9602cd61ea","study_id":"64370a36d30bfa807bc7e43c"},{"rt":null,"stimulus":"\n\t\t\t<div class=\"flip_card\">\n\t\t\t\t<div class=\"flip_card_inner\">\n\t\t\t\t\t<div class=\"flip_card_front\">\n\t\t\t\t\t\t<img src=img/19.png>\n\t\t\t\t\t</div>\n\t\t\t\t\t<div class=\"flip_card_back\">\n\t\t\t\t\t\t<h2>In what year did the first Modern Olympic Games take place?</h2>\n\t\t\t\t\t\t<br>\n\t\t\t\t\t\t<p>Answer: <strong>1896</strong></p>\n\t\t\t\t\t</div>\n\t\t\t\t</div>\n\t\t\t</div>\n\t\t\t","response":null,"trial_type":"html-keyboard-response","trial_index":32,"time_elapsed":146192,"internal_node_id":"0.0-3.0-2.6","prolific_id":"63ced2a0459f429d3da07830","session_id":"643c252a67eeef9602cd61ea","study_id":"64370a36d30bfa807bc7e43c"},{"rt":745,"stimulus":"\n\t\t\t\t\t<div>\n\t\t\t\t\t<h2>Trial 7 is over</h2>\n\t\t\t\t\t<p>Press <span style=\"color: red\"><strong>any key</strong></span> to continue to the next trial</p>\n\t\t\t\t\t</div>\n\t\t\t\t","response":" ","trial_type":"html-keyboard-response","trial_index":33,"time_elapsed":146938,"internal_node_id":"0.0-3.0-3.6","prolific_id":"63ced2a0459f429d3da07830","session_id":"643c252a67eeef9602cd61ea","study_id":"64370a36d30bfa807bc7e43c"},{"rt":3654,"response":{"prediction":"12"},"trial_type":"survey-text","trial_index":34,"time_elapsed":150598,"internal_node_id":"0.0-3.0-0.7","prolific_id":"63ced2a0459f429d3da07830","session_id":"643c252a67eeef9602cd61ea","study_id":"64370a36d30bfa807bc7e43c"},{"rt":2948,"response":{"prior knowledge":0,"curiosity":0},"accuracy":[],"trial_type":"survey","trial_index":35,"time_elapsed":153565,"internal_node_id":"0.0-3.0-1.7","prolific_id":"63ced2a0459f429d3da07830","session_id":"643c252a67eeef9602cd61ea","study_id":"64370a36d30bfa807bc7e43c"},{"rt":null,"stimulus":"\n\t\t\t<div class=\"flip_card\">\n\t\t\t\t<div class=\"flip_card_inner\">\n\t\t\t\t\t<div class=\"flip_card_front\">\n\t\t\t\t\t\t<img src=img/1.png>\n\t\t\t\t\t</div>\n\t\t\t\t\t<div class=\"flip_card_back\">\n\t\t\t\t\t\t<h2>How much is in a Baker's Dozen?</h2>\n\t\t\t\t\t\t<br>\n\t\t\t\t\t\t<p>Answer: <strong>13</strong></p>\n\t\t\t\t\t</div>\n\t\t\t\t</div>\n\t\t\t</div>\n\t\t\t","response":null,"trial_type":"html-keyboard-response","trial_index":36,"time_elapsed":158570,"internal_node_id":"0.0-3.0-2.7","prolific_id":"63ced2a0459f429d3da07830","session_id":"643c252a67eeef9602cd61ea","study_id":"64370a36d30bfa807bc7e43c"},{"rt":710,"stimulus":"\n\t\t\t\t\t<div>\n\t\t\t\t\t<h2>Trial 8 is over</h2>\n\t\t\t\t\t<p>Press <span style=\"color: red\"><strong>any key</strong></span> to continue to the next trial</p>\n\t\t\t\t\t</div>\n\t\t\t\t","response":" ","trial_type":"html-keyboard-response","trial_index":37,"time_elapsed":159282,"internal_node_id":"0.0-3.0-3.7","prolific_id":"63ced2a0459f429d3da07830","session_id":"643c252a67eeef9602cd61ea","study_id":"64370a36d30bfa807bc7e43c"},{"rt":9220,"response":{"prediction":"1990"},"trial_type":"survey-text","trial_index":38,"time_elapsed":168506,"internal_node_id":"0.0-3.0-0.8","prolific_id":"63ced2a0459f429d3da07830","session_id":"643c252a67eeef9602cd61ea","study_id":"64370a36d30bfa807bc7e43c"},{"rt":2925,"response":{"prior knowledge":0,"curiosity":0},"accuracy":[],"trial_type":"survey","trial_index":39,"time_elapsed":171448,"internal_node_id":"0.0-3.0-1.8","prolific_id":"63ced2a0459f429d3da07830","session_id":"643c252a67eeef9602cd61ea","study_id":"64370a36d30bfa807bc7e43c"},{"rt":null,"stimulus":"\n\t\t\t<div class=\"flip_card\">\n\t\t\t\t<div class=\"flip_card_inner\">\n\t\t\t\t\t<div class=\"flip_card_front\">\n\t\t\t\t\t\t<img src=img/15.png>\n\t\t\t\t\t</div>\n\t\t\t\t\t<div class=\"flip_card_back\">\n\t\t\t\t\t\t<h2>In what year was the first Nobel Prize awarded?</h2>\n\t\t\t\t\t\t<br>\n\t\t\t\t\t\t<p>Answer: <strong>1901</strong></p>\n\t\t\t\t\t</div>\n\t\t\t\t</div>\n\t\t\t</div>\n\t\t\t","response":null,"trial_type":"html-keyboard-response","trial_index":40,"time_elapsed":176450,"internal_node_id":"0.0-3.0-2.8","prolific_id":"63ced2a0459f429d3da07830","session_id":"643c252a67eeef9602cd61ea","study_id":"64370a36d30bfa807bc7e43c"},{"rt":1318,"stimulus":"\n\t\t\t\t\t<div>\n\t\t\t\t\t<h2>Trial 9 is over</h2>\n\t\t\t\t\t<p>Press <span style=\"color: red\"><strong>any key</strong></span> to continue to the next trial</p>\n\t\t\t\t\t</div>\n\t\t\t\t","response":" ","trial_type":"html-keyboard-response","trial_index":41,"time_elapsed":177770,"internal_node_id":"0.0-3.0-3.8","prolific_id":"63ced2a0459f429d3da07830","session_id":"643c252a67eeef9602cd61ea","study_id":"64370a36d30bfa807bc7e43c"},{"rt":4502,"response":{"prediction":"1960"},"trial_type":"survey-text","trial_index":42,"time_elapsed":182277,"internal_node_id":"0.0-3.0-0.9","prolific_id":"63ced2a0459f429d3da07830","session_id":"643c252a67eeef9602cd61ea","study_id":"64370a36d30bfa807bc7e43c"},{"rt":4240,"response":{"prior knowledge":0,"curiosity":0},"accuracy":[],"trial_type":"survey","trial_index":43,"time_elapsed":186532,"internal_node_id":"0.0-3.0-1.9","prolific_id":"63ced2a0459f429d3da07830","session_id":"643c252a67eeef9602cd61ea","study_id":"64370a36d30bfa807bc7e43c"},{"rt":null,"stimulus":"\n\t\t\t<div class=\"flip_card\">\n\t\t\t\t<div class=\"flip_card_inner\">\n\t\t\t\t\t<div class=\"flip_card_front\">\n\t\t\t\t\t\t<img src=img/8.png>\n\t\t\t\t\t</div>\n\t\t\t\t\t<div class=\"flip_card_back\">\n\t\t\t\t\t\t<h2>What year did the Berlin Wall fall?</h2>\n\t\t\t\t\t\t<br>\n\t\t\t\t\t\t<p>Answer: <strong>1989</strong></p>\n\t\t\t\t\t</div>\n\t\t\t\t</div>\n\t\t\t</div>\n\t\t\t","response":null,"trial_type":"html-keyboard-response","trial_index":44,"time_elapsed":191546,"internal_node_id":"0.0-3.0-2.9","prolific_id":"63ced2a0459f429d3da07830","session_id":"643c252a67eeef9602cd61ea","study_id":"64370a36d30bfa807bc7e43c"},{"rt":1404,"stimulus":"\n\t\t\t\t\t<div>\n\t\t\t\t\t<h2>Trial 10 is over</h2>\n\t\t\t\t\t<p>Press <span style=\"color: red\"><strong>any key</strong></span> to continue to the next trial</p>\n\t\t\t\t\t</div>\n\t\t\t\t","response":" ","trial_type":"html-keyboard-response","trial_index":45,"time_elapsed":192952,"internal_node_id":"0.0-3.0-3.9","prolific_id":"63ced2a0459f429d3da07830","session_id":"643c252a67eeef9602cd61ea","study_id":"64370a36d30bfa807bc7e43c"},{"rt":3837,"response":{"prediction":"30"},"trial_type":"survey-text","trial_index":46,"time_elapsed":196794,"internal_node_id":"0.0-3.0-0.10","prolific_id":"63ced2a0459f429d3da07830","session_id":"643c252a67eeef9602cd61ea","study_id":"64370a36d30bfa807bc7e43c"},{"rt":3200,"response":{"prior knowledge":0,"curiosity":0},"accuracy":[],"trial_type":"survey","trial_index":47,"time_elapsed":200031,"internal_node_id":"0.0-3.0-1.10","prolific_id":"63ced2a0459f429d3da07830","session_id":"643c252a67eeef9602cd61ea","study_id":"64370a36d30bfa807bc7e43c"},{"rt":null,"stimulus":"\n\t\t\t<div class=\"flip_card\">\n\t\t\t\t<div class=\"flip_card_inner\">\n\t\t\t\t\t<div class=\"flip_card_front\">\n\t\t\t\t\t\t<img src=img/14.png>\n\t\t\t\t\t</div>\n\t\t\t\t\t<div class=\"flip_card_back\">\n\t\t\t\t\t\t<h2>How many books has Stephen King published?</h2>\n\t\t\t\t\t\t<br>\n\t\t\t\t\t\t<p>Answer: <strong>65</strong></p>\n\t\t\t\t\t</div>\n\t\t\t\t</div>\n\t\t\t</div>\n\t\t\t","response":null,"trial_type":"html-keyboard-response","trial_index":48,"time_elapsed":205053,"internal_node_id":"0.0-3.0-2.10","prolific_id":"63ced2a0459f429d3da07830","session_id":"643c252a67eeef9602cd61ea","study_id":"64370a36d30bfa807bc7e43c"},{"rt":1027,"stimulus":"\n\t\t\t\t\t<div>\n\t\t\t\t\t<h2>Trial 11 is over</h2>\n\t\t\t\t\t<p>Press <span style=\"color: red\"><strong>any key</strong></span> to continue to the next trial</p>\n\t\t\t\t\t</div>\n\t\t\t\t","response":" ","trial_type":"html-keyboard-response","trial_index":49,"time_elapsed":206082,"internal_node_id":"0.0-3.0-3.10","prolific_id":"63ced2a0459f429d3da07830","session_id":"643c252a67eeef9602cd61ea","study_id":"64370a36d30bfa807bc7e43c"},{"rt":5576,"response":{"prediction":"12"},"trial_type":"survey-text","trial_index":50,"time_elapsed":211669,"internal_node_id":"0.0-3.0-0.11","prolific_id":"63ced2a0459f429d3da07830","session_id":"643c252a67eeef9602cd61ea","study_id":"64370a36d30bfa807bc7e43c"},{"rt":3246,"response":{"prior knowledge":0,"curiosity":0},"accuracy":[],"trial_type":"survey","trial_index":51,"time_elapsed":214955,"internal_node_id":"0.0-3.0-1.11","prolific_id":"63ced2a0459f429d3da07830","session_id":"643c252a67eeef9602cd61ea","study_id":"64370a36d30bfa807bc7e43c"},{"rt":null,"stimulus":"\n\t\t\t<div class=\"flip_card\">\n\t\t\t\t<div class=\"flip_card_inner\">\n\t\t\t\t\t<div class=\"flip_card_front\">\n\t\t\t\t\t\t<img src=img/30.png>\n\t\t\t\t\t</div>\n\t\t\t\t\t<div class=\"flip_card_back\">\n\t\t\t\t\t\t<h2>How many constellations are there?</h2>\n\t\t\t\t\t\t<br>\n\t\t\t\t\t\t<p>Answer: <strong>88</strong></p>\n\t\t\t\t\t</div>\n\t\t\t\t</div>\n\t\t\t</div>\n\t\t\t","response":null,"trial_type":"html-keyboard-response","trial_index":52,"time_elapsed":219972,"internal_node_id":"0.0-3.0-2.11","prolific_id":"63ced2a0459f429d3da07830","session_id":"643c252a67eeef9602cd61ea","study_id":"64370a36d30bfa807bc7e43c"},{"rt":738,"stimulus":"\n\t\t\t\t\t<div>\n\t\t\t\t\t<h2>Trial 12 is over</h2>\n\t\t\t\t\t<p>Press <span style=\"color: red\"><strong>any key</strong></span> to continue to the next trial</p>\n\t\t\t\t\t</div>\n\t\t\t\t","response":" ","trial_type":"html-keyboard-response","trial_index":53,"time_elapsed":220713,"internal_node_id":"0.0-3.0-3.11","prolific_id":"63ced2a0459f429d3da07830","session_id":"643c252a67eeef9602cd61ea","study_id":"64370a36d30bfa807bc7e43c"},{"rt":5328,"response":{"prediction":"20000"},"trial_type":"survey-text","trial_index":54,"time_elapsed":226046,"internal_node_id":"0.0-3.0-0.12","prolific_id":"63ced2a0459f429d3da07830","session_id":"643c252a67eeef9602cd61ea","study_id":"64370a36d30bfa807bc7e43c"},{"rt":3085,"response":{"prior knowledge":0,"curiosity":0},"accuracy":[],"trial_type":"survey","trial_index":55,"time_elapsed":229148,"internal_node_id":"0.0-3.0-1.12","prolific_id":"63ced2a0459f429d3da07830","session_id":"643c252a67eeef9602cd61ea","study_id":"64370a36d30bfa807bc7e43c"},{"rt":null,"stimulus":"\n\t\t\t<div class=\"flip_card\">\n\t\t\t\t<div class=\"flip_card_inner\">\n\t\t\t\t\t<div class=\"flip_card_front\">\n\t\t\t\t\t\t<img src=img/20.png>\n\t\t\t\t\t</div>\n\t\t\t\t\t<div class=\"flip_card_back\">\n\t\t\t\t\t\t<h2>What is the diameter of Earth in miles?</h2>\n\t\t\t\t\t\t<br>\n\t\t\t\t\t\t<p>Answer: <strong>7917.5</strong></p>\n\t\t\t\t\t</div>\n\t\t\t\t</div>\n\t\t\t</div>\n\t\t\t","response":null,"trial_type":"html-keyboard-response","trial_index":56,"time_elapsed":234164,"internal_node_id":"0.0-3.0-2.12","prolific_id":"63ced2a0459f429d3da07830","session_id":"643c252a67eeef9602cd61ea","study_id":"64370a36d30bfa807bc7e43c"},{"rt":1668,"stimulus":"\n\t\t\t\t\t<div>\n\t\t\t\t\t<h2>Trial 13 is over</h2>\n\t\t\t\t\t<p>Press <span style=\"color: red\"><strong>any key</strong></span> to continue to the next trial</p>\n\t\t\t\t\t</div>\n\t\t\t\t","response":" ","trial_type":"html-keyboard-response","trial_index":57,"time_elapsed":235834,"internal_node_id":"0.0-3.0-3.12","prolific_id":"63ced2a0459f429d3da07830","session_id":"643c252a67eeef9602cd61ea","study_id":"64370a36d30bfa807bc7e43c"},{"rt":4104,"response":{"prediction":"437289472307"},"trial_type":"survey-text","trial_index":58,"time_elapsed":239942,"internal_node_id":"0.0-3.0-0.13","prolific_id":"63ced2a0459f429d3da07830","session_id":"643c252a67eeef9602cd61ea","study_id":"64370a36d30bfa807bc7e43c"},{"rt":4226,"response":{"prior knowledge":0,"curiosity":0},"accuracy":[],"trial_type":"survey","trial_index":59,"time_elapsed":244183,"internal_node_id":"0.0-3.0-1.13","prolific_id":"63ced2a0459f429d3da07830","session_id":"643c252a67eeef9602cd61ea","study_id":"64370a36d30bfa807bc7e43c"},{"rt":null,"stimulus":"\n\t\t\t<div class=\"flip_card\">\n\t\t\t\t<div class=\"flip_card_inner\">\n\t\t\t\t\t<div class=\"flip_card_front\">\n\t\t\t\t\t\t<img src=img/29.png>\n\t\t\t\t\t</div>\n\t\t\t\t\t<div class=\"flip_card_back\">\n\t\t\t\t\t\t<h2>How many tones are in the Vietnamese language?</h2>\n\t\t\t\t\t\t<br>\n\t\t\t\t\t\t<p>Answer: <strong>6</strong></p>\n\t\t\t\t\t</div>\n\t\t\t\t</div>\n\t\t\t</div>\n\t\t\t","response":null,"trial_type":"html-keyboard-response","trial_index":60,"time_elapsed":249189,"internal_node_id":"0.0-3.0-2.13","prolific_id":"63ced2a0459f429d3da07830","session_id":"643c252a67eeef9602cd61ea","study_id":"64370a36d30bfa807bc7e43c"},{"rt":748,"stimulus":"\n\t\t\t\t\t<div>\n\t\t\t\t\t<h2>Trial 14 is over</h2>\n\t\t\t\t\t<p>Press <span style=\"color: red\"><strong>any key</strong></span> to continue to the next trial</p>\n\t\t\t\t\t</div>\n\t\t\t\t","response":" ","trial_type":"html-keyboard-response","trial_index":61,"time_elapsed":249938,"internal_node_id":"0.0-3.0-3.13","prolific_id":"63ced2a0459f429d3da07830","session_id":"643c252a67eeef9602cd61ea","study_id":"64370a36d30bfa807bc7e43c"},{"rt":3443,"response":{"prediction":"89"},"trial_type":"survey-text","trial_index":62,"time_elapsed":253386,"internal_node_id":"0.0-3.0-0.14","prolific_id":"63ced2a0459f429d3da07830","session_id":"643c252a67eeef9602cd61ea","study_id":"64370a36d30bfa807bc7e43c"},{"rt":4072,"response":{"prior knowledge":0,"curiosity":0},"accuracy":[],"trial_type":"survey","trial_index":63,"time_elapsed":257474,"internal_node_id":"0.0-3.0-1.14","prolific_id":"63ced2a0459f429d3da07830","session_id":"643c252a67eeef9602cd61ea","study_id":"64370a36d30bfa807bc7e43c"},{"rt":null,"stimulus":"\n\t\t\t<div class=\"flip_card\">\n\t\t\t\t<div class=\"flip_card_inner\">\n\t\t\t\t\t<div class=\"flip_card_front\">\n\t\t\t\t\t\t<img src=img/6.png>\n\t\t\t\t\t</div>\n\t\t\t\t\t<div class=\"flip_card_back\">\n\t\t\t\t\t\t<h2>How many floors are in the Burj Khalifa, the tallest building in the world?</h2>\n\t\t\t\t\t\t<br>\n\t\t\t\t\t\t<p>Answer: <strong>163</strong></p>\n\t\t\t\t\t</div>\n\t\t\t\t</div>\n\t\t\t</div>\n\t\t\t","response":null,"trial_type":"html-keyboard-response","trial_index":64,"time_elapsed":262480,"internal_node_id":"0.0-3.0-2.14","prolific_id":"63ced2a0459f429d3da07830","session_id":"643c252a67eeef9602cd61ea","study_id":"64370a36d30bfa807bc7e43c"},{"rt":676,"stimulus":"\n\t\t\t\t\t<div>\n\t\t\t\t\t<h2>Trial 15 is over</h2>\n\t\t\t\t\t<p>Press <span style=\"color: red\"><strong>any key</strong></span> to continue to the next trial</p>\n\t\t\t\t\t</div>\n\t\t\t\t","response":" ","trial_type":"html-keyboard-response","trial_index":65,"time_elapsed":263161,"internal_node_id":"0.0-3.0-3.14","prolific_id":"63ced2a0459f429d3da07830","session_id":"643c252a67eeef9602cd61ea","study_id":"64370a36d30bfa807bc7e43c"},{"rt":3601,"response":{"prediction":"5"},"trial_type":"survey-text","trial_index":66,"time_elapsed":266767,"internal_node_id":"0.0-3.0-0.15","prolific_id":"63ced2a0459f429d3da07830","session_id":"643c252a67eeef9602cd61ea","study_id":"64370a36d30bfa807bc7e43c"},{"rt":5119,"response":{"prior knowledge":0,"curiosity":0},"accuracy":[],"trial_type":"survey","trial_index":67,"time_elapsed":271920,"internal_node_id":"0.0-3.0-1.15","prolific_id":"63ced2a0459f429d3da07830","session_id":"643c252a67eeef9602cd61ea","study_id":"64370a36d30bfa807bc7e43c"},{"rt":null,"stimulus":"\n\t\t\t<div class=\"flip_card\">\n\t\t\t\t<div class=\"flip_card_inner\">\n\t\t\t\t\t<div class=\"flip_card_front\">\n\t\t\t\t\t\t<img src=img/2.png>\n\t\t\t\t\t</div>\n\t\t\t\t\t<div class=\"flip_card_back\">\n\t\t\t\t\t\t<h2>How many main islands make up Japan?</h2>\n\t\t\t\t\t\t<br>\n\t\t\t\t\t\t<p>Answer: <strong>4</strong></p>\n\t\t\t\t\t</div>\n\t\t\t\t</div>\n\t\t\t</div>\n\t\t\t","response":null,"trial_type":"html-keyboard-response","trial_index":68,"time_elapsed":276929,"internal_node_id":"0.0-3.0-2.15","prolific_id":"63ced2a0459f429d3da07830","session_id":"643c252a67eeef9602cd61ea","study_id":"64370a36d30bfa807bc7e43c"},{"rt":606,"stimulus":"\n\t\t\t\t\t<div>\n\t\t\t\t\t<h2>Trial 16 is over</h2>\n\t\t\t\t\t<p>Press <span style=\"color: red\"><strong>any key</strong></span> to continue to the next trial</p>\n\t\t\t\t\t</div>\n\t\t\t\t","response":" ","trial_type":"html-keyboard-response","trial_index":69,"time_elapsed":277538,"internal_node_id":"0.0-3.0-3.15","prolific_id":"63ced2a0459f429d3da07830","session_id":"643c252a67eeef9602cd61ea","study_id":"64370a36d30bfa807bc7e43c"},{"rt":3035,"response":{"prediction":"3"},"trial_type":"survey-text","trial_index":70,"time_elapsed":280578,"internal_node_id":"0.0-3.0-0.16","prolific_id":"63ced2a0459f429d3da07830","session_id":"643c252a67eeef9602cd61ea","study_id":"64370a36d30bfa807bc7e43c"},{"rt":2983,"response":{"prior knowledge":0,"curiosity":0},"accuracy":[],"trial_type":"survey","trial_index":71,"time_elapsed":283585,"internal_node_id":"0.0-3.0-1.16","prolific_id":"63ced2a0459f429d3da07830","session_id":"643c252a67eeef9602cd61ea","study_id":"64370a36d30bfa807bc7e43c"},{"rt":null,"stimulus":"\n\t\t\t<div class=\"flip_card\">\n\t\t\t\t<div class=\"flip_card_inner\">\n\t\t\t\t\t<div class=\"flip_card_front\">\n\t\t\t\t\t\t<img src=img/17.png>\n\t\t\t\t\t</div>\n\t\t\t\t\t<div class=\"flip_card_back\">\n\t\t\t\t\t\t<h2>How many times a day do Muslims pray?</h2>\n\t\t\t\t\t\t<br>\n\t\t\t\t\t\t<p>Answer: <strong>5</strong></p>\n\t\t\t\t\t</div>\n\t\t\t\t</div>\n\t\t\t</div>\n\t\t\t","response":null,"trial_type":"html-keyboard-response","trial_index":72,"time_elapsed":288594,"internal_node_id":"0.0-3.0-2.16","prolific_id":"63ced2a0459f429d3da07830","session_id":"643c252a67eeef9602cd61ea","study_id":"64370a36d30bfa807bc7e43c"},{"rt":959,"stimulus":"\n\t\t\t\t\t<div>\n\t\t\t\t\t<h2>Trial 17 is over</h2>\n\t\t\t\t\t<p>Press <span style=\"color: red\"><strong>any key</strong></span> to continue to the next trial</p>\n\t\t\t\t\t</div>\n\t\t\t\t","response":" ","trial_type":"html-keyboard-response","trial_index":73,"time_elapsed":289555,"internal_node_id":"0.0-3.0-3.16","prolific_id":"63ced2a0459f429d3da07830","session_id":"643c252a67eeef9602cd61ea","study_id":"64370a36d30bfa807bc7e43c"},{"rt":2700,"response":{"prediction":"7"},"trial_type":"survey-text","trial_index":74,"time_elapsed":292260,"internal_node_id":"0.0-3.0-0.17","prolific_id":"63ced2a0459f429d3da07830","session_id":"643c252a67eeef9602cd61ea","study_id":"64370a36d30bfa807bc7e43c"},{"rt":2758,"response":{"prior knowledge":0,"curiosity":0},"accuracy":[],"trial_type":"survey","trial_index":75,"time_elapsed":295035,"internal_node_id":"0.0-3.0-1.17","prolific_id":"63ced2a0459f429d3da07830","session_id":"643c252a67eeef9602cd61ea","study_id":"64370a36d30bfa807bc7e43c"},{"rt":null,"stimulus":"\n\t\t\t<div class=\"flip_card\">\n\t\t\t\t<div class=\"flip_card_inner\">\n\t\t\t\t\t<div class=\"flip_card_front\">\n\t\t\t\t\t\t<img src=img/9.png>\n\t\t\t\t\t</div>\n\t\t\t\t\t<div class=\"flip_card_back\">\n\t\t\t\t\t\t<h2>How many moons does Neptune have?</h2>\n\t\t\t\t\t\t<br>\n\t\t\t\t\t\t<p>Answer: <strong>14</strong></p>\n\t\t\t\t\t</div>\n\t\t\t\t</div>\n\t\t\t</div>\n\t\t\t","response":null,"trial_type":"html-keyboard-response","trial_index":76,"time_elapsed":300050,"internal_node_id":"0.0-3.0-2.17","prolific_id":"63ced2a0459f429d3da07830","session_id":"643c252a67eeef9602cd61ea","study_id":"64370a36d30bfa807bc7e43c"},{"rt":670,"stimulus":"\n\t\t\t\t\t<div>\n\t\t\t\t\t<h2>Trial 18 is over</h2>\n\t\t\t\t\t<p>Press <span style=\"color: red\"><strong>any key</strong></span> to continue to the next trial</p>\n\t\t\t\t\t</div>\n\t\t\t\t","response":" ","trial_type":"html-keyboard-response","trial_index":77,"time_elapsed":300722,"internal_node_id":"0.0-3.0-3.17","prolific_id":"63ced2a0459f429d3da07830","session_id":"643c252a67eeef9602cd61ea","study_id":"64370a36d30bfa807bc7e43c"},{"rt":5414,"response":{"prediction":"1800"},"trial_type":"survey-text","trial_index":78,"time_elapsed":306140,"internal_node_id":"0.0-3.0-0.18","prolific_id":"63ced2a0459f429d3da07830","session_id":"643c252a67eeef9602cd61ea","study_id":"64370a36d30bfa807bc7e43c"},{"rt":3631,"response":{"prior knowledge":0,"curiosity":0},"accuracy":[],"trial_type":"survey","trial_index":79,"time_elapsed":309784,"internal_node_id":"0.0-3.0-1.18","prolific_id":"63ced2a0459f429d3da07830","session_id":"643c252a67eeef9602cd61ea","study_id":"64370a36d30bfa807bc7e43c"},{"rt":null,"stimulus":"\n\t\t\t<div class=\"flip_card\">\n\t\t\t\t<div class=\"flip_card_inner\">\n\t\t\t\t\t<div class=\"flip_card_front\">\n\t\t\t\t\t\t<img src=img/16.png>\n\t\t\t\t\t</div>\n\t\t\t\t\t<div class=\"flip_card_back\">\n\t\t\t\t\t\t<h2>What year did the titanic sink?</h2>\n\t\t\t\t\t\t<br>\n\t\t\t\t\t\t<p>Answer: <strong>1912</strong></p>\n\t\t\t\t\t</div>\n\t\t\t\t</div>\n\t\t\t</div>\n\t\t\t","response":null,"trial_type":"html-keyboard-response","trial_index":80,"time_elapsed":314788,"internal_node_id":"0.0-3.0-2.18","prolific_id":"63ced2a0459f429d3da07830","session_id":"643c252a67eeef9602cd61ea","study_id":"64370a36d30bfa807bc7e43c"},{"rt":1051,"stimulus":"\n\t\t\t\t\t<div>\n\t\t\t\t\t<h2>Trial 19 is over</h2>\n\t\t\t\t\t<p>Press <span style=\"color: red\"><strong>any key</strong></span> to continue to the next trial</p>\n\t\t\t\t\t</div>\n\t\t\t\t","response":" ","trial_type":"html-keyboard-response","trial_index":81,"time_elapsed":315841,"internal_node_id":"0.0-3.0-3.18","prolific_id":"63ced2a0459f429d3da07830","session_id":"643c252a67eeef9602cd61ea","study_id":"64370a36d30bfa807bc7e43c"},{"rt":2526,"response":{"prediction":"90"},"trial_type":"survey-text","trial_index":82,"time_elapsed":318372,"internal_node_id":"0.0-3.0-0.19","prolific_id":"63ced2a0459f429d3da07830","session_id":"643c252a67eeef9602cd61ea","study_id":"64370a36d30bfa807bc7e43c"},{"rt":3227,"response":{"prior knowledge":0,"curiosity":0},"accuracy":[],"trial_type":"survey","trial_index":83,"time_elapsed":321612,"internal_node_id":"0.0-3.0-1.19","prolific_id":"63ced2a0459f429d3da07830","session_id":"643c252a67eeef9602cd61ea","study_id":"64370a36d30bfa807bc7e43c"},{"rt":null,"stimulus":"\n\t\t\t<div class=\"flip_card\">\n\t\t\t\t<div class=\"flip_card_inner\">\n\t\t\t\t\t<div class=\"flip_card_front\">\n\t\t\t\t\t\t<img src=img/12.png>\n\t\t\t\t\t</div>\n\t\t\t\t\t<div class=\"flip_card_back\">\n\t\t\t\t\t\t<h2>How many countries in Africa have French as the official language?</h2>\n\t\t\t\t\t\t<br>\n\t\t\t\t\t\t<p>Answer: <strong>21</strong></p>\n\t\t\t\t\t</div>\n\t\t\t\t</div>\n\t\t\t</div>\n\t\t\t","response":null,"trial_type":"html-keyboard-response","trial_index":84,"time_elapsed":326619,"internal_node_id":"0.0-3.0-2.19","prolific_id":"63ced2a0459f429d3da07830","session_id":"643c252a67eeef9602cd61ea","study_id":"64370a36d30bfa807bc7e43c"},{"rt":290,"stimulus":"\n\t\t\t\t\t<div>\n\t\t\t\t\t<h2>Trial 20 is over</h2>\n\t\t\t\t\t<p>Press <span style=\"color: red\"><strong>any key</strong></span> to continue to the next trial</p>\n\t\t\t\t\t</div>\n\t\t\t\t","response":" ","trial_type":"html-keyboard-response","trial_index":85,"time_elapsed":326914,"internal_node_id":"0.0-3.0-3.19","prolific_id":"63ced2a0459f429d3da07830","session_id":"643c252a67eeef9602cd61ea","study_id":"64370a36d30bfa807bc7e43c"},{"rt":3025,"response":{"prediction":"7"},"trial_type":"survey-text","trial_index":86,"time_elapsed":329941,"internal_node_id":"0.0-3.0-0.20","prolific_id":"63ced2a0459f429d3da07830","session_id":"643c252a67eeef9602cd61ea","study_id":"64370a36d30bfa807bc7e43c"},{"rt":3153,"response":{"prior knowledge":0,"curiosity":0},"accuracy":[],"trial_type":"survey","trial_index":87,"time_elapsed":333132,"internal_node_id":"0.0-3.0-1.20","prolific_id":"63ced2a0459f429d3da07830","session_id":"643c252a67eeef9602cd61ea","study_id":"64370a36d30bfa807bc7e43c"},{"rt":null,"stimulus":"\n\t\t\t<div class=\"flip_card\">\n\t\t\t\t<div class=\"flip_card_inner\">\n\t\t\t\t\t<div class=\"flip_card_front\">\n\t\t\t\t\t\t<img src=img/3.png>\n\t\t\t\t\t</div>\n\t\t\t\t\t<div class=\"flip_card_back\">\n\t\t\t\t\t\t<h2>How many single hand gestures, or mudras, are used in Indian classical dance?</h2>\n\t\t\t\t\t\t<br>\n\t\t\t\t\t\t<p>Answer: <strong>28</strong></p>\n\t\t\t\t\t</div>\n\t\t\t\t</div>\n\t\t\t</div>\n\t\t\t","response":null,"trial_type":"html-keyboard-response","trial_index":88,"time_elapsed":338137,"internal_node_id":"0.0-3.0-2.20","prolific_id":"63ced2a0459f429d3da07830","session_id":"643c252a67eeef9602cd61ea","study_id":"64370a36d30bfa807bc7e43c"},{"rt":925,"stimulus":"\n\t\t\t\t\t<div>\n\t\t\t\t\t<h2>Trial 21 is over</h2>\n\t\t\t\t\t<p>Press <span style=\"color: red\"><strong>any key</strong></span> to continue to the next trial</p>\n\t\t\t\t\t</div>\n\t\t\t\t","response":" ","trial_type":"html-keyboard-response","trial_index":89,"time_elapsed":339067,"internal_node_id":"0.0-3.0-3.20","prolific_id":"63ced2a0459f429d3da07830","session_id":"643c252a67eeef9602cd61ea","study_id":"64370a36d30bfa807bc7e43c"},{"rt":2586,"response":{"prediction":"4"},"trial_type":"survey-text","trial_index":90,"time_elapsed":341660,"internal_node_id":"0.0-3.0-0.21","prolific_id":"63ced2a0459f429d3da07830","session_id":"643c252a67eeef9602cd61ea","study_id":"64370a36d30bfa807bc7e43c"},{"rt":3706,"response":{"prior knowledge":0,"curiosity":0},"accuracy":[],"trial_type":"survey","trial_index":91,"time_elapsed":345403,"internal_node_id":"0.0-3.0-1.21","prolific_id":"63ced2a0459f429d3da07830","session_id":"643c252a67eeef9602cd61ea","study_id":"64370a36d30bfa807bc7e43c"},{"rt":null,"stimulus":"\n\t\t\t<div class=\"flip_card\">\n\t\t\t\t<div class=\"flip_card_inner\">\n\t\t\t\t\t<div class=\"flip_card_front\">\n\t\t\t\t\t\t<img src=img/25.png>\n\t\t\t\t\t</div>\n\t\t\t\t\t<div class=\"flip_card_back\">\n\t\t\t\t\t\t<h2>How many native species of kangaroos are found in Australia?</h2>\n\t\t\t\t\t\t<br>\n\t\t\t\t\t\t<p>Answer: <strong>4</strong></p>\n\t\t\t\t\t</div>\n\t\t\t\t</div>\n\t\t\t</div>\n\t\t\t","response":null,"trial_type":"html-keyboard-response","trial_index":92,"time_elapsed":350405,"internal_node_id":"0.0-3.0-2.21","prolific_id":"63ced2a0459f429d3da07830","session_id":"643c252a67eeef9602cd61ea","study_id":"64370a36d30bfa807bc7e43c"},{"rt":322,"stimulus":"\n\t\t\t\t\t<div>\n\t\t\t\t\t<h2>Trial 22 is over</h2>\n\t\t\t\t\t<p>Press <span style=\"color: red\"><strong>any key</strong></span> to continue to the next trial</p>\n\t\t\t\t\t</div>\n\t\t\t\t","response":" ","trial_type":"html-keyboard-response","trial_index":93,"time_elapsed":350730,"internal_node_id":"0.0-3.0-3.21","prolific_id":"63ced2a0459f429d3da07830","session_id":"643c252a67eeef9602cd61ea","study_id":"64370a36d30bfa807bc7e43c"},{"rt":6550,"response":{"prediction":"12"},"trial_type":"survey-text","trial_index":94,"time_elapsed":357286,"internal_node_id":"0.0-3.0-0.22","prolific_id":"63ced2a0459f429d3da07830","session_id":"643c252a67eeef9602cd61ea","study_id":"64370a36d30bfa807bc7e43c"},{"rt":3076,"response":{"prior knowledge":0,"curiosity":0},"accuracy":[],"trial_type":"survey","trial_index":95,"time_elapsed":360381,"internal_node_id":"0.0-3.0-1.22","prolific_id":"63ced2a0459f429d3da07830","session_id":"643c252a67eeef9602cd61ea","study_id":"64370a36d30bfa807bc7e43c"},{"rt":null,"stimulus":"\n\t\t\t<div class=\"flip_card\">\n\t\t\t\t<div class=\"flip_card_inner\">\n\t\t\t\t\t<div class=\"flip_card_front\">\n\t\t\t\t\t\t<img src=img/11.png>\n\t\t\t\t\t</div>\n\t\t\t\t\t<div class=\"flip_card_back\">\n\t\t\t\t\t\t<h2>A bar mitzvah is traditionally celebrated when Jewish males turn what age?</h2>\n\t\t\t\t\t\t<br>\n\t\t\t\t\t\t<p>Answer: <strong>13</strong></p>\n\t\t\t\t\t</div>\n\t\t\t\t</div>\n\t\t\t</div>\n\t\t\t","response":null,"trial_type":"html-keyboard-response","trial_index":96,"time_elapsed":365396,"internal_node_id":"0.0-3.0-2.22","prolific_id":"63ced2a0459f429d3da07830","session_id":"643c252a67eeef9602cd61ea","study_id":"64370a36d30bfa807bc7e43c"},{"rt":356,"stimulus":"\n\t\t\t\t\t<div>\n\t\t\t\t\t<h2>Trial 23 is over</h2>\n\t\t\t\t\t<p>Press <span style=\"color: red\"><strong>any key</strong></span> to continue to the next trial</p>\n\t\t\t\t\t</div>\n\t\t\t\t","response":" ","trial_type":"html-keyboard-response","trial_index":97,"time_elapsed":365753,"internal_node_id":"0.0-3.0-3.22","prolific_id":"63ced2a0459f429d3da07830","session_id":"643c252a67eeef9602cd61ea","study_id":"64370a36d30bfa807bc7e43c"},{"rt":2382,"response":{"prediction":"7"},"trial_type":"survey-text","trial_index":98,"time_elapsed":368140,"internal_node_id":"0.0-3.0-0.23","prolific_id":"63ced2a0459f429d3da07830","session_id":"643c252a67eeef9602cd61ea","study_id":"64370a36d30bfa807bc7e43c"},{"rt":2985,"response":{"prior knowledge":0,"curiosity":0},"accuracy":[],"trial_type":"survey","trial_index":99,"time_elapsed":371138,"internal_node_id":"0.0-3.0-1.23","prolific_id":"63ced2a0459f429d3da07830","session_id":"643c252a67eeef9602cd61ea","study_id":"64370a36d30bfa807bc7e43c"},{"rt":null,"stimulus":"\n\t\t\t<div class=\"flip_card\">\n\t\t\t\t<div class=\"flip_card_inner\">\n\t\t\t\t\t<div class=\"flip_card_front\">\n\t\t\t\t\t\t<img src=img/10.png>\n\t\t\t\t\t</div>\n\t\t\t\t\t<div class=\"flip_card_back\">\n\t\t\t\t\t\t<h2>How many lines are in a sonnet?</h2>\n\t\t\t\t\t\t<br>\n\t\t\t\t\t\t<p>Answer: <strong>14</strong></p>\n\t\t\t\t\t</div>\n\t\t\t\t</div>\n\t\t\t</div>\n\t\t\t","response":null,"trial_type":"html-keyboard-response","trial_index":100,"time_elapsed":376146,"internal_node_id":"0.0-3.0-2.23","prolific_id":"63ced2a0459f429d3da07830","session_id":"643c252a67eeef9602cd61ea","study_id":"64370a36d30bfa807bc7e43c"},{"rt":871,"stimulus":"\n\t\t\t\t\t<div>\n\t\t\t\t\t<h2>Trial 24 is over</h2>\n\t\t\t\t\t<p>Press <span style=\"color: red\"><strong>any key</strong></span> to continue to the next trial</p>\n\t\t\t\t\t</div>\n\t\t\t\t","response":" ","trial_type":"html-keyboard-response","trial_index":101,"time_elapsed":377017,"internal_node_id":"0.0-3.0-3.23","prolific_id":"63ced2a0459f429d3da07830","session_id":"643c252a67eeef9602cd61ea","study_id":"64370a36d30bfa807bc7e43c"},{"rt":2528,"response":{"prediction":"790"},"trial_type":"survey-text","trial_index":102,"time_elapsed":379550,"internal_node_id":"0.0-3.0-0.24","prolific_id":"63ced2a0459f429d3da07830","session_id":"643c252a67eeef9602cd61ea","study_id":"64370a36d30bfa807bc7e43c"},{"rt":3263,"response":{"prior knowledge":0,"curiosity":0},"accuracy":[],"trial_type":"survey","trial_index":103,"time_elapsed":382828,"internal_node_id":"0.0-3.0-1.24","prolific_id":"63ced2a0459f429d3da07830","session_id":"643c252a67eeef9602cd61ea","study_id":"64370a36d30bfa807bc7e43c"},{"rt":null,"stimulus":"\n\t\t\t<div class=\"flip_card\">\n\t\t\t\t<div class=\"flip_card_inner\">\n\t\t\t\t\t<div class=\"flip_card_front\">\n\t\t\t\t\t\t<img src=img/24.png>\n\t\t\t\t\t</div>\n\t\t\t\t\t<div class=\"flip_card_back\">\n\t\t\t\t\t\t<h2>How many people are vegan globally (in millions)?</h2>\n\t\t\t\t\t\t<br>\n\t\t\t\t\t\t<p>Answer: <strong>79</strong></p>\n\t\t\t\t\t</div>\n\t\t\t\t</div>\n\t\t\t</div>\n\t\t\t","response":null,"trial_type":"html-keyboard-response","trial_index":104,"time_elapsed":387837,"internal_node_id":"0.0-3.0-2.24","prolific_id":"63ced2a0459f429d3da07830","session_id":"643c252a67eeef9602cd61ea","study_id":"64370a36d30bfa807bc7e43c"},{"rt":388,"stimulus":"\n\t\t\t\t\t<div>\n\t\t\t\t\t<h2>Trial 25 is over</h2>\n\t\t\t\t\t<p>Press <span style=\"color: red\"><strong>any key</strong></span> to continue to the next trial</p>\n\t\t\t\t\t</div>\n\t\t\t\t","response":" ","trial_type":"html-keyboard-response","trial_index":105,"time_elapsed":388225,"internal_node_id":"0.0-3.0-3.24","prolific_id":"63ced2a0459f429d3da07830","session_id":"643c252a67eeef9602cd61ea","study_id":"64370a36d30bfa807bc7e43c"},{"rt":2975,"response":{"prediction":"786"},"trial_type":"survey-text","trial_index":106,"time_elapsed":391209,"internal_node_id":"0.0-3.0-0.25","prolific_id":"63ced2a0459f429d3da07830","session_id":"643c252a67eeef9602cd61ea","study_id":"64370a36d30bfa807bc7e43c"},{"rt":2439,"response":{"prior knowledge":0,"curiosity":0},"accuracy":[],"trial_type":"survey","trial_index":107,"time_elapsed":393685,"internal_node_id":"0.0-3.0-1.25","prolific_id":"63ced2a0459f429d3da07830","session_id":"643c252a67eeef9602cd61ea","study_id":"64370a36d30bfa807bc7e43c"},{"rt":null,"stimulus":"\n\t\t\t<div class=\"flip_card\">\n\t\t\t\t<div class=\"flip_card_inner\">\n\t\t\t\t\t<div class=\"flip_card_front\">\n\t\t\t\t\t\t<img src=img/23.png>\n\t\t\t\t\t</div>\n\t\t\t\t\t<div class=\"flip_card_back\">\n\t\t\t\t\t\t<h2>How many countries are in Africa?</h2>\n\t\t\t\t\t\t<br>\n\t\t\t\t\t\t<p>Answer: <strong>54</strong></p>\n\t\t\t\t\t</div>\n\t\t\t\t</div>\n\t\t\t</div>\n\t\t\t","response":null,"trial_type":"html-keyboard-response","trial_index":108,"time_elapsed":398703,"internal_node_id":"0.0-3.0-2.25","prolific_id":"63ced2a0459f429d3da07830","session_id":"643c252a67eeef9602cd61ea","study_id":"64370a36d30bfa807bc7e43c"},{"rt":294,"stimulus":"\n\t\t\t\t\t<div>\n\t\t\t\t\t<h2>Trial 26 is over</h2>\n\t\t\t\t\t<p>Press <span style=\"color: red\"><strong>any key</strong></span> to continue to the next trial</p>\n\t\t\t\t\t</div>\n\t\t\t\t","response":" ","trial_type":"html-keyboard-response","trial_index":109,"time_elapsed":399003,"internal_node_id":"0.0-3.0-3.25","prolific_id":"63ced2a0459f429d3da07830","session_id":"643c252a67eeef9602cd61ea","study_id":"64370a36d30bfa807bc7e43c"},{"rt":4671,"response":{"prediction":"43"},"trial_type":"survey-text","trial_index":110,"time_elapsed":403681,"internal_node_id":"0.0-3.0-0.26","prolific_id":"63ced2a0459f429d3da07830","session_id":"643c252a67eeef9602cd61ea","study_id":"64370a36d30bfa807bc7e43c"},{"rt":3069,"response":{"prior knowledge":0,"curiosity":0},"accuracy":[],"trial_type":"survey","trial_index":111,"time_elapsed":406788,"internal_node_id":"0.0-3.0-1.26","prolific_id":"63ced2a0459f429d3da07830","session_id":"643c252a67eeef9602cd61ea","study_id":"64370a36d30bfa807bc7e43c"},{"rt":null,"stimulus":"\n\t\t\t<div class=\"flip_card\">\n\t\t\t\t<div class=\"flip_card_inner\">\n\t\t\t\t\t<div class=\"flip_card_front\">\n\t\t\t\t\t\t<img src=img/27.png>\n\t\t\t\t\t</div>\n\t\t\t\t\t<div class=\"flip_card_back\">\n\t\t\t\t\t\t<h2>How many different animals (real or imaginary) are represented in the Chinese calendar?</h2>\n\t\t\t\t\t\t<br>\n\t\t\t\t\t\t<p>Answer: <strong>12</strong></p>\n\t\t\t\t\t</div>\n\t\t\t\t</div>\n\t\t\t</div>\n\t\t\t","response":null,"trial_type":"html-keyboard-response","trial_index":112,"time_elapsed":411797,"internal_node_id":"0.0-3.0-2.26","prolific_id":"63ced2a0459f429d3da07830","session_id":"643c252a67eeef9602cd61ea","study_id":"64370a36d30bfa807bc7e43c"},{"rt":428,"stimulus":"\n\t\t\t\t\t<div>\n\t\t\t\t\t<h2>Trial 27 is over</h2>\n\t\t\t\t\t<p>Press <span style=\"color: red\"><strong>any key</strong></span> to continue to the next trial</p>\n\t\t\t\t\t</div>\n\t\t\t\t","response":" ","trial_type":"html-keyboard-response","trial_index":113,"time_elapsed":412226,"internal_node_id":"0.0-3.0-3.26","prolific_id":"63ced2a0459f429d3da07830","session_id":"643c252a67eeef9602cd61ea","study_id":"64370a36d30bfa807bc7e43c"},{"rt":3056,"response":{"prediction":"0"},"trial_type":"survey-text","trial_index":114,"time_elapsed":415290,"internal_node_id":"0.0-3.0-0.27","prolific_id":"63ced2a0459f429d3da07830","session_id":"643c252a67eeef9602cd61ea","study_id":"64370a36d30bfa807bc7e43c"},{"rt":3263,"response":{"prior knowledge":0,"curiosity":0},"accuracy":[],"trial_type":"survey","trial_index":115,"time_elapsed":418591,"internal_node_id":"0.0-3.0-1.27","prolific_id":"63ced2a0459f429d3da07830","session_id":"643c252a67eeef9602cd61ea","study_id":"64370a36d30bfa807bc7e43c"},{"rt":null,"stimulus":"\n\t\t\t<div class=\"flip_card\">\n\t\t\t\t<div class=\"flip_card_inner\">\n\t\t\t\t\t<div class=\"flip_card_front\">\n\t\t\t\t\t\t<img src=img/13.png>\n\t\t\t\t\t</div>\n\t\t\t\t\t<div class=\"flip_card_back\">\n\t\t\t\t\t\t<h2>How many countries have territory in the Arctic Circle?</h2>\n\t\t\t\t\t\t<br>\n\t\t\t\t\t\t<p>Answer: <strong>8</strong></p>\n\t\t\t\t\t</div>\n\t\t\t\t</div>\n\t\t\t</div>\n\t\t\t","response":null,"trial_type":"html-keyboard-response","trial_index":116,"time_elapsed":423593,"internal_node_id":"0.0-3.0-2.27","prolific_id":"63ced2a0459f429d3da07830","session_id":"643c252a67eeef9602cd61ea","study_id":"64370a36d30bfa807bc7e43c"},{"rt":1431,"stimulus":"\n\t\t\t\t\t<div>\n\t\t\t\t\t<h2>Trial 28 is over</h2>\n\t\t\t\t\t<p>Press <span style=\"color: red\"><strong>any key</strong></span> to continue to the next trial</p>\n\t\t\t\t\t</div>\n\t\t\t\t","response":" ","trial_type":"html-keyboard-response","trial_index":117,"time_elapsed":425026,"internal_node_id":"0.0-3.0-3.27","prolific_id":"63ced2a0459f429d3da07830","session_id":"643c252a67eeef9602cd61ea","study_id":"64370a36d30bfa807bc7e43c"},{"rt":3238,"response":{"prediction":"54"},"trial_type":"survey-text","trial_index":118,"time_elapsed":428269,"internal_node_id":"0.0-3.0-0.28","prolific_id":"63ced2a0459f429d3da07830","session_id":"643c252a67eeef9602cd61ea","study_id":"64370a36d30bfa807bc7e43c"},{"rt":3326,"response":{"prior knowledge":0,"curiosity":0},"accuracy":[],"trial_type":"survey","trial_index":119,"time_elapsed":431613,"internal_node_id":"0.0-3.0-1.28","prolific_id":"63ced2a0459f429d3da07830","session_id":"643c252a67eeef9602cd61ea","study_id":"64370a36d30bfa807bc7e43c"},{"rt":null,"stimulus":"\n\t\t\t<div class=\"flip_card\">\n\t\t\t\t<div class=\"flip_card_inner\">\n\t\t\t\t\t<div class=\"flip_card_front\">\n\t\t\t\t\t\t<img src=img/22.png>\n\t\t\t\t\t</div>\n\t\t\t\t\t<div class=\"flip_card_back\">\n\t\t\t\t\t\t<h2>How old was King Tut when he died?</h2>\n\t\t\t\t\t\t<br>\n\t\t\t\t\t\t<p>Answer: <strong>19</strong></p>\n\t\t\t\t\t</div>\n\t\t\t\t</div>\n\t\t\t</div>\n\t\t\t","response":null,"trial_type":"html-keyboard-response","trial_index":120,"time_elapsed":437100,"internal_node_id":"0.0-3.0-2.28","prolific_id":"63ced2a0459f429d3da07830","session_id":"643c252a67eeef9602cd61ea","study_id":"64370a36d30bfa807bc7e43c"},{"rt":628,"stimulus":"\n\t\t\t\t\t<div>\n\t\t\t\t\t<h2>Trial 29 is over</h2>\n\t\t\t\t\t<p>Press <span style=\"color: red\"><strong>any key</strong></span> to continue to the next trial</p>\n\t\t\t\t\t</div>\n\t\t\t\t","response":" ","trial_type":"html-keyboard-response","trial_index":121,"time_elapsed":437730,"internal_node_id":"0.0-3.0-3.28","prolific_id":"63ced2a0459f429d3da07830","session_id":"643c252a67eeef9602cd61ea","study_id":"64370a36d30bfa807bc7e43c"},{"rt":8006,"response":{"prediction":"7"},"trial_type":"survey-text","trial_index":122,"time_elapsed":445739,"internal_node_id":"0.0-3.0-0.29","prolific_id":"63ced2a0459f429d3da07830","session_id":"643c252a67eeef9602cd61ea","study_id":"64370a36d30bfa807bc7e43c"},{"rt":3728,"response":{"prior knowledge":0,"curiosity":0},"accuracy":[],"trial_type":"survey","trial_index":123,"time_elapsed":449484,"internal_node_id":"0.0-3.0-1.29","prolific_id":"63ced2a0459f429d3da07830","session_id":"643c252a67eeef9602cd61ea","study_id":"64370a36d30bfa807bc7e43c"},{"rt":null,"stimulus":"\n\t\t\t<div class=\"flip_card\">\n\t\t\t\t<div class=\"flip_card_inner\">\n\t\t\t\t\t<div class=\"flip_card_front\">\n\t\t\t\t\t\t<img src=img/21.png>\n\t\t\t\t\t</div>\n\t\t\t\t\t<div class=\"flip_card_back\">\n\t\t\t\t\t\t<h2>How many soccer players should each team have on the field at the start of each match?</h2>\n\t\t\t\t\t\t<br>\n\t\t\t\t\t\t<p>Answer: <strong>11</strong></p>\n\t\t\t\t\t</div>\n\t\t\t\t</div>\n\t\t\t</div>\n\t\t\t","response":null,"trial_type":"html-keyboard-response","trial_index":124,"time_elapsed":454489,"internal_node_id":"0.0-3.0-2.29","prolific_id":"63ced2a0459f429d3da07830","session_id":"643c252a67eeef9602cd61ea","study_id":"64370a36d30bfa807bc7e43c"},{"rt":517,"stimulus":"\n\t\t\t\t\t<div>\n\t\t\t\t\t<h2>Trial 30 is over</h2>\n\t\t\t\t\t<p>Press <span style=\"color: red\"><strong>any key</strong></span> to continue to the next trial</p>\n\t\t\t\t\t</div>\n\t\t\t\t","response":" ","trial_type":"html-keyboard-response","trial_index":125,"time_elapsed":455009,"internal_node_id":"0.0-3.0-3.29","prolific_id":"63ced2a0459f429d3da07830","session_id":"643c252a67eeef9602cd61ea","study_id":"64370a36d30bfa807bc7e43c"},{"rt":2055,"stimulus":"\n\t\t\t<h2>Good job! You've finished the 30 trials:p</h2>\n\t\t\t<p>In the next session, you will see two cards on the screen in each trial.</p>\n\t\t\t<p>On one card is a pattern that you have seen before in the experiment,\n\t\t\t\tand on the other card is one you have not seen.</p><br>\n\t\t\t<p>Your task is to choose the one you think you <em>have</em> seen before for every trial.</p>\n\t\t\t<p>Press '<span style=\"color: red;\"><strong>F</strong></span>' to choose the card on the left,\n\t\t\t\tand '<span style=\"color: red;\"><strong>J</strong></span>' to choose the card on the right.</p>\n\t\t\t<p>Have fun!</p>\n\t\t\t<br>\n\t\t\t<p>The trials will begin in 30 seconds</p>\n\t\t\t","response":"control","trial_type":"html-keyboard-response","trial_index":126,"time_elapsed":457067,"internal_node_id":"0.0-4.0","prolific_id":"63ced2a0459f429d3da07830","session_id":"643c252a67eeef9602cd61ea","study_id":"64370a36d30bfa807bc7e43c"},{"rt":7871,"stimulus":"\n\t\t\t\t\t\t<div class=\"two_card_container\">\n\t\t\t\t\t\t<div class=\"card_container\">\n\t\t\t\t\t\t<img src=img/40.png>\n\t\t\t\t\t\t</div>\n\n\t\t\t\t\t\t<div class=\"card_container\">\n\t\t\t\t\t\t<img src=img/17.png>\n\t\t\t\t\t\t</div>","response":"j","task":"response","correct_response":"j","trial_type":"html-keyboard-response","trial_index":127,"time_elapsed":464940,"internal_node_id":"0.0-5.0-0.0","prolific_id":"63ced2a0459f429d3da07830","session_id":"643c252a67eeef9602cd61ea","study_id":"64370a36d30bfa807bc7e43c","correct":true},{"rt":null,"stimulus":"\n\t\t\t\t\t<p>Correct!</p>\n\t\t\t\t\t","response":null,"trial_type":"html-keyboard-response","trial_index":128,"time_elapsed":465957,"internal_node_id":"0.0-5.0-1.0","prolific_id":"63ced2a0459f429d3da07830","session_id":"643c252a67eeef9602cd61ea","study_id":"64370a36d30bfa807bc7e43c"},{"rt":580,"stimulus":"\n\t\t\t\t\t\t<div class=\"two_card_container\">\n\t\t\t\t\t\t<div class=\"card_container\">\n\t\t\t\t\t\t<img src=img/36.png>\n\t\t\t\t\t\t</div>\n\n\t\t\t\t\t\t<div class=\"card_container\">\n\t\t\t\t\t\t<img src=img/13.png>\n\t\t\t\t\t\t</div>","response":"f","task":"response","correct_response":"j","trial_type":"html-keyboard-response","trial_index":129,"time_elapsed":466539,"internal_node_id":"0.0-5.0-0.1","prolific_id":"63ced2a0459f429d3da07830","session_id":"643c252a67eeef9602cd61ea","study_id":"64370a36d30bfa807bc7e43c","correct":false},{"rt":null,"stimulus":"\n\t\t\t\t\t<p>Wrong answer</p>\n\t\t\t\t\t","response":null,"trial_type":"html-keyboard-response","trial_index":130,"time_elapsed":467542,"internal_node_id":"0.0-5.0-1.1","prolific_id":"63ced2a0459f429d3da07830","session_id":"643c252a67eeef9602cd61ea","study_id":"64370a36d30bfa807bc7e43c"},{"rt":333,"stimulus":"\n\t\t\t\t\t\t<div class=\"two_card_container\">\n\t\t\t\t\t\t<div class=\"card_container\">\n\t\t\t\t\t\t<img src=img/38.png>\n\t\t\t\t\t\t</div>\n\n\t\t\t\t\t\t<div class=\"card_container\">\n\t\t\t\t\t\t<img src=img/25.png>\n\t\t\t\t\t\t</div>","response":"j","task":"response","correct_response":"j","trial_type":"html-keyboard-response","trial_index":131,"time_elapsed":467877,"internal_node_id":"0.0-5.0-0.2","prolific_id":"63ced2a0459f429d3da07830","session_id":"643c252a67eeef9602cd61ea","study_id":"64370a36d30bfa807bc7e43c","correct":true},{"rt":null,"stimulus":"\n\t\t\t\t\t<p>Correct!</p>\n\t\t\t\t\t","response":null,"trial_type":"html-keyboard-response","trial_index":132,"time_elapsed":468882,"internal_node_id":"0.0-5.0-1.2","prolific_id":"63ced2a0459f429d3da07830","session_id":"643c252a67eeef9602cd61ea","study_id":"64370a36d30bfa807bc7e43c"},{"rt":261,"stimulus":"\n\t\t\t\t\t\t<div class=\"two_card_container\">\n\t\t\t\t\t\t<div class=\"card_container\">\n\t\t\t\t\t\t<img src=img/18.png>\n\t\t\t\t\t\t</div>\n\n\t\t\t\t\t\t<div class=\"card_container\">\n\t\t\t\t\t\t<img src=img/39.png>\n\t\t\t\t\t\t</div>","response":"f","task":"response","correct_response":"f","trial_type":"html-keyboard-response","trial_index":133,"time_elapsed":469146,"internal_node_id":"0.0-5.0-0.3","prolific_id":"63ced2a0459f429d3da07830","session_id":"643c252a67eeef9602cd61ea","study_id":"64370a36d30bfa807bc7e43c","correct":true},{"rt":null,"stimulus":"\n\t\t\t\t\t<p>Correct!</p>\n\t\t\t\t\t","response":null,"trial_type":"html-keyboard-response","trial_index":134,"time_elapsed":470156,"internal_node_id":"0.0-5.0-1.3","prolific_id":"63ced2a0459f429d3da07830","session_id":"643c252a67eeef9602cd61ea","study_id":"64370a36d30bfa807bc7e43c"},{"rt":365,"stimulus":"\n\t\t\t\t\t\t<div class=\"two_card_container\">\n\t\t\t\t\t\t<div class=\"card_container\">\n\t\t\t\t\t\t<img src=img/31.png>\n\t\t\t\t\t\t</div>\n\n\t\t\t\t\t\t<div class=\"card_container\">\n\t\t\t\t\t\t<img src=img/11.png>\n\t\t\t\t\t\t</div>","response":"j","task":"response","correct_response":"j","trial_type":"html-keyboard-response","trial_index":135,"time_elapsed":470523,"internal_node_id":"0.0-5.0-0.4","prolific_id":"63ced2a0459f429d3da07830","session_id":"643c252a67eeef9602cd61ea","study_id":"64370a36d30bfa807bc7e43c","correct":true},{"rt":null,"stimulus":"\n\t\t\t\t\t<p>Correct!</p>\n\t\t\t\t\t","response":null,"trial_type":"html-keyboard-response","trial_index":136,"time_elapsed":471539,"internal_node_id":"0.0-5.0-1.4","prolific_id":"63ced2a0459f429d3da07830","session_id":"643c252a67eeef9602cd61ea","study_id":"64370a36d30bfa807bc7e43c"},{"rt":188,"stimulus":"\n\t\t\t\t\t\t<div class=\"two_card_container\">\n\t\t\t\t\t\t<div class=\"card_container\">\n\t\t\t\t\t\t<img src=img/21.png>\n\t\t\t\t\t\t</div>\n\n\t\t\t\t\t\t<div class=\"card_container\">\n\t\t\t\t\t\t<img src=img/37.png>\n\t\t\t\t\t\t</div>","response":"j","task":"response","correct_response":"f","trial_type":"html-keyboard-response","trial_index":137,"time_elapsed":471730,"internal_node_id":"0.0-5.0-0.5","prolific_id":"63ced2a0459f429d3da07830","session_id":"643c252a67eeef9602cd61ea","study_id":"64370a36d30bfa807bc7e43c","correct":false},{"rt":null,"stimulus":"\n\t\t\t\t\t<p>Wrong answer</p>\n\t\t\t\t\t","response":null,"trial_type":"html-keyboard-response","trial_index":138,"time_elapsed":472738,"internal_node_id":"0.0-5.0-1.5","prolific_id":"63ced2a0459f429d3da07830","session_id":"643c252a67eeef9602cd61ea","study_id":"64370a36d30bfa807bc7e43c"},{"rt":166,"stimulus":"\n\t\t\t\t\t\t<div class=\"two_card_container\">\n\t\t\t\t\t\t<div class=\"card_container\">\n\t\t\t\t\t\t<img src=img/8.png>\n\t\t\t\t\t\t</div>\n\n\t\t\t\t\t\t<div class=\"card_container\">\n\t\t\t\t\t\t<img src=img/34.png>\n\t\t\t\t\t\t</div>","response":"j","task":"response","correct_response":"f","trial_type":"html-keyboard-response","trial_index":139,"time_elapsed":472906,"internal_node_id":"0.0-5.0-0.6","prolific_id":"63ced2a0459f429d3da07830","session_id":"643c252a67eeef9602cd61ea","study_id":"64370a36d30bfa807bc7e43c","correct":false},{"rt":null,"stimulus":"\n\t\t\t\t\t<p>Wrong answer</p>\n\t\t\t\t\t","response":null,"trial_type":"html-keyboard-response","trial_index":140,"time_elapsed":473916,"internal_node_id":"0.0-5.0-1.6","prolific_id":"63ced2a0459f429d3da07830","session_id":"643c252a67eeef9602cd61ea","study_id":"64370a36d30bfa807bc7e43c"},{"rt":133,"stimulus":"\n\t\t\t\t\t\t<div class=\"two_card_container\">\n\t\t\t\t\t\t<div class=\"card_container\">\n\t\t\t\t\t\t<img src=img/32.png>\n\t\t\t\t\t\t</div>\n\n\t\t\t\t\t\t<div class=\"card_container\">\n\t\t\t\t\t\t<img src=img/28.png>\n\t\t\t\t\t\t</div>","response":"j","task":"response","correct_response":"j","trial_type":"html-keyboard-response","trial_index":141,"time_elapsed":474051,"internal_node_id":"0.0-5.0-0.7","prolific_id":"63ced2a0459f429d3da07830","session_id":"643c252a67eeef9602cd61ea","study_id":"64370a36d30bfa807bc7e43c","correct":true},{"rt":null,"stimulus":"\n\t\t\t\t\t<p>Correct!</p>\n\t\t\t\t\t","response":null,"trial_type":"html-keyboard-response","trial_index":142,"time_elapsed":475051,"internal_node_id":"0.0-5.0-1.7","prolific_id":"63ced2a0459f429d3da07830","session_id":"643c252a67eeef9602cd61ea","study_id":"64370a36d30bfa807bc7e43c"},{"rt":433,"stimulus":"\n\t\t\t\t\t\t<div class=\"two_card_container\">\n\t\t\t\t\t\t<div class=\"card_container\">\n\t\t\t\t\t\t<img src=img/6.png>\n\t\t\t\t\t\t</div>\n\n\t\t\t\t\t\t<div class=\"card_container\">\n\t\t\t\t\t\t<img src=img/33.png>\n\t\t\t\t\t\t</div>","response":"j","task":"response","correct_response":"f","trial_type":"html-keyboard-response","trial_index":143,"time_elapsed":475484,"internal_node_id":"0.0-5.0-0.8","prolific_id":"63ced2a0459f429d3da07830","session_id":"643c252a67eeef9602cd61ea","study_id":"64370a36d30bfa807bc7e43c","correct":false},{"rt":null,"stimulus":"\n\t\t\t\t\t<p>Wrong answer</p>\n\t\t\t\t\t","response":null,"trial_type":"html-keyboard-response","trial_index":144,"time_elapsed":476499,"internal_node_id":"0.0-5.0-1.8","prolific_id":"63ced2a0459f429d3da07830","session_id":"643c252a67eeef9602cd61ea","study_id":"64370a36d30bfa807bc7e43c"},{"rt":157,"stimulus":"\n\t\t\t\t\t\t<div class=\"two_card_container\">\n\t\t\t\t\t\t<div class=\"card_container\">\n\t\t\t\t\t\t<img src=img/10.png>\n\t\t\t\t\t\t</div>\n\n\t\t\t\t\t\t<div class=\"card_container\">\n\t\t\t\t\t\t<img src=img/35.png>\n\t\t\t\t\t\t</div>","response":"j","task":"response","correct_response":"f","trial_type":"html-keyboard-response","trial_index":145,"time_elapsed":476657,"internal_node_id":"0.0-5.0-0.9","prolific_id":"63ced2a0459f429d3da07830","session_id":"643c252a67eeef9602cd61ea","study_id":"64370a36d30bfa807bc7e43c","correct":false},{"rt":null,"stimulus":"\n\t\t\t\t\t<p>Wrong answer</p>\n\t\t\t\t\t","response":null,"trial_type":"html-keyboard-response","trial_index":146,"time_elapsed":477669,"internal_node_id":"0.0-5.0-1.9","prolific_id":"63ced2a0459f429d3da07830","session_id":"643c252a67eeef9602cd61ea","study_id":"64370a36d30bfa807bc7e43c"},{"rt":300,"stimulus":"\n\t\t\t<h2>Good job :p</h2>\n\t\t\t<p>In the next session, you will see a trivia question on the screen in each trial.</p>\n\t\t\t<p>Each of these trivia questions is chosen from the questions you have already seen in the first session of the experiment.</p><br>\n\t\t\t<p>Your task is to answer the trivia question based on what you remember as accurately as you can.</p>\n\t\t\t<p>Have fun!</p>\n\t\t\t<br>\n\t\t\t<p>The trials will begin in 30 seconds</p>\n\t\t\t","response":"g","trial_type":"html-keyboard-response","trial_index":147,"time_elapsed":477969,"internal_node_id":"0.0-6.0","prolific_id":"63ced2a0459f429d3da07830","session_id":"643c252a67eeef9602cd61ea","study_id":"64370a36d30bfa807bc7e43c"},{"rt":5557,"response":{"answer":"76"},"task":"response","correct_response":"21","trial_type":"survey-text","trial_index":148,"time_elapsed":483530,"internal_node_id":"0.0-7.0-0.0","prolific_id":"63ced2a0459f429d3da07830","session_id":"643c252a67eeef9602cd61ea","study_id":"64370a36d30bfa807bc7e43c","difference":100},{"rt":null,"stimulus":"<h2>The correct answer is 21.</h2><p>Your answer was different from the answer by 55.</p><p>Not even close... do better next time!</p>","response":null,"trial_type":"html-keyboard-response","trial_index":149,"time_elapsed":486045,"internal_node_id":"0.0-7.0-1.0","prolific_id":"63ced2a0459f429d3da07830","session_id":"643c252a67eeef9602cd61ea","study_id":"64370a36d30bfa807bc7e43c"},{"rt":3222,"response":{"answer":"238932"},"task":"response","correct_response":"13171","trial_type":"survey-text","trial_index":150,"time_elapsed":489270,"internal_node_id":"0.0-7.0-0.1","prolific_id":"63ced2a0459f429d3da07830","session_id":"643c252a67eeef9602cd61ea","study_id":"64370a36d30bfa807bc7e43c","difference":100},{"rt":null,"stimulus":"<h2>The correct answer is 13171.</h2><p>Your answer was different from the answer by 225761.</p><p>Not even close... do better next time!</p>","response":null,"trial_type":"html-keyboard-response","trial_index":151,"time_elapsed":491780,"internal_node_id":"0.0-7.0-1.1","prolific_id":"63ced2a0459f429d3da07830","session_id":"643c252a67eeef9602cd61ea","study_id":"64370a36d30bfa807bc7e43c"},{"rt":3041,"response":{"answer":"13"},"task":"response","correct_response":"13","trial_type":"survey-text","trial_index":152,"time_elapsed":494824,"internal_node_id":"0.0-7.0-0.2","prolific_id":"63ced2a0459f429d3da07830","session_id":"643c252a67eeef9602cd61ea","study_id":"64370a36d30bfa807bc7e43c","difference":0},{"rt":null,"stimulus":"<h2>The correct answer is 13.</h2><p>Your answer was different from the answer by 0.</p><p>You got the right answer. Amazing work!</p>","response":null,"trial_type":"html-keyboard-response","trial_index":153,"time_elapsed":497338,"internal_node_id":"0.0-7.0-1.2","prolific_id":"63ced2a0459f429d3da07830","session_id":"643c252a67eeef9602cd61ea","study_id":"64370a36d30bfa807bc7e43c"},{"rt":2450,"response":{"answer":"432"},"task":"response","correct_response":"108","trial_type":"survey-text","trial_index":154,"time_elapsed":499792,"internal_node_id":"0.0-7.0-0.3","prolific_id":"63ced2a0459f429d3da07830","session_id":"643c252a67eeef9602cd61ea","study_id":"64370a36d30bfa807bc7e43c","difference":100},{"rt":null,"stimulus":"<h2>The correct answer is 108.</h2><p>Your answer was different from the answer by 324.</p><p>Not even close... do better next time!</p>","response":null,"trial_type":"html-keyboard-response","trial_index":155,"time_elapsed":502300,"internal_node_id":"0.0-7.0-1.3","prolific_id":"63ced2a0459f429d3da07830","session_id":"643c252a67eeef9602cd61ea","study_id":"64370a36d30bfa807bc7e43c"},{"rt":2136,"response":{"answer":"12"},"task":"response","correct_response":"19","trial_type":"survey-text","trial_index":156,"time_elapsed":504440,"internal_node_id":"0.0-7.0-0.4","prolific_id":"63ced2a0459f429d3da07830","session_id":"643c252a67eeef9602cd61ea","study_id":"64370a36d30bfa807bc7e43c","difference":37},{"rt":null,"stimulus":"<h2>The correct answer is 19.</h2><p>Your answer was different from the answer by 7.</p><p>Not the worst. Can you do better on the next?</p>","response":null,"trial_type":"html-keyboard-response","trial_index":157,"time_elapsed":506944,"internal_node_id":"0.0-7.0-1.4","prolific_id":"63ced2a0459f429d3da07830","session_id":"643c252a67eeef9602cd61ea","study_id":"64370a36d30bfa807bc7e43c"},{"rt":4009,"response":{"answer":"1904"},"task":"response","correct_response":"1907","trial_type":"survey-text","trial_index":158,"time_elapsed":510956,"internal_node_id":"0.0-7.0-0.5","prolific_id":"63ced2a0459f429d3da07830","session_id":"643c252a67eeef9602cd61ea","study_id":"64370a36d30bfa807bc7e43c","difference":0},{"rt":null,"stimulus":"<h2>The correct answer is 1907.</h2><p>Your answer was different from the answer by 3.</p><p>Excellent. Kudos to you!</p>","response":null,"trial_type":"html-keyboard-response","trial_index":159,"time_elapsed":513468,"internal_node_id":"0.0-7.0-1.5","prolific_id":"63ced2a0459f429d3da07830","session_id":"643c252a67eeef9602cd61ea","study_id":"64370a36d30bfa807bc7e43c"},{"rt":1531,"response":{"answer":"312"},"task":"response","correct_response":"88","trial_type":"survey-text","trial_index":160,"time_elapsed":515004,"internal_node_id":"0.0-7.0-0.6","prolific_id":"63ced2a0459f429d3da07830","session_id":"643c252a67eeef9602cd61ea","study_id":"64370a36d30bfa807bc7e43c","difference":100},{"rt":null,"stimulus":"<h2>The correct answer is 88.</h2><p>Your answer was different from the answer by 224.</p><p>Not even close... do better next time!</p>","response":null,"trial_type":"html-keyboard-response","trial_index":161,"time_elapsed":517520,"internal_node_id":"0.0-7.0-1.6","prolific_id":"63ced2a0459f429d3da07830","session_id":"643c252a67eeef9602cd61ea","study_id":"64370a36d30bfa807bc7e43c"},{"rt":578,"response":{"answer":"12"},"task":"response","correct_response":"11","trial_type":"survey-text","trial_index":162,"time_elapsed":518106,"internal_node_id":"0.0-7.0-0.7","prolific_id":"63ced2a0459f429d3da07830","session_id":"643c252a67eeef9602cd61ea","study_id":"64370a36d30bfa807bc7e43c","difference":9},{"rt":null,"stimulus":"<h2>The correct answer is 11.</h2><p>Your answer was different from the answer by 1.</p><p>Excellent. Kudos to you!</p>","response":null,"trial_type":"html-keyboard-response","trial_index":163,"time_elapsed":520615,"internal_node_id":"0.0-7.0-1.7","prolific_id":"63ced2a0459f429d3da07830","session_id":"643c252a67eeef9602cd61ea","study_id":"64370a36d30bfa807bc7e43c"},{"rt":1438,"response":{"answer":"532"},"task":"response","correct_response":"4","trial_type":"survey-text","trial_index":164,"time_elapsed":522059,"internal_node_id":"0.0-7.0-0.8","prolific_id":"63ced2a0459f429d3da07830","session_id":"643c252a67eeef9602cd61ea","study_id":"64370a36d30bfa807bc7e43c","difference":100},{"rt":null,"stimulus":"<h2>The correct answer is 4.</h2><p>Your answer was different from the answer by 528.</p><p>Not even close... do better next time!</p>","response":null,"trial_type":"html-keyboard-response","trial_index":165,"time_elapsed":524576,"internal_node_id":"0.0-7.0-1.8","prolific_id":"63ced2a0459f429d3da07830","session_id":"643c252a67eeef9602cd61ea","study_id":"64370a36d30bfa807bc7e43c"},{"rt":478,"response":{"answer":"7456"},"task":"response","correct_response":"2007","trial_type":"survey-text","trial_index":166,"time_elapsed":525058,"internal_node_id":"0.0-7.0-0.9","prolific_id":"63ced2a0459f429d3da07830","session_id":"643c252a67eeef9602cd61ea","study_id":"64370a36d30bfa807bc7e43c","difference":100},{"rt":null,"stimulus":"<h2>The correct answer is 2007.</h2><p>Your answer was different from the answer by 5449.</p><p>Not even close... do better next time!</p>","response":null,"trial_type":"html-keyboard-response","trial_index":167,"time_elapsed":527566,"internal_node_id":"0.0-7.0-1.9","prolific_id":"63ced2a0459f429d3da07830","session_id":"643c252a67eeef9602cd61ea","study_id":"64370a36d30bfa807bc7e43c"}]