[{"success":true,"timeout":false,"failed_images":[],"failed_audio":[],"failed_video":[],"trial_type":"preload","trial_index":0,"time_elapsed":2100,"internal_node_id":"0.0-0.0","prolific_id":"63d17f45aa9ba4a22c0e5b83","session_id":"643c253460a60588cd512d8e","study_id":"64370a36d30bfa807bc7e43c"},{"rt":17328,"stimulus":"\n\t\t\t\t\t<p>Welcome and thank you for participating in this study!</p>\n\t\t\t\t\t<p>In each trial, you will be given a trivia question and then be asked to:</p><br>\n\t\t\t\t\t<div class=\"list\">\n\t\t\t\t\t<p>1) Predict the answer</p>\n\t\t\t\t\t<p>2) Rate how much you already know about the topic</p>\n\t\t\t\t\t<p>3) Rate how much you want to know the answer</p>\n\t\t\t\t\t</div>\n\t\t\t\t\t<br>\n\t\t\t\t\t<p>Then, you will see a card that flips over to reveal the answer.</p>\n\t\t\t\t\t<br>\n\t\t\t\t\t<p>Let's try a practice round. Press <span style=\"color: red\"><strong>any key</strong></span> to move to the next slide</p>\n\t\t\t\t\t","response":" ","trial_type":"html-keyboard-response","trial_index":1,"time_elapsed":19431,"internal_node_id":"0.0-1.0","prolific_id":"63d17f45aa9ba4a22c0e5b83","session_id":"643c253460a60588cd512d8e","study_id":"64370a36d30bfa807bc7e43c"},{"rt":5575,"response":{"practice prediction":"6"},"task":"practice","trial_type":"survey-text","trial_index":2,"time_elapsed":25040,"internal_node_id":"0.0-2.0-0.0","prolific_id":"63d17f45aa9ba4a22c0e5b83","session_id":"643c253460a60588cd512d8e","study_id":"64370a36d30bfa807bc7e43c"},{"rt":7102,"response":{"practice":4},"accuracy":[],"trial_type":"survey","trial_index":3,"time_elapsed":32250,"internal_node_id":"0.0-2.0-1.0","prolific_id":"63d17f45aa9ba4a22c0e5b83","session_id":"643c253460a60588cd512d8e","study_id":"64370a36d30bfa807bc7e43c"},{"rt":null,"stimulus":"\n\t\t\t\t<div class=\"flip_card\">\n\t\t\t\t\t<div class=\"flip_card_inner\">\n\t\t\t\t\t\t<div class=\"flip_card_front\">\n\t\t\t\t\t\t\t<img src=img/practice.png>\n\t\t\t\t\t\t</div>\n\t\t\t\t\t\t<div class=\"flip_card_back\">\n\t\t\t\t\t\t\t<h2>\"How many legs does a lobster have?\"</h2>\n\t\t\t\t\t\t    <br>\n\t\t\t\t\t\t    <p>Answer: <strong>\"10\"</strong></p>\n\t\t\t\t\t    </div>\n\t\t\t\t    </div>\n\t\t\t    </div>\n\t\t\t\t","response":null,"trial_type":"html-keyboard-response","trial_index":4,"time_elapsed":37253,"internal_node_id":"0.0-2.0-2.0","prolific_id":"63d17f45aa9ba4a22c0e5b83","session_id":"643c253460a60588cd512d8e","study_id":"64370a36d30bfa807bc7e43c"},{"rt":1757,"stimulus":"\n\t\t\t\t\t<div>\n\t\t\t\t\t<h2>The practice round is over</h2>\n\t\t\t\t\t<p>Press <span style=\"color: red\"><strong>any key</strong></span> to continue to the actual trials</p>\n\t\t\t\t\t<p>Good Luck!</p>\n\t\t\t\t\t</div>\n\t\t\t\t\t","response":"k","trial_type":"html-keyboard-response","trial_index":5,"time_elapsed":39011,"internal_node_id":"0.0-2.0-3.0","prolific_id":"63d17f45aa9ba4a22c0e5b83","session_id":"643c253460a60588cd512d8e","study_id":"64370a36d30bfa807bc7e43c"},{"rt":7552,"response":{"prediction":"40"},"trial_type":"survey-text","trial_index":6,"time_elapsed":46577,"internal_node_id":"0.0-3.0-0.0","prolific_id":"63d17f45aa9ba4a22c0e5b83","session_id":"643c253460a60588cd512d8e","study_id":"64370a36d30bfa807bc7e43c"},{"rt":6760,"response":{"prior knowledge":0,"curiosity":4},"accuracy":[],"trial_type":"survey","trial_index":7,"time_elapsed":53364,"internal_node_id":"0.0-3.0-1.0","prolific_id":"63d17f45aa9ba4a22c0e5b83","session_id":"643c253460a60588cd512d8e","study_id":"64370a36d30bfa807bc7e43c"},{"rt":null,"stimulus":"\n\t\t\t<div class=\"flip_card\">\n\t\t\t\t<div class=\"flip_card_inner\">\n\t\t\t\t\t<div class=\"flip_card_front\">\n\t\t\t\t\t\t<img src=img/4.png>\n\t\t\t\t\t</div>\n\t\t\t\t\t<div class=\"flip_card_back\">\n\t\t\t\t\t\t<h2>How many single hand gestures, or mudras, are used in Indian classical dance?</h2>\n\t\t\t\t\t\t<br>\n\t\t\t\t\t\t<p>Answer: <strong>28</strong></p>\n\t\t\t\t\t</div>\n\t\t\t\t</div>\n\t\t\t</div>\n\t\t\t","response":null,"trial_type":"html-keyboard-response","trial_index":8,"time_elapsed":58368,"internal_node_id":"0.0-3.0-2.0","prolific_id":"63d17f45aa9ba4a22c0e5b83","session_id":"643c253460a60588cd512d8e","study_id":"64370a36d30bfa807bc7e43c"},{"rt":2717,"stimulus":"\n\t\t\t\t\t<div>\n\t\t\t\t\t<h2>Trial 1 is over</h2>\n\t\t\t\t\t<p>Press <span style=\"color: red\"><strong>any key</strong></span> to continue to the next trial</p>\n\t\t\t\t\t</div>\n\t\t\t\t","response":"j","trial_type":"html-keyboard-response","trial_index":9,"time_elapsed":61086,"internal_node_id":"0.0-3.0-3.0","prolific_id":"63d17f45aa9ba4a22c0e5b83","session_id":"643c253460a60588cd512d8e","study_id":"64370a36d30bfa807bc7e43c"},{"rt":15115,"response":{"prediction":"6300"},"trial_type":"survey-text","trial_index":10,"time_elapsed":76212,"internal_node_id":"0.0-3.0-0.1","prolific_id":"63d17f45aa9ba4a22c0e5b83","session_id":"643c253460a60588cd512d8e","study_id":"64370a36d30bfa807bc7e43c"},{"rt":5425,"response":{"prior knowledge":2,"curiosity":4},"accuracy":[],"trial_type":"survey","trial_index":11,"time_elapsed":81683,"internal_node_id":"0.0-3.0-1.1","prolific_id":"63d17f45aa9ba4a22c0e5b83","session_id":"643c253460a60588cd512d8e","study_id":"64370a36d30bfa807bc7e43c"},{"rt":null,"stimulus":"\n\t\t\t<div class=\"flip_card\">\n\t\t\t\t<div class=\"flip_card_inner\">\n\t\t\t\t\t<div class=\"flip_card_front\">\n\t\t\t\t\t\t<img src=img/19.png>\n\t\t\t\t\t</div>\n\t\t\t\t\t<div class=\"flip_card_back\">\n\t\t\t\t\t\t<h2>What is the diameter of Earth in miles?</h2>\n\t\t\t\t\t\t<br>\n\t\t\t\t\t\t<p>Answer: <strong>7917.5</strong></p>\n\t\t\t\t\t</div>\n\t\t\t\t</div>\n\t\t\t</div>\n\t\t\t","response":null,"trial_type":"html-keyboard-response","trial_index":12,"time_elapsed":86687,"internal_node_id":"0.0-3.0-2.1","prolific_id":"63d17f45aa9ba4a22c0e5b83","session_id":"643c253460a60588cd512d8e","study_id":"64370a36d30bfa807bc7e43c"},{"rt":1644,"stimulus":"\n\t\t\t\t\t<div>\n\t\t\t\t\t<h2>Trial 2 is over</h2>\n\t\t\t\t\t<p>Press <span style=\"color: red\"><strong>any key</strong></span> to continue to the next trial</p>\n\t\t\t\t\t</div>\n\t\t\t\t","response":"k","trial_type":"html-keyboard-response","trial_index":13,"time_elapsed":88331,"internal_node_id":"0.0-3.0-3.1","prolific_id":"63d17f45aa9ba4a22c0e5b83","session_id":"643c253460a60588cd512d8e","study_id":"64370a36d30bfa807bc7e43c"},{"rt":3472,"response":{"prediction":"7"},"trial_type":"survey-text","trial_index":14,"time_elapsed":91813,"internal_node_id":"0.0-3.0-0.2","prolific_id":"63d17f45aa9ba4a22c0e5b83","session_id":"643c253460a60588cd512d8e","study_id":"64370a36d30bfa807bc7e43c"},{"rt":6117,"response":{"prior knowledge":4,"curiosity":4},"accuracy":[],"trial_type":"survey","trial_index":15,"time_elapsed":97952,"internal_node_id":"0.0-3.0-1.2","prolific_id":"63d17f45aa9ba4a22c0e5b83","session_id":"643c253460a60588cd512d8e","study_id":"64370a36d30bfa807bc7e43c"},{"rt":null,"stimulus":"\n\t\t\t<div class=\"flip_card\">\n\t\t\t\t<div class=\"flip_card_inner\">\n\t\t\t\t\t<div class=\"flip_card_front\">\n\t\t\t\t\t\t<img src=img/23.png>\n\t\t\t\t\t</div>\n\t\t\t\t\t<div class=\"flip_card_back\">\n\t\t\t\t\t\t<h2>How many lines are in a sonnet?</h2>\n\t\t\t\t\t\t<br>\n\t\t\t\t\t\t<p>Answer: <strong>14</strong></p>\n\t\t\t\t\t</div>\n\t\t\t\t</div>\n\t\t\t</div>\n\t\t\t","response":null,"trial_type":"html-keyboard-response","trial_index":16,"time_elapsed":102954,"internal_node_id":"0.0-3.0-2.2","prolific_id":"63d17f45aa9ba4a22c0e5b83","session_id":"643c253460a60588cd512d8e","study_id":"64370a36d30bfa807bc7e43c"},{"rt":1529,"stimulus":"\n\t\t\t\t\t<div>\n\t\t\t\t\t<h2>Trial 3 is over</h2>\n\t\t\t\t\t<p>Press <span style=\"color: red\"><strong>any key</strong></span> to continue to the next trial</p>\n\t\t\t\t\t</div>\n\t\t\t\t","response":"o","trial_type":"html-keyboard-response","trial_index":17,"time_elapsed":104484,"internal_node_id":"0.0-3.0-3.2","prolific_id":"63d17f45aa9ba4a22c0e5b83","session_id":"643c253460a60588cd512d8e","study_id":"64370a36d30bfa807bc7e43c"},{"rt":5086,"response":{"prediction":"4"},"trial_type":"survey-text","trial_index":18,"time_elapsed":109580,"internal_node_id":"0.0-3.0-0.3","prolific_id":"63d17f45aa9ba4a22c0e5b83","session_id":"643c253460a60588cd512d8e","study_id":"64370a36d30bfa807bc7e43c"},{"rt":4782,"response":{"prior knowledge":0,"curiosity":3},"accuracy":[],"trial_type":"survey","trial_index":19,"time_elapsed":114385,"internal_node_id":"0.0-3.0-1.3","prolific_id":"63d17f45aa9ba4a22c0e5b83","session_id":"643c253460a60588cd512d8e","study_id":"64370a36d30bfa807bc7e43c"},{"rt":null,"stimulus":"\n\t\t\t<div class=\"flip_card\">\n\t\t\t\t<div class=\"flip_card_inner\">\n\t\t\t\t\t<div class=\"flip_card_front\">\n\t\t\t\t\t\t<img src=img/21.png>\n\t\t\t\t\t</div>\n\t\t\t\t\t<div class=\"flip_card_back\">\n\t\t\t\t\t\t<h2>How many tones are in the Vietnamese language?</h2>\n\t\t\t\t\t\t<br>\n\t\t\t\t\t\t<p>Answer: <strong>6</strong></p>\n\t\t\t\t\t</div>\n\t\t\t\t</div>\n\t\t\t</div>\n\t\t\t","response":null,"trial_type":"html-keyboard-response","trial_index":20,"time_elapsed":119387,"internal_node_id":"0.0-3.0-2.3","prolific_id":"63d17f45aa9ba4a22c0e5b83","session_id":"643c253460a60588cd512d8e","study_id":"64370a36d30bfa807bc7e43c"},{"rt":1605,"stimulus":"\n\t\t\t\t\t<div>\n\t\t\t\t\t<h2>Trial 4 is over</h2>\n\t\t\t\t\t<p>Press <span style=\"color: red\"><strong>any key</strong></span> to continue to the next trial</p>\n\t\t\t\t\t</div>\n\t\t\t\t","response":"k","trial_type":"html-keyboard-response","trial_index":21,"time_elapsed":120994,"internal_node_id":"0.0-3.0-3.3","prolific_id":"63d17f45aa9ba4a22c0e5b83","session_id":"643c253460a60588cd512d8e","study_id":"64370a36d30bfa807bc7e43c"},{"rt":7165,"response":{"prediction":"102"},"trial_type":"survey-text","trial_index":22,"time_elapsed":128168,"internal_node_id":"0.0-3.0-0.4","prolific_id":"63d17f45aa9ba4a22c0e5b83","session_id":"643c253460a60588cd512d8e","study_id":"64370a36d30bfa807bc7e43c"},{"rt":4215,"response":{"prior knowledge":4,"curiosity":4},"accuracy":[],"trial_type":"survey","trial_index":23,"time_elapsed":132404,"internal_node_id":"0.0-3.0-1.4","prolific_id":"63d17f45aa9ba4a22c0e5b83","session_id":"643c253460a60588cd512d8e","study_id":"64370a36d30bfa807bc7e43c"},{"rt":null,"stimulus":"\n\t\t\t<div class=\"flip_card\">\n\t\t\t\t<div class=\"flip_card_inner\">\n\t\t\t\t\t<div class=\"flip_card_front\">\n\t\t\t\t\t\t<img src=img/5.png>\n\t\t\t\t\t</div>\n\t\t\t\t\t<div class=\"flip_card_back\">\n\t\t\t\t\t\t<h2>How many bones is a human baby born with?</h2>\n\t\t\t\t\t\t<br>\n\t\t\t\t\t\t<p>Answer: <strong>300</strong></p>\n\t\t\t\t\t</div>\n\t\t\t\t</div>\n\t\t\t</div>\n\t\t\t","response":null,"trial_type":"html-keyboard-response","trial_index":24,"time_elapsed":137406,"internal_node_id":"0.0-3.0-2.4","prolific_id":"63d17f45aa9ba4a22c0e5b83","session_id":"643c253460a60588cd512d8e","study_id":"64370a36d30bfa807bc7e43c"},{"rt":1463,"stimulus":"\n\t\t\t\t\t<div>\n\t\t\t\t\t<h2>Trial 5 is over</h2>\n\t\t\t\t\t<p>Press <span style=\"color: red\"><strong>any key</strong></span> to continue to the next trial</p>\n\t\t\t\t\t</div>\n\t\t\t\t","response":"i","trial_type":"html-keyboard-response","trial_index":25,"time_elapsed":138870,"internal_node_id":"0.0-3.0-3.4","prolific_id":"63d17f45aa9ba4a22c0e5b83","session_id":"643c253460a60588cd512d8e","study_id":"64370a36d30bfa807bc7e43c"},{"rt":11756,"response":{"prediction":"4"},"trial_type":"survey-text","trial_index":26,"time_elapsed":150635,"internal_node_id":"0.0-3.0-0.5","prolific_id":"63d17f45aa9ba4a22c0e5b83","session_id":"643c253460a60588cd512d8e","study_id":"64370a36d30bfa807bc7e43c"},{"rt":6102,"response":{"prior knowledge":3,"curiosity":4},"accuracy":[],"trial_type":"survey","trial_index":27,"time_elapsed":156757,"internal_node_id":"0.0-3.0-1.5","prolific_id":"63d17f45aa9ba4a22c0e5b83","session_id":"643c253460a60588cd512d8e","study_id":"64370a36d30bfa807bc7e43c"},{"rt":null,"stimulus":"\n\t\t\t<div class=\"flip_card\">\n\t\t\t\t<div class=\"flip_card_inner\">\n\t\t\t\t\t<div class=\"flip_card_front\">\n\t\t\t\t\t\t<img src=img/29.png>\n\t\t\t\t\t</div>\n\t\t\t\t\t<div class=\"flip_card_back\">\n\t\t\t\t\t\t<h2>How many countries have territory in the Arctic Circle?</h2>\n\t\t\t\t\t\t<br>\n\t\t\t\t\t\t<p>Answer: <strong>8</strong></p>\n\t\t\t\t\t</div>\n\t\t\t\t</div>\n\t\t\t</div>\n\t\t\t","response":null,"trial_type":"html-keyboard-response","trial_index":28,"time_elapsed":161760,"internal_node_id":"0.0-3.0-2.5","prolific_id":"63d17f45aa9ba4a22c0e5b83","session_id":"643c253460a60588cd512d8e","study_id":"64370a36d30bfa807bc7e43c"},{"rt":1806,"stimulus":"\n\t\t\t\t\t<div>\n\t\t\t\t\t<h2>Trial 6 is over</h2>\n\t\t\t\t\t<p>Press <span style=\"color: red\"><strong>any key</strong></span> to continue to the next trial</p>\n\t\t\t\t\t</div>\n\t\t\t\t","response":"i","trial_type":"html-keyboard-response","trial_index":29,"time_elapsed":163567,"internal_node_id":"0.0-3.0-3.5","prolific_id":"63d17f45aa9ba4a22c0e5b83","session_id":"643c253460a60588cd512d8e","study_id":"64370a36d30bfa807bc7e43c"},{"rt":8161,"response":{"prediction":"107"},"trial_type":"survey-text","trial_index":30,"time_elapsed":171737,"internal_node_id":"0.0-3.0-0.6","prolific_id":"63d17f45aa9ba4a22c0e5b83","session_id":"643c253460a60588cd512d8e","study_id":"64370a36d30bfa807bc7e43c"},{"rt":7436,"response":{"prior knowledge":1,"curiosity":4},"accuracy":[],"trial_type":"survey","trial_index":31,"time_elapsed":179191,"internal_node_id":"0.0-3.0-1.6","prolific_id":"63d17f45aa9ba4a22c0e5b83","session_id":"643c253460a60588cd512d8e","study_id":"64370a36d30bfa807bc7e43c"},{"rt":null,"stimulus":"\n\t\t\t<div class=\"flip_card\">\n\t\t\t\t<div class=\"flip_card_inner\">\n\t\t\t\t\t<div class=\"flip_card_front\">\n\t\t\t\t\t\t<img src=img/9.png>\n\t\t\t\t\t</div>\n\t\t\t\t\t<div class=\"flip_card_back\">\n\t\t\t\t\t\t<h2>How many floors are in the Burj Khalifa, the tallest building in the world?</h2>\n\t\t\t\t\t\t<br>\n\t\t\t\t\t\t<p>Answer: <strong>163</strong></p>\n\t\t\t\t\t</div>\n\t\t\t\t</div>\n\t\t\t</div>\n\t\t\t","response":null,"trial_type":"html-keyboard-response","trial_index":32,"time_elapsed":184195,"internal_node_id":"0.0-3.0-2.6","prolific_id":"63d17f45aa9ba4a22c0e5b83","session_id":"643c253460a60588cd512d8e","study_id":"64370a36d30bfa807bc7e43c"},{"rt":1476,"stimulus":"\n\t\t\t\t\t<div>\n\t\t\t\t\t<h2>Trial 7 is over</h2>\n\t\t\t\t\t<p>Press <span style=\"color: red\"><strong>any key</strong></span> to continue to the next trial</p>\n\t\t\t\t\t</div>\n\t\t\t\t","response":",","trial_type":"html-keyboard-response","trial_index":33,"time_elapsed":185672,"internal_node_id":"0.0-3.0-3.6","prolific_id":"63d17f45aa9ba4a22c0e5b83","session_id":"643c253460a60588cd512d8e","study_id":"64370a36d30bfa807bc7e43c"},{"rt":6176,"response":{"prediction":"1890"},"trial_type":"survey-text","trial_index":34,"time_elapsed":191855,"internal_node_id":"0.0-3.0-0.7","prolific_id":"63d17f45aa9ba4a22c0e5b83","session_id":"643c253460a60588cd512d8e","study_id":"64370a36d30bfa807bc7e43c"},{"rt":5084,"response":{"prior knowledge":1,"curiosity":3},"accuracy":[],"trial_type":"survey","trial_index":35,"time_elapsed":196960,"internal_node_id":"0.0-3.0-1.7","prolific_id":"63d17f45aa9ba4a22c0e5b83","session_id":"643c253460a60588cd512d8e","study_id":"64370a36d30bfa807bc7e43c"},{"rt":null,"stimulus":"\n\t\t\t<div class=\"flip_card\">\n\t\t\t\t<div class=\"flip_card_inner\">\n\t\t\t\t\t<div class=\"flip_card_front\">\n\t\t\t\t\t\t<img src=img/12.png>\n\t\t\t\t\t</div>\n\t\t\t\t\t<div class=\"flip_card_back\">\n\t\t\t\t\t\t<h2>In what year was the Mexican artist Frida Kahlo born?</h2>\n\t\t\t\t\t\t<br>\n\t\t\t\t\t\t<p>Answer: <strong>1907</strong></p>\n\t\t\t\t\t</div>\n\t\t\t\t</div>\n\t\t\t</div>\n\t\t\t","response":null,"trial_type":"html-keyboard-response","trial_index":36,"time_elapsed":201962,"internal_node_id":"0.0-3.0-2.7","prolific_id":"63d17f45aa9ba4a22c0e5b83","session_id":"643c253460a60588cd512d8e","study_id":"64370a36d30bfa807bc7e43c"},{"rt":1308,"stimulus":"\n\t\t\t\t\t<div>\n\t\t\t\t\t<h2>Trial 8 is over</h2>\n\t\t\t\t\t<p>Press <span style=\"color: red\"><strong>any key</strong></span> to continue to the next trial</p>\n\t\t\t\t\t</div>\n\t\t\t\t","response":",","trial_type":"html-keyboard-response","trial_index":37,"time_elapsed":203271,"internal_node_id":"0.0-3.0-3.7","prolific_id":"63d17f45aa9ba4a22c0e5b83","session_id":"643c253460a60588cd512d8e","study_id":"64370a36d30bfa807bc7e43c"},{"rt":10966,"response":{"prediction":"1936"},"trial_type":"survey-text","trial_index":38,"time_elapsed":214244,"internal_node_id":"0.0-3.0-0.8","prolific_id":"63d17f45aa9ba4a22c0e5b83","session_id":"643c253460a60588cd512d8e","study_id":"64370a36d30bfa807bc7e43c"},{"rt":5016,"response":{"prior knowledge":2,"curiosity":4},"accuracy":[],"trial_type":"survey","trial_index":39,"time_elapsed":219296,"internal_node_id":"0.0-3.0-1.8","prolific_id":"63d17f45aa9ba4a22c0e5b83","session_id":"643c253460a60588cd512d8e","study_id":"64370a36d30bfa807bc7e43c"},{"rt":null,"stimulus":"\n\t\t\t<div class=\"flip_card\">\n\t\t\t\t<div class=\"flip_card_inner\">\n\t\t\t\t\t<div class=\"flip_card_front\">\n\t\t\t\t\t\t<img src=img/11.png>\n\t\t\t\t\t</div>\n\t\t\t\t\t<div class=\"flip_card_back\">\n\t\t\t\t\t\t<h2>In what year did the first Modern Olympic Games take place?</h2>\n\t\t\t\t\t\t<br>\n\t\t\t\t\t\t<p>Answer: <strong>1896</strong></p>\n\t\t\t\t\t</div>\n\t\t\t\t</div>\n\t\t\t</div>\n\t\t\t","response":null,"trial_type":"html-keyboard-response","trial_index":40,"time_elapsed":224300,"internal_node_id":"0.0-3.0-2.8","prolific_id":"63d17f45aa9ba4a22c0e5b83","session_id":"643c253460a60588cd512d8e","study_id":"64370a36d30bfa807bc7e43c"},{"rt":1419,"stimulus":"\n\t\t\t\t\t<div>\n\t\t\t\t\t<h2>Trial 9 is over</h2>\n\t\t\t\t\t<p>Press <span style=\"color: red\"><strong>any key</strong></span> to continue to the next trial</p>\n\t\t\t\t\t</div>\n\t\t\t\t","response":".","trial_type":"html-keyboard-response","trial_index":41,"time_elapsed":225720,"internal_node_id":"0.0-3.0-3.8","prolific_id":"63d17f45aa9ba4a22c0e5b83","session_id":"643c253460a60588cd512d8e","study_id":"64370a36d30bfa807bc7e43c"},{"rt":4146,"response":{"prediction":"1917"},"trial_type":"survey-text","trial_index":42,"time_elapsed":229876,"internal_node_id":"0.0-3.0-0.9","prolific_id":"63d17f45aa9ba4a22c0e5b83","session_id":"643c253460a60588cd512d8e","study_id":"64370a36d30bfa807bc7e43c"},{"rt":3901,"response":{"prior knowledge":3,"curiosity":4},"accuracy":[],"trial_type":"survey","trial_index":43,"time_elapsed":233797,"internal_node_id":"0.0-3.0-1.9","prolific_id":"63d17f45aa9ba4a22c0e5b83","session_id":"643c253460a60588cd512d8e","study_id":"64370a36d30bfa807bc7e43c"},{"rt":null,"stimulus":"\n\t\t\t<div class=\"flip_card\">\n\t\t\t\t<div class=\"flip_card_inner\">\n\t\t\t\t\t<div class=\"flip_card_front\">\n\t\t\t\t\t\t<img src=img/20.png>\n\t\t\t\t\t</div>\n\t\t\t\t\t<div class=\"flip_card_back\">\n\t\t\t\t\t\t<h2>What year did the titanic sink?</h2>\n\t\t\t\t\t\t<br>\n\t\t\t\t\t\t<p>Answer: <strong>1912</strong></p>\n\t\t\t\t\t</div>\n\t\t\t\t</div>\n\t\t\t</div>\n\t\t\t","response":null,"trial_type":"html-keyboard-response","trial_index":44,"time_elapsed":238800,"internal_node_id":"0.0-3.0-2.9","prolific_id":"63d17f45aa9ba4a22c0e5b83","session_id":"643c253460a60588cd512d8e","study_id":"64370a36d30bfa807bc7e43c"},{"rt":1771,"stimulus":"\n\t\t\t\t\t<div>\n\t\t\t\t\t<h2>Trial 10 is over</h2>\n\t\t\t\t\t<p>Press <span style=\"color: red\"><strong>any key</strong></span> to continue to the next trial</p>\n\t\t\t\t\t</div>\n\t\t\t\t","response":"b","trial_type":"html-keyboard-response","trial_index":45,"time_elapsed":240572,"internal_node_id":"0.0-3.0-3.9","prolific_id":"63d17f45aa9ba4a22c0e5b83","session_id":"643c253460a60588cd512d8e","study_id":"64370a36d30bfa807bc7e43c"},{"rt":2778,"response":{"prediction":"13"},"trial_type":"survey-text","trial_index":46,"time_elapsed":243361,"internal_node_id":"0.0-3.0-0.10","prolific_id":"63d17f45aa9ba4a22c0e5b83","session_id":"643c253460a60588cd512d8e","study_id":"64370a36d30bfa807bc7e43c"},{"rt":3971,"response":{"prior knowledge":5,"curiosity":3},"accuracy":[],"trial_type":"survey","trial_index":47,"time_elapsed":247350,"internal_node_id":"0.0-3.0-1.10","prolific_id":"63d17f45aa9ba4a22c0e5b83","session_id":"643c253460a60588cd512d8e","study_id":"64370a36d30bfa807bc7e43c"},{"rt":null,"stimulus":"\n\t\t\t<div class=\"flip_card\">\n\t\t\t\t<div class=\"flip_card_inner\">\n\t\t\t\t\t<div class=\"flip_card_front\">\n\t\t\t\t\t\t<img src=img/2.png>\n\t\t\t\t\t</div>\n\t\t\t\t\t<div class=\"flip_card_back\">\n\t\t\t\t\t\t<h2>How much is in a Baker's Dozen?</h2>\n\t\t\t\t\t\t<br>\n\t\t\t\t\t\t<p>Answer: <strong>13</strong></p>\n\t\t\t\t\t</div>\n\t\t\t\t</div>\n\t\t\t</div>\n\t\t\t","response":null,"trial_type":"html-keyboard-response","trial_index":48,"time_elapsed":252362,"internal_node_id":"0.0-3.0-2.10","prolific_id":"63d17f45aa9ba4a22c0e5b83","session_id":"643c253460a60588cd512d8e","study_id":"64370a36d30bfa807bc7e43c"},{"rt":1382,"stimulus":"\n\t\t\t\t\t<div>\n\t\t\t\t\t<h2>Trial 11 is over</h2>\n\t\t\t\t\t<p>Press <span style=\"color: red\"><strong>any key</strong></span> to continue to the next trial</p>\n\t\t\t\t\t</div>\n\t\t\t\t","response":"v","trial_type":"html-keyboard-response","trial_index":49,"time_elapsed":253746,"internal_node_id":"0.0-3.0-3.10","prolific_id":"63d17f45aa9ba4a22c0e5b83","session_id":"643c253460a60588cd512d8e","study_id":"64370a36d30bfa807bc7e43c"},{"rt":13708,"response":{"prediction":"4"},"trial_type":"survey-text","trial_index":50,"time_elapsed":267464,"internal_node_id":"0.0-3.0-0.11","prolific_id":"63d17f45aa9ba4a22c0e5b83","session_id":"643c253460a60588cd512d8e","study_id":"64370a36d30bfa807bc7e43c"},{"rt":4512,"response":{"prior knowledge":2,"curiosity":5},"accuracy":[],"trial_type":"survey","trial_index":51,"time_elapsed":272002,"internal_node_id":"0.0-3.0-1.11","prolific_id":"63d17f45aa9ba4a22c0e5b83","session_id":"643c253460a60588cd512d8e","study_id":"64370a36d30bfa807bc7e43c"},{"rt":null,"stimulus":"\n\t\t\t<div class=\"flip_card\">\n\t\t\t\t<div class=\"flip_card_inner\">\n\t\t\t\t\t<div class=\"flip_card_front\">\n\t\t\t\t\t\t<img src=img/16.png>\n\t\t\t\t\t</div>\n\t\t\t\t\t<div class=\"flip_card_back\">\n\t\t\t\t\t\t<h2>How many moons does Neptune have?</h2>\n\t\t\t\t\t\t<br>\n\t\t\t\t\t\t<p>Answer: <strong>14</strong></p>\n\t\t\t\t\t</div>\n\t\t\t\t</div>\n\t\t\t</div>\n\t\t\t","response":null,"trial_type":"html-keyboard-response","trial_index":52,"time_elapsed":277006,"internal_node_id":"0.0-3.0-2.11","prolific_id":"63d17f45aa9ba4a22c0e5b83","session_id":"643c253460a60588cd512d8e","study_id":"64370a36d30bfa807bc7e43c"},{"rt":1353,"stimulus":"\n\t\t\t\t\t<div>\n\t\t\t\t\t<h2>Trial 12 is over</h2>\n\t\t\t\t\t<p>Press <span style=\"color: red\"><strong>any key</strong></span> to continue to the next trial</p>\n\t\t\t\t\t</div>\n\t\t\t\t","response":"b","trial_type":"html-keyboard-response","trial_index":53,"time_elapsed":278361,"internal_node_id":"0.0-3.0-3.11","prolific_id":"63d17f45aa9ba4a22c0e5b83","session_id":"643c253460a60588cd512d8e","study_id":"64370a36d30bfa807bc7e43c"},{"rt":5743,"response":{"prediction":"1800"},"trial_type":"survey-text","trial_index":54,"time_elapsed":284115,"internal_node_id":"0.0-3.0-0.12","prolific_id":"63d17f45aa9ba4a22c0e5b83","session_id":"643c253460a60588cd512d8e","study_id":"64370a36d30bfa807bc7e43c"},{"rt":6435,"response":{"prior knowledge":4,"curiosity":4},"accuracy":[],"trial_type":"survey","trial_index":55,"time_elapsed":290569,"internal_node_id":"0.0-3.0-1.12","prolific_id":"63d17f45aa9ba4a22c0e5b83","session_id":"643c253460a60588cd512d8e","study_id":"64370a36d30bfa807bc7e43c"},{"rt":null,"stimulus":"\n\t\t\t<div class=\"flip_card\">\n\t\t\t\t<div class=\"flip_card_inner\">\n\t\t\t\t\t<div class=\"flip_card_front\">\n\t\t\t\t\t\t<img src=img/27.png>\n\t\t\t\t\t</div>\n\t\t\t\t\t<div class=\"flip_card_back\">\n\t\t\t\t\t\t<h2>How long is the Great Wall of China (in miles)?</h2>\n\t\t\t\t\t\t<br>\n\t\t\t\t\t\t<p>Answer: <strong>13171</strong></p>\n\t\t\t\t\t</div>\n\t\t\t\t</div>\n\t\t\t</div>\n\t\t\t","response":null,"trial_type":"html-keyboard-response","trial_index":56,"time_elapsed":295572,"internal_node_id":"0.0-3.0-2.12","prolific_id":"63d17f45aa9ba4a22c0e5b83","session_id":"643c253460a60588cd512d8e","study_id":"64370a36d30bfa807bc7e43c"},{"rt":1347,"stimulus":"\n\t\t\t\t\t<div>\n\t\t\t\t\t<h2>Trial 13 is over</h2>\n\t\t\t\t\t<p>Press <span style=\"color: red\"><strong>any key</strong></span> to continue to the next trial</p>\n\t\t\t\t\t</div>\n\t\t\t\t","response":"b","trial_type":"html-keyboard-response","trial_index":57,"time_elapsed":296920,"internal_node_id":"0.0-3.0-3.12","prolific_id":"63d17f45aa9ba4a22c0e5b83","session_id":"643c253460a60588cd512d8e","study_id":"64370a36d30bfa807bc7e43c"},{"rt":23391,"response":{"prediction":"1934"},"trial_type":"survey-text","trial_index":58,"time_elapsed":320318,"internal_node_id":"0.0-3.0-0.13","prolific_id":"63d17f45aa9ba4a22c0e5b83","session_id":"643c253460a60588cd512d8e","study_id":"64370a36d30bfa807bc7e43c"},{"rt":5252,"response":{"prior knowledge":1,"curiosity":4},"accuracy":[],"trial_type":"survey","trial_index":59,"time_elapsed":325589,"internal_node_id":"0.0-3.0-1.13","prolific_id":"63d17f45aa9ba4a22c0e5b83","session_id":"643c253460a60588cd512d8e","study_id":"64370a36d30bfa807bc7e43c"},{"rt":null,"stimulus":"\n\t\t\t<div class=\"flip_card\">\n\t\t\t\t<div class=\"flip_card_inner\">\n\t\t\t\t\t<div class=\"flip_card_front\">\n\t\t\t\t\t\t<img src=img/17.png>\n\t\t\t\t\t</div>\n\t\t\t\t\t<div class=\"flip_card_back\">\n\t\t\t\t\t\t<h2>In what year was the first Nobel Prize awarded?</h2>\n\t\t\t\t\t\t<br>\n\t\t\t\t\t\t<p>Answer: <strong>1901</strong></p>\n\t\t\t\t\t</div>\n\t\t\t\t</div>\n\t\t\t</div>\n\t\t\t","response":null,"trial_type":"html-keyboard-response","trial_index":60,"time_elapsed":330592,"internal_node_id":"0.0-3.0-2.13","prolific_id":"63d17f45aa9ba4a22c0e5b83","session_id":"643c253460a60588cd512d8e","study_id":"64370a36d30bfa807bc7e43c"},{"rt":1513,"stimulus":"\n\t\t\t\t\t<div>\n\t\t\t\t\t<h2>Trial 14 is over</h2>\n\t\t\t\t\t<p>Press <span style=\"color: red\"><strong>any key</strong></span> to continue to the next trial</p>\n\t\t\t\t\t</div>\n\t\t\t\t","response":"e","trial_type":"html-keyboard-response","trial_index":61,"time_elapsed":332106,"internal_node_id":"0.0-3.0-3.13","prolific_id":"63d17f45aa9ba4a22c0e5b83","session_id":"643c253460a60588cd512d8e","study_id":"64370a36d30bfa807bc7e43c"},{"rt":6891,"response":{"prediction":"13"},"trial_type":"survey-text","trial_index":62,"time_elapsed":339004,"internal_node_id":"0.0-3.0-0.14","prolific_id":"63d17f45aa9ba4a22c0e5b83","session_id":"643c253460a60588cd512d8e","study_id":"64370a36d30bfa807bc7e43c"},{"rt":7907,"response":{"prior knowledge":1,"curiosity":4},"accuracy":[],"trial_type":"survey","trial_index":63,"time_elapsed":346926,"internal_node_id":"0.0-3.0-1.14","prolific_id":"63d17f45aa9ba4a22c0e5b83","session_id":"643c253460a60588cd512d8e","study_id":"64370a36d30bfa807bc7e43c"},{"rt":null,"stimulus":"\n\t\t\t<div class=\"flip_card\">\n\t\t\t\t<div class=\"flip_card_inner\">\n\t\t\t\t\t<div class=\"flip_card_front\">\n\t\t\t\t\t\t<img src=img/14.png>\n\t\t\t\t\t</div>\n\t\t\t\t\t<div class=\"flip_card_back\">\n\t\t\t\t\t\t<h2>How many different animals (real or imaginary) are represented in the Chinese calendar?</h2>\n\t\t\t\t\t\t<br>\n\t\t\t\t\t\t<p>Answer: <strong>12</strong></p>\n\t\t\t\t\t</div>\n\t\t\t\t</div>\n\t\t\t</div>\n\t\t\t","response":null,"trial_type":"html-keyboard-response","trial_index":64,"time_elapsed":351930,"internal_node_id":"0.0-3.0-2.14","prolific_id":"63d17f45aa9ba4a22c0e5b83","session_id":"643c253460a60588cd512d8e","study_id":"64370a36d30bfa807bc7e43c"},{"rt":1522,"stimulus":"\n\t\t\t\t\t<div>\n\t\t\t\t\t<h2>Trial 15 is over</h2>\n\t\t\t\t\t<p>Press <span style=\"color: red\"><strong>any key</strong></span> to continue to the next trial</p>\n\t\t\t\t\t</div>\n\t\t\t\t","response":"3","trial_type":"html-keyboard-response","trial_index":65,"time_elapsed":353454,"internal_node_id":"0.0-3.0-3.14","prolific_id":"63d17f45aa9ba4a22c0e5b83","session_id":"643c253460a60588cd512d8e","study_id":"64370a36d30bfa807bc7e43c"},{"rt":6194,"response":{"prediction":"9"},"trial_type":"survey-text","trial_index":66,"time_elapsed":359656,"internal_node_id":"0.0-3.0-0.15","prolific_id":"63d17f45aa9ba4a22c0e5b83","session_id":"643c253460a60588cd512d8e","study_id":"64370a36d30bfa807bc7e43c"},{"rt":4237,"response":{"prior knowledge":1,"curiosity":4},"accuracy":[],"trial_type":"survey","trial_index":67,"time_elapsed":363910,"internal_node_id":"0.0-3.0-1.15","prolific_id":"63d17f45aa9ba4a22c0e5b83","session_id":"643c253460a60588cd512d8e","study_id":"64370a36d30bfa807bc7e43c"},{"rt":null,"stimulus":"\n\t\t\t<div class=\"flip_card\">\n\t\t\t\t<div class=\"flip_card_inner\">\n\t\t\t\t\t<div class=\"flip_card_front\">\n\t\t\t\t\t\t<img src=img/26.png>\n\t\t\t\t\t</div>\n\t\t\t\t\t<div class=\"flip_card_back\">\n\t\t\t\t\t\t<h2>How many constellations are there?</h2>\n\t\t\t\t\t\t<br>\n\t\t\t\t\t\t<p>Answer: <strong>88</strong></p>\n\t\t\t\t\t</div>\n\t\t\t\t</div>\n\t\t\t</div>\n\t\t\t","response":null,"trial_type":"html-keyboard-response","trial_index":68,"time_elapsed":368915,"internal_node_id":"0.0-3.0-2.15","prolific_id":"63d17f45aa9ba4a22c0e5b83","session_id":"643c253460a60588cd512d8e","study_id":"64370a36d30bfa807bc7e43c"},{"rt":1452,"stimulus":"\n\t\t\t\t\t<div>\n\t\t\t\t\t<h2>Trial 16 is over</h2>\n\t\t\t\t\t<p>Press <span style=\"color: red\"><strong>any key</strong></span> to continue to the next trial</p>\n\t\t\t\t\t</div>\n\t\t\t\t","response":"o","trial_type":"html-keyboard-response","trial_index":69,"time_elapsed":370369,"internal_node_id":"0.0-3.0-3.15","prolific_id":"63d17f45aa9ba4a22c0e5b83","session_id":"643c253460a60588cd512d8e","study_id":"64370a36d30bfa807bc7e43c"},{"rt":4996,"response":{"prediction":"3"},"trial_type":"survey-text","trial_index":70,"time_elapsed":375374,"internal_node_id":"0.0-3.0-0.16","prolific_id":"63d17f45aa9ba4a22c0e5b83","session_id":"643c253460a60588cd512d8e","study_id":"64370a36d30bfa807bc7e43c"},{"rt":4179,"response":{"prior knowledge":2,"curiosity":4},"accuracy":[],"trial_type":"survey","trial_index":71,"time_elapsed":379579,"internal_node_id":"0.0-3.0-1.16","prolific_id":"63d17f45aa9ba4a22c0e5b83","session_id":"643c253460a60588cd512d8e","study_id":"64370a36d30bfa807bc7e43c"},{"rt":null,"stimulus":"\n\t\t\t<div class=\"flip_card\">\n\t\t\t\t<div class=\"flip_card_inner\">\n\t\t\t\t\t<div class=\"flip_card_front\">\n\t\t\t\t\t\t<img src=img/15.png>\n\t\t\t\t\t</div>\n\t\t\t\t\t<div class=\"flip_card_back\">\n\t\t\t\t\t\t<h2>How many main islands make up Japan?</h2>\n\t\t\t\t\t\t<br>\n\t\t\t\t\t\t<p>Answer: <strong>4</strong></p>\n\t\t\t\t\t</div>\n\t\t\t\t</div>\n\t\t\t</div>\n\t\t\t","response":null,"trial_type":"html-keyboard-response","trial_index":72,"time_elapsed":384581,"internal_node_id":"0.0-3.0-2.16","prolific_id":"63d17f45aa9ba4a22c0e5b83","session_id":"643c253460a60588cd512d8e","study_id":"64370a36d30bfa807bc7e43c"},{"rt":1212,"stimulus":"\n\t\t\t\t\t<div>\n\t\t\t\t\t<h2>Trial 17 is over</h2>\n\t\t\t\t\t<p>Press <span style=\"color: red\"><strong>any key</strong></span> to continue to the next trial</p>\n\t\t\t\t\t</div>\n\t\t\t\t","response":"c","trial_type":"html-keyboard-response","trial_index":73,"time_elapsed":385795,"internal_node_id":"0.0-3.0-3.16","prolific_id":"63d17f45aa9ba4a22c0e5b83","session_id":"643c253460a60588cd512d8e","study_id":"64370a36d30bfa807bc7e43c"},{"rt":10423,"response":{"prediction":"1987"},"trial_type":"survey-text","trial_index":74,"time_elapsed":396226,"internal_node_id":"0.0-3.0-0.17","prolific_id":"63d17f45aa9ba4a22c0e5b83","session_id":"643c253460a60588cd512d8e","study_id":"64370a36d30bfa807bc7e43c"},{"rt":4286,"response":{"prior knowledge":3,"curiosity":5},"accuracy":[],"trial_type":"survey","trial_index":75,"time_elapsed":400530,"internal_node_id":"0.0-3.0-1.17","prolific_id":"63d17f45aa9ba4a22c0e5b83","session_id":"643c253460a60588cd512d8e","study_id":"64370a36d30bfa807bc7e43c"},{"rt":null,"stimulus":"\n\t\t\t<div class=\"flip_card\">\n\t\t\t\t<div class=\"flip_card_inner\">\n\t\t\t\t\t<div class=\"flip_card_front\">\n\t\t\t\t\t\t<img src=img/6.png>\n\t\t\t\t\t</div>\n\t\t\t\t\t<div class=\"flip_card_back\">\n\t\t\t\t\t\t<h2>What year did the Berlin Wall fall?</h2>\n\t\t\t\t\t\t<br>\n\t\t\t\t\t\t<p>Answer: <strong>1989</strong></p>\n\t\t\t\t\t</div>\n\t\t\t\t</div>\n\t\t\t</div>\n\t\t\t","response":null,"trial_type":"html-keyboard-response","trial_index":76,"time_elapsed":405533,"internal_node_id":"0.0-3.0-2.17","prolific_id":"63d17f45aa9ba4a22c0e5b83","session_id":"643c253460a60588cd512d8e","study_id":"64370a36d30bfa807bc7e43c"},{"rt":1148,"stimulus":"\n\t\t\t\t\t<div>\n\t\t\t\t\t<h2>Trial 18 is over</h2>\n\t\t\t\t\t<p>Press <span style=\"color: red\"><strong>any key</strong></span> to continue to the next trial</p>\n\t\t\t\t\t</div>\n\t\t\t\t","response":"l","trial_type":"html-keyboard-response","trial_index":77,"time_elapsed":406683,"internal_node_id":"0.0-3.0-3.17","prolific_id":"63d17f45aa9ba4a22c0e5b83","session_id":"643c253460a60588cd512d8e","study_id":"64370a36d30bfa807bc7e43c"},{"rt":6454,"response":{"prediction":"10"},"trial_type":"survey-text","trial_index":78,"time_elapsed":413144,"internal_node_id":"0.0-3.0-0.18","prolific_id":"63d17f45aa9ba4a22c0e5b83","session_id":"643c253460a60588cd512d8e","study_id":"64370a36d30bfa807bc7e43c"},{"rt":5656,"response":{"prior knowledge":0,"curiosity":1},"accuracy":[],"trial_type":"survey","trial_index":79,"time_elapsed":418815,"internal_node_id":"0.0-3.0-1.18","prolific_id":"63d17f45aa9ba4a22c0e5b83","session_id":"643c253460a60588cd512d8e","study_id":"64370a36d30bfa807bc7e43c"},{"rt":null,"stimulus":"\n\t\t\t<div class=\"flip_card\">\n\t\t\t\t<div class=\"flip_card_inner\">\n\t\t\t\t\t<div class=\"flip_card_front\">\n\t\t\t\t\t\t<img src=img/7.png>\n\t\t\t\t\t</div>\n\t\t\t\t\t<div class=\"flip_card_back\">\n\t\t\t\t\t\t<h2>How many people are vegan globally (in millions)?</h2>\n\t\t\t\t\t\t<br>\n\t\t\t\t\t\t<p>Answer: <strong>79</strong></p>\n\t\t\t\t\t</div>\n\t\t\t\t</div>\n\t\t\t</div>\n\t\t\t","response":null,"trial_type":"html-keyboard-response","trial_index":80,"time_elapsed":423823,"internal_node_id":"0.0-3.0-2.18","prolific_id":"63d17f45aa9ba4a22c0e5b83","session_id":"643c253460a60588cd512d8e","study_id":"64370a36d30bfa807bc7e43c"},{"rt":1398,"stimulus":"\n\t\t\t\t\t<div>\n\t\t\t\t\t<h2>Trial 19 is over</h2>\n\t\t\t\t\t<p>Press <span style=\"color: red\"><strong>any key</strong></span> to continue to the next trial</p>\n\t\t\t\t\t</div>\n\t\t\t\t","response":",","trial_type":"html-keyboard-response","trial_index":81,"time_elapsed":425223,"internal_node_id":"0.0-3.0-3.18","prolific_id":"63d17f45aa9ba4a22c0e5b83","session_id":"643c253460a60588cd512d8e","study_id":"64370a36d30bfa807bc7e43c"},{"rt":4181,"response":{"prediction":"4"},"trial_type":"survey-text","trial_index":82,"time_elapsed":429413,"internal_node_id":"0.0-3.0-0.19","prolific_id":"63d17f45aa9ba4a22c0e5b83","session_id":"643c253460a60588cd512d8e","study_id":"64370a36d30bfa807bc7e43c"},{"rt":5130,"response":{"prior knowledge":1,"curiosity":3},"accuracy":[],"trial_type":"survey","trial_index":83,"time_elapsed":434567,"internal_node_id":"0.0-3.0-1.19","prolific_id":"63d17f45aa9ba4a22c0e5b83","session_id":"643c253460a60588cd512d8e","study_id":"64370a36d30bfa807bc7e43c"},{"rt":null,"stimulus":"\n\t\t\t<div class=\"flip_card\">\n\t\t\t\t<div class=\"flip_card_inner\">\n\t\t\t\t\t<div class=\"flip_card_front\">\n\t\t\t\t\t\t<img src=img/25.png>\n\t\t\t\t\t</div>\n\t\t\t\t\t<div class=\"flip_card_back\">\n\t\t\t\t\t\t<h2>How many native species of kangaroos are found in Australia?</h2>\n\t\t\t\t\t\t<br>\n\t\t\t\t\t\t<p>Answer: <strong>4</strong></p>\n\t\t\t\t\t</div>\n\t\t\t\t</div>\n\t\t\t</div>\n\t\t\t","response":null,"trial_type":"html-keyboard-response","trial_index":84,"time_elapsed":439570,"internal_node_id":"0.0-3.0-2.19","prolific_id":"63d17f45aa9ba4a22c0e5b83","session_id":"643c253460a60588cd512d8e","study_id":"64370a36d30bfa807bc7e43c"},{"rt":1337,"stimulus":"\n\t\t\t\t\t<div>\n\t\t\t\t\t<h2>Trial 20 is over</h2>\n\t\t\t\t\t<p>Press <span style=\"color: red\"><strong>any key</strong></span> to continue to the next trial</p>\n\t\t\t\t\t</div>\n\t\t\t\t","response":"v","trial_type":"html-keyboard-response","trial_index":85,"time_elapsed":440909,"internal_node_id":"0.0-3.0-3.19","prolific_id":"63d17f45aa9ba4a22c0e5b83","session_id":"643c253460a60588cd512d8e","study_id":"64370a36d30bfa807bc7e43c"},{"rt":10916,"response":{"prediction":"400"},"trial_type":"survey-text","trial_index":86,"time_elapsed":451832,"internal_node_id":"0.0-3.0-0.20","prolific_id":"63d17f45aa9ba4a22c0e5b83","session_id":"643c253460a60588cd512d8e","study_id":"64370a36d30bfa807bc7e43c"},{"rt":5582,"response":{"prior knowledge":2,"curiosity":4},"accuracy":[],"trial_type":"survey","trial_index":87,"time_elapsed":457436,"internal_node_id":"0.0-3.0-1.20","prolific_id":"63d17f45aa9ba4a22c0e5b83","session_id":"643c253460a60588cd512d8e","study_id":"64370a36d30bfa807bc7e43c"},{"rt":null,"stimulus":"\n\t\t\t<div class=\"flip_card\">\n\t\t\t\t<div class=\"flip_card_inner\">\n\t\t\t\t\t<div class=\"flip_card_front\">\n\t\t\t\t\t\t<img src=img/10.png>\n\t\t\t\t\t</div>\n\t\t\t\t\t<div class=\"flip_card_back\">\n\t\t\t\t\t\t<h2>How many double stitches does a baseball have?</h2>\n\t\t\t\t\t\t<br>\n\t\t\t\t\t\t<p>Answer: <strong>108</strong></p>\n\t\t\t\t\t</div>\n\t\t\t\t</div>\n\t\t\t</div>\n\t\t\t","response":null,"trial_type":"html-keyboard-response","trial_index":88,"time_elapsed":462441,"internal_node_id":"0.0-3.0-2.20","prolific_id":"63d17f45aa9ba4a22c0e5b83","session_id":"643c253460a60588cd512d8e","study_id":"64370a36d30bfa807bc7e43c"},{"rt":1805,"stimulus":"\n\t\t\t\t\t<div>\n\t\t\t\t\t<h2>Trial 21 is over</h2>\n\t\t\t\t\t<p>Press <span style=\"color: red\"><strong>any key</strong></span> to continue to the next trial</p>\n\t\t\t\t\t</div>\n\t\t\t\t","response":"3","trial_type":"html-keyboard-response","trial_index":89,"time_elapsed":464248,"internal_node_id":"0.0-3.0-3.20","prolific_id":"63d17f45aa9ba4a22c0e5b83","session_id":"643c253460a60588cd512d8e","study_id":"64370a36d30bfa807bc7e43c"},{"rt":4592,"response":{"prediction":"11"},"trial_type":"survey-text","trial_index":90,"time_elapsed":468849,"internal_node_id":"0.0-3.0-0.21","prolific_id":"63d17f45aa9ba4a22c0e5b83","session_id":"643c253460a60588cd512d8e","study_id":"64370a36d30bfa807bc7e43c"},{"rt":5122,"response":{"prior knowledge":0,"curiosity":2},"accuracy":[],"trial_type":"survey","trial_index":91,"time_elapsed":473987,"internal_node_id":"0.0-3.0-1.21","prolific_id":"63d17f45aa9ba4a22c0e5b83","session_id":"643c253460a60588cd512d8e","study_id":"64370a36d30bfa807bc7e43c"},{"rt":null,"stimulus":"\n\t\t\t<div class=\"flip_card\">\n\t\t\t\t<div class=\"flip_card_inner\">\n\t\t\t\t\t<div class=\"flip_card_front\">\n\t\t\t\t\t\t<img src=img/3.png>\n\t\t\t\t\t</div>\n\t\t\t\t\t<div class=\"flip_card_back\">\n\t\t\t\t\t\t<h2>How many soccer players should each team have on the field at the start of each match?</h2>\n\t\t\t\t\t\t<br>\n\t\t\t\t\t\t<p>Answer: <strong>11</strong></p>\n\t\t\t\t\t</div>\n\t\t\t\t</div>\n\t\t\t</div>\n\t\t\t","response":null,"trial_type":"html-keyboard-response","trial_index":92,"time_elapsed":478990,"internal_node_id":"0.0-3.0-2.21","prolific_id":"63d17f45aa9ba4a22c0e5b83","session_id":"643c253460a60588cd512d8e","study_id":"64370a36d30bfa807bc7e43c"},{"rt":1661,"stimulus":"\n\t\t\t\t\t<div>\n\t\t\t\t\t<h2>Trial 22 is over</h2>\n\t\t\t\t\t<p>Press <span style=\"color: red\"><strong>any key</strong></span> to continue to the next trial</p>\n\t\t\t\t\t</div>\n\t\t\t\t","response":"v","trial_type":"html-keyboard-response","trial_index":93,"time_elapsed":480652,"internal_node_id":"0.0-3.0-3.21","prolific_id":"63d17f45aa9ba4a22c0e5b83","session_id":"643c253460a60588cd512d8e","study_id":"64370a36d30bfa807bc7e43c"},{"rt":8608,"response":{"prediction":"88"},"trial_type":"survey-text","trial_index":94,"time_elapsed":489268,"internal_node_id":"0.0-3.0-0.22","prolific_id":"63d17f45aa9ba4a22c0e5b83","session_id":"643c253460a60588cd512d8e","study_id":"64370a36d30bfa807bc7e43c"},{"rt":3889,"response":{"prior knowledge":2,"curiosity":5},"accuracy":[],"trial_type":"survey","trial_index":95,"time_elapsed":493172,"internal_node_id":"0.0-3.0-1.22","prolific_id":"63d17f45aa9ba4a22c0e5b83","session_id":"643c253460a60588cd512d8e","study_id":"64370a36d30bfa807bc7e43c"},{"rt":null,"stimulus":"\n\t\t\t<div class=\"flip_card\">\n\t\t\t\t<div class=\"flip_card_inner\">\n\t\t\t\t\t<div class=\"flip_card_front\">\n\t\t\t\t\t\t<img src=img/28.png>\n\t\t\t\t\t</div>\n\t\t\t\t\t<div class=\"flip_card_back\">\n\t\t\t\t\t\t<h2>How many books are in the Catholic Bible?</h2>\n\t\t\t\t\t\t<br>\n\t\t\t\t\t\t<p>Answer: <strong>73</strong></p>\n\t\t\t\t\t</div>\n\t\t\t\t</div>\n\t\t\t</div>\n\t\t\t","response":null,"trial_type":"html-keyboard-response","trial_index":96,"time_elapsed":498175,"internal_node_id":"0.0-3.0-2.22","prolific_id":"63d17f45aa9ba4a22c0e5b83","session_id":"643c253460a60588cd512d8e","study_id":"64370a36d30bfa807bc7e43c"},{"rt":1063,"stimulus":"\n\t\t\t\t\t<div>\n\t\t\t\t\t<h2>Trial 23 is over</h2>\n\t\t\t\t\t<p>Press <span style=\"color: red\"><strong>any key</strong></span> to continue to the next trial</p>\n\t\t\t\t\t</div>\n\t\t\t\t","response":"1","trial_type":"html-keyboard-response","trial_index":97,"time_elapsed":499240,"internal_node_id":"0.0-3.0-3.22","prolific_id":"63d17f45aa9ba4a22c0e5b83","session_id":"643c253460a60588cd512d8e","study_id":"64370a36d30bfa807bc7e43c"},{"rt":13039,"response":{"prediction":"4"},"trial_type":"survey-text","trial_index":98,"time_elapsed":512285,"internal_node_id":"0.0-3.0-0.23","prolific_id":"63d17f45aa9ba4a22c0e5b83","session_id":"643c253460a60588cd512d8e","study_id":"64370a36d30bfa807bc7e43c"},{"rt":4496,"response":{"prior knowledge":2,"curiosity":5},"accuracy":[],"trial_type":"survey","trial_index":99,"time_elapsed":516793,"internal_node_id":"0.0-3.0-1.23","prolific_id":"63d17f45aa9ba4a22c0e5b83","session_id":"643c253460a60588cd512d8e","study_id":"64370a36d30bfa807bc7e43c"},{"rt":null,"stimulus":"\n\t\t\t<div class=\"flip_card\">\n\t\t\t\t<div class=\"flip_card_inner\">\n\t\t\t\t\t<div class=\"flip_card_front\">\n\t\t\t\t\t\t<img src=img/18.png>\n\t\t\t\t\t</div>\n\t\t\t\t\t<div class=\"flip_card_back\">\n\t\t\t\t\t\t<h2>How many countries in Africa have French as the official language?</h2>\n\t\t\t\t\t\t<br>\n\t\t\t\t\t\t<p>Answer: <strong>21</strong></p>\n\t\t\t\t\t</div>\n\t\t\t\t</div>\n\t\t\t</div>\n\t\t\t","response":null,"trial_type":"html-keyboard-response","trial_index":100,"time_elapsed":521797,"internal_node_id":"0.0-3.0-2.23","prolific_id":"63d17f45aa9ba4a22c0e5b83","session_id":"643c253460a60588cd512d8e","study_id":"64370a36d30bfa807bc7e43c"},{"rt":2296,"stimulus":"\n\t\t\t\t\t<div>\n\t\t\t\t\t<h2>Trial 24 is over</h2>\n\t\t\t\t\t<p>Press <span style=\"color: red\"><strong>any key</strong></span> to continue to the next trial</p>\n\t\t\t\t\t</div>\n\t\t\t\t","response":"x","trial_type":"html-keyboard-response","trial_index":101,"time_elapsed":524095,"internal_node_id":"0.0-3.0-3.23","prolific_id":"63d17f45aa9ba4a22c0e5b83","session_id":"643c253460a60588cd512d8e","study_id":"64370a36d30bfa807bc7e43c"},{"rt":4803,"response":{"prediction":"16"},"trial_type":"survey-text","trial_index":102,"time_elapsed":528906,"internal_node_id":"0.0-3.0-0.24","prolific_id":"63d17f45aa9ba4a22c0e5b83","session_id":"643c253460a60588cd512d8e","study_id":"64370a36d30bfa807bc7e43c"},{"rt":4101,"response":{"prior knowledge":1,"curiosity":5},"accuracy":[],"trial_type":"survey","trial_index":103,"time_elapsed":533028,"internal_node_id":"0.0-3.0-1.24","prolific_id":"63d17f45aa9ba4a22c0e5b83","session_id":"643c253460a60588cd512d8e","study_id":"64370a36d30bfa807bc7e43c"},{"rt":null,"stimulus":"\n\t\t\t<div class=\"flip_card\">\n\t\t\t\t<div class=\"flip_card_inner\">\n\t\t\t\t\t<div class=\"flip_card_front\">\n\t\t\t\t\t\t<img src=img/22.png>\n\t\t\t\t\t</div>\n\t\t\t\t\t<div class=\"flip_card_back\">\n\t\t\t\t\t\t<h2>How old was King Tut when he died?</h2>\n\t\t\t\t\t\t<br>\n\t\t\t\t\t\t<p>Answer: <strong>19</strong></p>\n\t\t\t\t\t</div>\n\t\t\t\t</div>\n\t\t\t</div>\n\t\t\t","response":null,"trial_type":"html-keyboard-response","trial_index":104,"time_elapsed":538031,"internal_node_id":"0.0-3.0-2.24","prolific_id":"63d17f45aa9ba4a22c0e5b83","session_id":"643c253460a60588cd512d8e","study_id":"64370a36d30bfa807bc7e43c"},{"rt":1408,"stimulus":"\n\t\t\t\t\t<div>\n\t\t\t\t\t<h2>Trial 25 is over</h2>\n\t\t\t\t\t<p>Press <span style=\"color: red\"><strong>any key</strong></span> to continue to the next trial</p>\n\t\t\t\t\t</div>\n\t\t\t\t","response":"n","trial_type":"html-keyboard-response","trial_index":105,"time_elapsed":539441,"internal_node_id":"0.0-3.0-3.24","prolific_id":"63d17f45aa9ba4a22c0e5b83","session_id":"643c253460a60588cd512d8e","study_id":"64370a36d30bfa807bc7e43c"},{"rt":5306,"response":{"prediction":"26"},"trial_type":"survey-text","trial_index":106,"time_elapsed":544756,"internal_node_id":"0.0-3.0-0.25","prolific_id":"63d17f45aa9ba4a22c0e5b83","session_id":"643c253460a60588cd512d8e","study_id":"64370a36d30bfa807bc7e43c"},{"rt":4676,"response":{"prior knowledge":1,"curiosity":1},"accuracy":[],"trial_type":"survey","trial_index":107,"time_elapsed":549446,"internal_node_id":"0.0-3.0-1.25","prolific_id":"63d17f45aa9ba4a22c0e5b83","session_id":"643c253460a60588cd512d8e","study_id":"64370a36d30bfa807bc7e43c"},{"rt":null,"stimulus":"\n\t\t\t<div class=\"flip_card\">\n\t\t\t\t<div class=\"flip_card_inner\">\n\t\t\t\t\t<div class=\"flip_card_front\">\n\t\t\t\t\t\t<img src=img/30.png>\n\t\t\t\t\t</div>\n\t\t\t\t\t<div class=\"flip_card_back\">\n\t\t\t\t\t\t<h2>How many books has Stephen King published?</h2>\n\t\t\t\t\t\t<br>\n\t\t\t\t\t\t<p>Answer: <strong>65</strong></p>\n\t\t\t\t\t</div>\n\t\t\t\t</div>\n\t\t\t</div>\n\t\t\t","response":null,"trial_type":"html-keyboard-response","trial_index":108,"time_elapsed":554449,"internal_node_id":"0.0-3.0-2.25","prolific_id":"63d17f45aa9ba4a22c0e5b83","session_id":"643c253460a60588cd512d8e","study_id":"64370a36d30bfa807bc7e43c"},{"rt":1188,"stimulus":"\n\t\t\t\t\t<div>\n\t\t\t\t\t<h2>Trial 26 is over</h2>\n\t\t\t\t\t<p>Press <span style=\"color: red\"><strong>any key</strong></span> to continue to the next trial</p>\n\t\t\t\t\t</div>\n\t\t\t\t","response":"b","trial_type":"html-keyboard-response","trial_index":109,"time_elapsed":555639,"internal_node_id":"0.0-3.0-3.25","prolific_id":"63d17f45aa9ba4a22c0e5b83","session_id":"643c253460a60588cd512d8e","study_id":"64370a36d30bfa807bc7e43c"},{"rt":6229,"response":{"prediction":"2"},"trial_type":"survey-text","trial_index":110,"time_elapsed":561876,"internal_node_id":"0.0-3.0-0.26","prolific_id":"63d17f45aa9ba4a22c0e5b83","session_id":"643c253460a60588cd512d8e","study_id":"64370a36d30bfa807bc7e43c"},{"rt":4499,"response":{"prior knowledge":1,"curiosity":3},"accuracy":[],"trial_type":"survey","trial_index":111,"time_elapsed":566396,"internal_node_id":"0.0-3.0-1.26","prolific_id":"63d17f45aa9ba4a22c0e5b83","session_id":"643c253460a60588cd512d8e","study_id":"64370a36d30bfa807bc7e43c"},{"rt":null,"stimulus":"\n\t\t\t<div class=\"flip_card\">\n\t\t\t\t<div class=\"flip_card_inner\">\n\t\t\t\t\t<div class=\"flip_card_front\">\n\t\t\t\t\t\t<img src=img/13.png>\n\t\t\t\t\t</div>\n\t\t\t\t\t<div class=\"flip_card_back\">\n\t\t\t\t\t\t<h2>How many times a day do Muslims pray?</h2>\n\t\t\t\t\t\t<br>\n\t\t\t\t\t\t<p>Answer: <strong>5</strong></p>\n\t\t\t\t\t</div>\n\t\t\t\t</div>\n\t\t\t</div>\n\t\t\t","response":null,"trial_type":"html-keyboard-response","trial_index":112,"time_elapsed":571400,"internal_node_id":"0.0-3.0-2.26","prolific_id":"63d17f45aa9ba4a22c0e5b83","session_id":"643c253460a60588cd512d8e","study_id":"64370a36d30bfa807bc7e43c"},{"rt":1507,"stimulus":"\n\t\t\t\t\t<div>\n\t\t\t\t\t<h2>Trial 27 is over</h2>\n\t\t\t\t\t<p>Press <span style=\"color: red\"><strong>any key</strong></span> to continue to the next trial</p>\n\t\t\t\t\t</div>\n\t\t\t\t","response":".","trial_type":"html-keyboard-response","trial_index":113,"time_elapsed":572907,"internal_node_id":"0.0-3.0-3.26","prolific_id":"63d17f45aa9ba4a22c0e5b83","session_id":"643c253460a60588cd512d8e","study_id":"64370a36d30bfa807bc7e43c"},{"rt":4430,"response":{"prediction":"29"},"trial_type":"survey-text","trial_index":114,"time_elapsed":577344,"internal_node_id":"0.0-3.0-0.27","prolific_id":"63d17f45aa9ba4a22c0e5b83","session_id":"643c253460a60588cd512d8e","study_id":"64370a36d30bfa807bc7e43c"},{"rt":3422,"response":{"prior knowledge":1,"curiosity":3},"accuracy":[],"trial_type":"survey","trial_index":115,"time_elapsed":580781,"internal_node_id":"0.0-3.0-1.27","prolific_id":"63d17f45aa9ba4a22c0e5b83","session_id":"643c253460a60588cd512d8e","study_id":"64370a36d30bfa807bc7e43c"},{"rt":null,"stimulus":"\n\t\t\t<div class=\"flip_card\">\n\t\t\t\t<div class=\"flip_card_inner\">\n\t\t\t\t\t<div class=\"flip_card_front\">\n\t\t\t\t\t\t<img src=img/24.png>\n\t\t\t\t\t</div>\n\t\t\t\t\t<div class=\"flip_card_back\">\n\t\t\t\t\t\t<h2>How many countries are in Africa?</h2>\n\t\t\t\t\t\t<br>\n\t\t\t\t\t\t<p>Answer: <strong>54</strong></p>\n\t\t\t\t\t</div>\n\t\t\t\t</div>\n\t\t\t</div>\n\t\t\t","response":null,"trial_type":"html-keyboard-response","trial_index":116,"time_elapsed":585783,"internal_node_id":"0.0-3.0-2.27","prolific_id":"63d17f45aa9ba4a22c0e5b83","session_id":"643c253460a60588cd512d8e","study_id":"64370a36d30bfa807bc7e43c"},{"rt":1264,"stimulus":"\n\t\t\t\t\t<div>\n\t\t\t\t\t<h2>Trial 28 is over</h2>\n\t\t\t\t\t<p>Press <span style=\"color: red\"><strong>any key</strong></span> to continue to the next trial</p>\n\t\t\t\t\t</div>\n\t\t\t\t","response":"r","trial_type":"html-keyboard-response","trial_index":117,"time_elapsed":587049,"internal_node_id":"0.0-3.0-3.27","prolific_id":"63d17f45aa9ba4a22c0e5b83","session_id":"643c253460a60588cd512d8e","study_id":"64370a36d30bfa807bc7e43c"},{"rt":5620,"response":{"prediction":"14"},"trial_type":"survey-text","trial_index":118,"time_elapsed":592678,"internal_node_id":"0.0-3.0-0.28","prolific_id":"63d17f45aa9ba4a22c0e5b83","session_id":"643c253460a60588cd512d8e","study_id":"64370a36d30bfa807bc7e43c"},{"rt":6771,"response":{"prior knowledge":3,"curiosity":5},"accuracy":[],"trial_type":"survey","trial_index":119,"time_elapsed":599462,"internal_node_id":"0.0-3.0-1.28","prolific_id":"63d17f45aa9ba4a22c0e5b83","session_id":"643c253460a60588cd512d8e","study_id":"64370a36d30bfa807bc7e43c"},{"rt":null,"stimulus":"\n\t\t\t<div class=\"flip_card\">\n\t\t\t\t<div class=\"flip_card_inner\">\n\t\t\t\t\t<div class=\"flip_card_front\">\n\t\t\t\t\t\t<img src=img/8.png>\n\t\t\t\t\t</div>\n\t\t\t\t\t<div class=\"flip_card_back\">\n\t\t\t\t\t\t<h2>A bar mitzvah is traditionally celebrated when Jewish males turn what age?</h2>\n\t\t\t\t\t\t<br>\n\t\t\t\t\t\t<p>Answer: <strong>13</strong></p>\n\t\t\t\t\t</div>\n\t\t\t\t</div>\n\t\t\t</div>\n\t\t\t","response":null,"trial_type":"html-keyboard-response","trial_index":120,"time_elapsed":604464,"internal_node_id":"0.0-3.0-2.28","prolific_id":"63d17f45aa9ba4a22c0e5b83","session_id":"643c253460a60588cd512d8e","study_id":"64370a36d30bfa807bc7e43c"},{"rt":1934,"stimulus":"\n\t\t\t\t\t<div>\n\t\t\t\t\t<h2>Trial 29 is over</h2>\n\t\t\t\t\t<p>Press <span style=\"color: red\"><strong>any key</strong></span> to continue to the next trial</p>\n\t\t\t\t\t</div>\n\t\t\t\t","response":"b","trial_type":"html-keyboard-response","trial_index":121,"time_elapsed":606399,"internal_node_id":"0.0-3.0-3.28","prolific_id":"63d17f45aa9ba4a22c0e5b83","session_id":"643c253460a60588cd512d8e","study_id":"64370a36d30bfa807bc7e43c"},{"rt":5382,"response":{"prediction":"2007"},"trial_type":"survey-text","trial_index":122,"time_elapsed":611797,"internal_node_id":"0.0-3.0-0.29","prolific_id":"63d17f45aa9ba4a22c0e5b83","session_id":"643c253460a60588cd512d8e","study_id":"64370a36d30bfa807bc7e43c"},{"rt":3293,"response":{"prior knowledge":1,"curiosity":5},"accuracy":[],"trial_type":"survey","trial_index":123,"time_elapsed":615103,"internal_node_id":"0.0-3.0-1.29","prolific_id":"63d17f45aa9ba4a22c0e5b83","session_id":"643c253460a60588cd512d8e","study_id":"64370a36d30bfa807bc7e43c"},{"rt":null,"stimulus":"\n\t\t\t<div class=\"flip_card\">\n\t\t\t\t<div class=\"flip_card_inner\">\n\t\t\t\t\t<div class=\"flip_card_front\">\n\t\t\t\t\t\t<img src=img/1.png>\n\t\t\t\t\t</div>\n\t\t\t\t\t<div class=\"flip_card_back\">\n\t\t\t\t\t\t<h2>What year was the very first model of the iPhone released?</h2>\n\t\t\t\t\t\t<br>\n\t\t\t\t\t\t<p>Answer: <strong>2007</strong></p>\n\t\t\t\t\t</div>\n\t\t\t\t</div>\n\t\t\t</div>\n\t\t\t","response":null,"trial_type":"html-keyboard-response","trial_index":124,"time_elapsed":620105,"internal_node_id":"0.0-3.0-2.29","prolific_id":"63d17f45aa9ba4a22c0e5b83","session_id":"643c253460a60588cd512d8e","study_id":"64370a36d30bfa807bc7e43c"},{"rt":1411,"stimulus":"\n\t\t\t\t\t<div>\n\t\t\t\t\t<h2>Trial 30 is over</h2>\n\t\t\t\t\t<p>Press <span style=\"color: red\"><strong>any key</strong></span> to continue to the next trial</p>\n\t\t\t\t\t</div>\n\t\t\t\t","response":"v","trial_type":"html-keyboard-response","trial_index":125,"time_elapsed":621519,"internal_node_id":"0.0-3.0-3.29","prolific_id":"63d17f45aa9ba4a22c0e5b83","session_id":"643c253460a60588cd512d8e","study_id":"64370a36d30bfa807bc7e43c"},{"rt":null,"stimulus":"\n\t\t\t<h2>Good job! You've finished the 30 trials:p</h2>\n\t\t\t<p>In the next session, you will see two cards on the screen in each trial.</p>\n\t\t\t<p>On one card is a pattern that you have seen before in the experiment,\n\t\t\t\tand on the other card is one you have not seen.</p><br>\n\t\t\t<p>Your task is to choose the one you think you <em>have</em> seen before for every trial.</p>\n\t\t\t<p>Press '<span style=\"color: red;\"><strong>F</strong></span>' to choose the card on the left,\n\t\t\t\tand '<span style=\"color: red;\"><strong>J</strong></span>' to choose the card on the right.</p>\n\t\t\t<p>Have fun!</p>\n\t\t\t<br>\n\t\t\t<p>The trials will begin in 30 seconds</p>\n\t\t\t","response":null,"trial_type":"html-keyboard-response","trial_index":126,"time_elapsed":651522,"internal_node_id":"0.0-4.0","prolific_id":"63d17f45aa9ba4a22c0e5b83","session_id":"643c253460a60588cd512d8e","study_id":"64370a36d30bfa807bc7e43c"},{"rt":7858,"stimulus":"\n\t\t\t\t\t\t<div class=\"two_card_container\">\n\t\t\t\t\t\t<div class=\"card_container\">\n\t\t\t\t\t\t<img src=img/17.png>\n\t\t\t\t\t\t</div>\n\n\t\t\t\t\t\t<div class=\"card_container\">\n\t\t\t\t\t\t<img src=img/32.png>\n\t\t\t\t\t\t</div>","response":"f","task":"response","correct_response":"f","trial_type":"html-keyboard-response","trial_index":127,"time_elapsed":659383,"internal_node_id":"0.0-5.0-0.0","prolific_id":"63d17f45aa9ba4a22c0e5b83","session_id":"643c253460a60588cd512d8e","study_id":"64370a36d30bfa807bc7e43c","correct":true},{"rt":null,"stimulus":"\n\t\t\t\t\t<p>Correct!</p>\n\t\t\t\t\t","response":null,"trial_type":"html-keyboard-response","trial_index":128,"time_elapsed":660386,"internal_node_id":"0.0-5.0-1.0","prolific_id":"63d17f45aa9ba4a22c0e5b83","session_id":"643c253460a60588cd512d8e","study_id":"64370a36d30bfa807bc7e43c"},{"rt":1276,"stimulus":"\n\t\t\t\t\t\t<div class=\"two_card_container\">\n\t\t\t\t\t\t<div class=\"card_container\">\n\t\t\t\t\t\t<img src=img/36.png>\n\t\t\t\t\t\t</div>\n\n\t\t\t\t\t\t<div class=\"card_container\">\n\t\t\t\t\t\t<img src=img/6.png>\n\t\t\t\t\t\t</div>","response":"f","task":"response","correct_response":"j","trial_type":"html-keyboard-response","trial_index":129,"time_elapsed":661664,"internal_node_id":"0.0-5.0-0.1","prolific_id":"63d17f45aa9ba4a22c0e5b83","session_id":"643c253460a60588cd512d8e","study_id":"64370a36d30bfa807bc7e43c","correct":false},{"rt":null,"stimulus":"\n\t\t\t\t\t<p>Wrong answer</p>\n\t\t\t\t\t","response":null,"trial_type":"html-keyboard-response","trial_index":130,"time_elapsed":662667,"internal_node_id":"0.0-5.0-1.1","prolific_id":"63d17f45aa9ba4a22c0e5b83","session_id":"643c253460a60588cd512d8e","study_id":"64370a36d30bfa807bc7e43c"},{"rt":4536,"stimulus":"\n\t\t\t\t\t\t<div class=\"two_card_container\">\n\t\t\t\t\t\t<div class=\"card_container\">\n\t\t\t\t\t\t<img src=img/25.png>\n\t\t\t\t\t\t</div>\n\n\t\t\t\t\t\t<div class=\"card_container\">\n\t\t\t\t\t\t<img src=img/39.png>\n\t\t\t\t\t\t</div>","response":"j","task":"response","correct_response":"f","trial_type":"html-keyboard-response","trial_index":131,"time_elapsed":667204,"internal_node_id":"0.0-5.0-0.2","prolific_id":"63d17f45aa9ba4a22c0e5b83","session_id":"643c253460a60588cd512d8e","study_id":"64370a36d30bfa807bc7e43c","correct":false},{"rt":null,"stimulus":"\n\t\t\t\t\t<p>Wrong answer</p>\n\t\t\t\t\t","response":null,"trial_type":"html-keyboard-response","trial_index":132,"time_elapsed":668206,"internal_node_id":"0.0-5.0-1.2","prolific_id":"63d17f45aa9ba4a22c0e5b83","session_id":"643c253460a60588cd512d8e","study_id":"64370a36d30bfa807bc7e43c"},{"rt":2050,"stimulus":"\n\t\t\t\t\t\t<div class=\"two_card_container\">\n\t\t\t\t\t\t<div class=\"card_container\">\n\t\t\t\t\t\t<img src=img/7.png>\n\t\t\t\t\t\t</div>\n\n\t\t\t\t\t\t<div class=\"card_container\">\n\t\t\t\t\t\t<img src=img/31.png>\n\t\t\t\t\t\t</div>","response":"f","task":"response","correct_response":"f","trial_type":"html-keyboard-response","trial_index":133,"time_elapsed":670257,"internal_node_id":"0.0-5.0-0.3","prolific_id":"63d17f45aa9ba4a22c0e5b83","session_id":"643c253460a60588cd512d8e","study_id":"64370a36d30bfa807bc7e43c","correct":true},{"rt":null,"stimulus":"\n\t\t\t\t\t<p>Correct!</p>\n\t\t\t\t\t","response":null,"trial_type":"html-keyboard-response","trial_index":134,"time_elapsed":671260,"internal_node_id":"0.0-5.0-1.3","prolific_id":"63d17f45aa9ba4a22c0e5b83","session_id":"643c253460a60588cd512d8e","study_id":"64370a36d30bfa807bc7e43c"},{"rt":3215,"stimulus":"\n\t\t\t\t\t\t<div class=\"two_card_container\">\n\t\t\t\t\t\t<div class=\"card_container\">\n\t\t\t\t\t\t<img src=img/23.png>\n\t\t\t\t\t\t</div>\n\n\t\t\t\t\t\t<div class=\"card_container\">\n\t\t\t\t\t\t<img src=img/40.png>\n\t\t\t\t\t\t</div>","response":"f","task":"response","correct_response":"f","trial_type":"html-keyboard-response","trial_index":135,"time_elapsed":674476,"internal_node_id":"0.0-5.0-0.4","prolific_id":"63d17f45aa9ba4a22c0e5b83","session_id":"643c253460a60588cd512d8e","study_id":"64370a36d30bfa807bc7e43c","correct":true},{"rt":null,"stimulus":"\n\t\t\t\t\t<p>Correct!</p>\n\t\t\t\t\t","response":null,"trial_type":"html-keyboard-response","trial_index":136,"time_elapsed":675479,"internal_node_id":"0.0-5.0-1.4","prolific_id":"63d17f45aa9ba4a22c0e5b83","session_id":"643c253460a60588cd512d8e","study_id":"64370a36d30bfa807bc7e43c"},{"rt":2213,"stimulus":"\n\t\t\t\t\t\t<div class=\"two_card_container\">\n\t\t\t\t\t\t<div class=\"card_container\">\n\t\t\t\t\t\t<img src=img/34.png>\n\t\t\t\t\t\t</div>\n\n\t\t\t\t\t\t<div class=\"card_container\">\n\t\t\t\t\t\t<img src=img/11.png>\n\t\t\t\t\t\t</div>","response":"f","task":"response","correct_response":"j","trial_type":"html-keyboard-response","trial_index":137,"time_elapsed":677694,"internal_node_id":"0.0-5.0-0.5","prolific_id":"63d17f45aa9ba4a22c0e5b83","session_id":"643c253460a60588cd512d8e","study_id":"64370a36d30bfa807bc7e43c","correct":false},{"rt":null,"stimulus":"\n\t\t\t\t\t<p>Wrong answer</p>\n\t\t\t\t\t","response":null,"trial_type":"html-keyboard-response","trial_index":138,"time_elapsed":678696,"internal_node_id":"0.0-5.0-1.5","prolific_id":"63d17f45aa9ba4a22c0e5b83","session_id":"643c253460a60588cd512d8e","study_id":"64370a36d30bfa807bc7e43c"},{"rt":2330,"stimulus":"\n\t\t\t\t\t\t<div class=\"two_card_container\">\n\t\t\t\t\t\t<div class=\"card_container\">\n\t\t\t\t\t\t<img src=img/33.png>\n\t\t\t\t\t\t</div>\n\n\t\t\t\t\t\t<div class=\"card_container\">\n\t\t\t\t\t\t<img src=img/4.png>\n\t\t\t\t\t\t</div>","response":"j","task":"response","correct_response":"j","trial_type":"html-keyboard-response","trial_index":139,"time_elapsed":681033,"internal_node_id":"0.0-5.0-0.6","prolific_id":"63d17f45aa9ba4a22c0e5b83","session_id":"643c253460a60588cd512d8e","study_id":"64370a36d30bfa807bc7e43c","correct":true},{"rt":null,"stimulus":"\n\t\t\t\t\t<p>Correct!</p>\n\t\t\t\t\t","response":null,"trial_type":"html-keyboard-response","trial_index":140,"time_elapsed":682036,"internal_node_id":"0.0-5.0-1.6","prolific_id":"63d17f45aa9ba4a22c0e5b83","session_id":"643c253460a60588cd512d8e","study_id":"64370a36d30bfa807bc7e43c"},{"rt":2315,"stimulus":"\n\t\t\t\t\t\t<div class=\"two_card_container\">\n\t\t\t\t\t\t<div class=\"card_container\">\n\t\t\t\t\t\t<img src=img/38.png>\n\t\t\t\t\t\t</div>\n\n\t\t\t\t\t\t<div class=\"card_container\">\n\t\t\t\t\t\t<img src=img/8.png>\n\t\t\t\t\t\t</div>","response":"j","task":"response","correct_response":"j","trial_type":"html-keyboard-response","trial_index":141,"time_elapsed":684353,"internal_node_id":"0.0-5.0-0.7","prolific_id":"63d17f45aa9ba4a22c0e5b83","session_id":"643c253460a60588cd512d8e","study_id":"64370a36d30bfa807bc7e43c","correct":true},{"rt":null,"stimulus":"\n\t\t\t\t\t<p>Correct!</p>\n\t\t\t\t\t","response":null,"trial_type":"html-keyboard-response","trial_index":142,"time_elapsed":685356,"internal_node_id":"0.0-5.0-1.7","prolific_id":"63d17f45aa9ba4a22c0e5b83","session_id":"643c253460a60588cd512d8e","study_id":"64370a36d30bfa807bc7e43c"},{"rt":2367,"stimulus":"\n\t\t\t\t\t\t<div class=\"two_card_container\">\n\t\t\t\t\t\t<div class=\"card_container\">\n\t\t\t\t\t\t<img src=img/35.png>\n\t\t\t\t\t\t</div>\n\n\t\t\t\t\t\t<div class=\"card_container\">\n\t\t\t\t\t\t<img src=img/29.png>\n\t\t\t\t\t\t</div>","response":"j","task":"response","correct_response":"j","trial_type":"html-keyboard-response","trial_index":143,"time_elapsed":687723,"internal_node_id":"0.0-5.0-0.8","prolific_id":"63d17f45aa9ba4a22c0e5b83","session_id":"643c253460a60588cd512d8e","study_id":"64370a36d30bfa807bc7e43c","correct":true},{"rt":null,"stimulus":"\n\t\t\t\t\t<p>Correct!</p>\n\t\t\t\t\t","response":null,"trial_type":"html-keyboard-response","trial_index":144,"time_elapsed":688726,"internal_node_id":"0.0-5.0-1.8","prolific_id":"63d17f45aa9ba4a22c0e5b83","session_id":"643c253460a60588cd512d8e","study_id":"64370a36d30bfa807bc7e43c"},{"rt":2152,"stimulus":"\n\t\t\t\t\t\t<div class=\"two_card_container\">\n\t\t\t\t\t\t<div class=\"card_container\">\n\t\t\t\t\t\t<img src=img/22.png>\n\t\t\t\t\t\t</div>\n\n\t\t\t\t\t\t<div class=\"card_container\">\n\t\t\t\t\t\t<img src=img/37.png>\n\t\t\t\t\t\t</div>","response":"f","task":"response","correct_response":"f","trial_type":"html-keyboard-response","trial_index":145,"time_elapsed":690879,"internal_node_id":"0.0-5.0-0.9","prolific_id":"63d17f45aa9ba4a22c0e5b83","session_id":"643c253460a60588cd512d8e","study_id":"64370a36d30bfa807bc7e43c","correct":true},{"rt":null,"stimulus":"\n\t\t\t\t\t<p>Correct!</p>\n\t\t\t\t\t","response":null,"trial_type":"html-keyboard-response","trial_index":146,"time_elapsed":691882,"internal_node_id":"0.0-5.0-1.9","prolific_id":"63d17f45aa9ba4a22c0e5b83","session_id":"643c253460a60588cd512d8e","study_id":"64370a36d30bfa807bc7e43c"},{"rt":null,"stimulus":"\n\t\t\t<h2>Good job :p</h2>\n\t\t\t<p>In the next session, you will see a trivia question on the screen in each trial.</p>\n\t\t\t<p>Each of these trivia questions is chosen from the questions you have already seen in the first session of the experiment.</p><br>\n\t\t\t<p>Your task is to answer the trivia question based on what you remember as accurately as you can.</p>\n\t\t\t<p>Have fun!</p>\n\t\t\t<br>\n\t\t\t<p>The trials will begin in 30 seconds</p>\n\t\t\t","response":null,"trial_type":"html-keyboard-response","trial_index":147,"time_elapsed":721885,"internal_node_id":"0.0-6.0","prolific_id":"63d17f45aa9ba4a22c0e5b83","session_id":"643c253460a60588cd512d8e","study_id":"64370a36d30bfa807bc7e43c"},{"rt":5280,"response":{"answer":"65"},"task":"response","correct_response":"65","trial_type":"survey-text","trial_index":148,"time_elapsed":727176,"internal_node_id":"0.0-7.0-0.0","prolific_id":"63d17f45aa9ba4a22c0e5b83","session_id":"643c253460a60588cd512d8e","study_id":"64370a36d30bfa807bc7e43c","difference":0},{"rt":null,"stimulus":"<h2>The correct answer is 65.</h2><p>Your answer was different from the answer by 0.</p><p>You got the right answer. Amazing work!</p>","response":null,"trial_type":"html-keyboard-response","trial_index":149,"time_elapsed":729679,"internal_node_id":"0.0-7.0-1.0","prolific_id":"63d17f45aa9ba4a22c0e5b83","session_id":"643c253460a60588cd512d8e","study_id":"64370a36d30bfa807bc7e43c"},{"rt":10104,"response":{"answer":"14"},"task":"response","correct_response":"28","trial_type":"survey-text","trial_index":150,"time_elapsed":739792,"internal_node_id":"0.0-7.0-0.1","prolific_id":"63d17f45aa9ba4a22c0e5b83","session_id":"643c253460a60588cd512d8e","study_id":"64370a36d30bfa807bc7e43c","difference":50},{"rt":null,"stimulus":"<h2>The correct answer is 28.</h2><p>Your answer was different from the answer by 14.</p><p>Not the worst. Can you do better on the next?</p>","response":null,"trial_type":"html-keyboard-response","trial_index":151,"time_elapsed":742295,"internal_node_id":"0.0-7.0-1.1","prolific_id":"63d17f45aa9ba4a22c0e5b83","session_id":"643c253460a60588cd512d8e","study_id":"64370a36d30bfa807bc7e43c"},{"rt":9456,"response":{"answer":"68"},"task":"response","correct_response":"21","trial_type":"survey-text","trial_index":152,"time_elapsed":751759,"internal_node_id":"0.0-7.0-0.2","prolific_id":"63d17f45aa9ba4a22c0e5b83","session_id":"643c253460a60588cd512d8e","study_id":"64370a36d30bfa807bc7e43c","difference":100},{"rt":null,"stimulus":"<h2>The correct answer is 21.</h2><p>Your answer was different from the answer by 47.</p><p>Not even close... do better next time!</p>","response":null,"trial_type":"html-keyboard-response","trial_index":153,"time_elapsed":754261,"internal_node_id":"0.0-7.0-1.2","prolific_id":"63d17f45aa9ba4a22c0e5b83","session_id":"643c253460a60588cd512d8e","study_id":"64370a36d30bfa807bc7e43c"},{"rt":5110,"response":{"answer":"12"},"task":"response","correct_response":"12","trial_type":"survey-text","trial_index":154,"time_elapsed":759378,"internal_node_id":"0.0-7.0-0.3","prolific_id":"63d17f45aa9ba4a22c0e5b83","session_id":"643c253460a60588cd512d8e","study_id":"64370a36d30bfa807bc7e43c","difference":0},{"rt":null,"stimulus":"<h2>The correct answer is 12.</h2><p>Your answer was different from the answer by 0.</p><p>You got the right answer. Amazing work!</p>","response":null,"trial_type":"html-keyboard-response","trial_index":155,"time_elapsed":761880,"internal_node_id":"0.0-7.0-1.3","prolific_id":"63d17f45aa9ba4a22c0e5b83","session_id":"643c253460a60588cd512d8e","study_id":"64370a36d30bfa807bc7e43c"},{"rt":3157,"response":{"answer":"300"},"task":"response","correct_response":"300","trial_type":"survey-text","trial_index":156,"time_elapsed":765045,"internal_node_id":"0.0-7.0-0.4","prolific_id":"63d17f45aa9ba4a22c0e5b83","session_id":"643c253460a60588cd512d8e","study_id":"64370a36d30bfa807bc7e43c","difference":0},{"rt":null,"stimulus":"<h2>The correct answer is 300.</h2><p>Your answer was different from the answer by 0.</p><p>You got the right answer. Amazing work!</p>","response":null,"trial_type":"html-keyboard-response","trial_index":157,"time_elapsed":767547,"internal_node_id":"0.0-7.0-1.4","prolific_id":"63d17f45aa9ba4a22c0e5b83","session_id":"643c253460a60588cd512d8e","study_id":"64370a36d30bfa807bc7e43c"},{"rt":4942,"response":{"answer":"102"},"task":"response","correct_response":"108","trial_type":"survey-text","trial_index":158,"time_elapsed":772496,"internal_node_id":"0.0-7.0-0.5","prolific_id":"63d17f45aa9ba4a22c0e5b83","session_id":"643c253460a60588cd512d8e","study_id":"64370a36d30bfa807bc7e43c","difference":6},{"rt":null,"stimulus":"<h2>The correct answer is 108.</h2><p>Your answer was different from the answer by 6.</p><p>Excellent. Kudos to you!</p>","response":null,"trial_type":"html-keyboard-response","trial_index":159,"time_elapsed":774998,"internal_node_id":"0.0-7.0-1.5","prolific_id":"63d17f45aa9ba4a22c0e5b83","session_id":"643c253460a60588cd512d8e","study_id":"64370a36d30bfa807bc7e43c"},{"rt":2607,"response":{"answer":"5"},"task":"response","correct_response":"5","trial_type":"survey-text","trial_index":160,"time_elapsed":777613,"internal_node_id":"0.0-7.0-0.6","prolific_id":"63d17f45aa9ba4a22c0e5b83","session_id":"643c253460a60588cd512d8e","study_id":"64370a36d30bfa807bc7e43c","difference":0},{"rt":null,"stimulus":"<h2>The correct answer is 5.</h2><p>Your answer was different from the answer by 0.</p><p>You got the right answer. Amazing work!</p>","response":null,"trial_type":"html-keyboard-response","trial_index":161,"time_elapsed":780115,"internal_node_id":"0.0-7.0-1.6","prolific_id":"63d17f45aa9ba4a22c0e5b83","session_id":"643c253460a60588cd512d8e","study_id":"64370a36d30bfa807bc7e43c"},{"rt":3725,"response":{"answer":"398"},"task":"response","correct_response":"88","trial_type":"survey-text","trial_index":162,"time_elapsed":783847,"internal_node_id":"0.0-7.0-0.7","prolific_id":"63d17f45aa9ba4a22c0e5b83","session_id":"643c253460a60588cd512d8e","study_id":"64370a36d30bfa807bc7e43c","difference":100},{"rt":null,"stimulus":"<h2>The correct answer is 88.</h2><p>Your answer was different from the answer by 310.</p><p>Not even close... do better next time!</p>","response":null,"trial_type":"html-keyboard-response","trial_index":163,"time_elapsed":786349,"internal_node_id":"0.0-7.0-1.7","prolific_id":"63d17f45aa9ba4a22c0e5b83","session_id":"643c253460a60588cd512d8e","study_id":"64370a36d30bfa807bc7e43c"},{"rt":4393,"response":{"answer":"168"},"task":"response","correct_response":"163","trial_type":"survey-text","trial_index":164,"time_elapsed":790748,"internal_node_id":"0.0-7.0-0.8","prolific_id":"63d17f45aa9ba4a22c0e5b83","session_id":"643c253460a60588cd512d8e","study_id":"64370a36d30bfa807bc7e43c","difference":3},{"rt":null,"stimulus":"<h2>The correct answer is 163.</h2><p>Your answer was different from the answer by 5.</p><p>Excellent. Kudos to you!</p>","response":null,"trial_type":"html-keyboard-response","trial_index":165,"time_elapsed":793251,"internal_node_id":"0.0-7.0-1.8","prolific_id":"63d17f45aa9ba4a22c0e5b83","session_id":"643c253460a60588cd512d8e","study_id":"64370a36d30bfa807bc7e43c"},{"rt":5641,"response":{"answer":"87"},"task":"response","correct_response":"73","trial_type":"survey-text","trial_index":166,"time_elapsed":798899,"internal_node_id":"0.0-7.0-0.9","prolific_id":"63d17f45aa9ba4a22c0e5b83","session_id":"643c253460a60588cd512d8e","study_id":"64370a36d30bfa807bc7e43c","difference":19},{"rt":null,"stimulus":"<h2>The correct answer is 73.</h2><p>Your answer was different from the answer by 14.</p><p>A pretty good job indeed.</p>","response":null,"trial_type":"html-keyboard-response","trial_index":167,"time_elapsed":801401,"internal_node_id":"0.0-7.0-1.9","prolific_id":"63d17f45aa9ba4a22c0e5b83","session_id":"643c253460a60588cd512d8e","study_id":"64370a36d30bfa807bc7e43c"}]