[{"success":true,"timeout":false,"failed_images":[],"failed_audio":[],"failed_video":[],"trial_type":"preload","trial_index":0,"time_elapsed":7746,"internal_node_id":"0.0-0.0","prolific_id":"63e57dfe078c526e4fb9d33f","session_id":"643c25060aea3a4939e3e03e","study_id":"64370a36d30bfa807bc7e43c"},{"rt":8475,"stimulus":"\n\t\t\t\t\t<p>Welcome and thank you for participating in this study!</p>\n\t\t\t\t\t<p>In each trial, you will be given a trivia question and then be asked to:</p><br>\n\t\t\t\t\t<div class=\"list\">\n\t\t\t\t\t<p>1) Predict the answer</p>\n\t\t\t\t\t<p>2) Rate how much you already know about the topic</p>\n\t\t\t\t\t<p>3) Rate how much you want to know the answer</p>\n\t\t\t\t\t</div>\n\t\t\t\t\t<br>\n\t\t\t\t\t<p>Then, you will see a card that flips over to reveal the answer.</p>\n\t\t\t\t\t<br>\n\t\t\t\t\t<p>Let's try a practice round. Press <span style=\"color: red\"><strong>any key</strong></span> to move to the next slide</p>\n\t\t\t\t\t","response":" ","trial_type":"html-keyboard-response","trial_index":1,"time_elapsed":16222,"internal_node_id":"0.0-1.0","prolific_id":"63e57dfe078c526e4fb9d33f","session_id":"643c25060aea3a4939e3e03e","study_id":"64370a36d30bfa807bc7e43c"},{"rt":9044,"response":{"practice prediction":"6"},"task":"practice","trial_type":"survey-text","trial_index":2,"time_elapsed":25288,"internal_node_id":"0.0-2.0-0.0","prolific_id":"63e57dfe078c526e4fb9d33f","session_id":"643c25060aea3a4939e3e03e","study_id":"64370a36d30bfa807bc7e43c"},{"rt":6707,"response":{"practice":4},"accuracy":[],"trial_type":"survey","trial_index":3,"time_elapsed":32041,"internal_node_id":"0.0-2.0-1.0","prolific_id":"63e57dfe078c526e4fb9d33f","session_id":"643c25060aea3a4939e3e03e","study_id":"64370a36d30bfa807bc7e43c"},{"rt":null,"stimulus":"\n\t\t\t\t<div class=\"flip_card\">\n\t\t\t\t\t<div class=\"flip_card_inner\">\n\t\t\t\t\t\t<div class=\"flip_card_front\">\n\t\t\t\t\t\t\t<img src=img/practice.png>\n\t\t\t\t\t\t</div>\n\t\t\t\t\t\t<div class=\"flip_card_back\">\n\t\t\t\t\t\t\t<h2>\"How many legs does a lobster have?\"</h2>\n\t\t\t\t\t\t    <br>\n\t\t\t\t\t\t    <p>Answer: <strong>\"10\"</strong></p>\n\t\t\t\t\t    </div>\n\t\t\t\t    </div>\n\t\t\t    </div>\n\t\t\t\t","response":null,"trial_type":"html-keyboard-response","trial_index":4,"time_elapsed":37054,"internal_node_id":"0.0-2.0-2.0","prolific_id":"63e57dfe078c526e4fb9d33f","session_id":"643c25060aea3a4939e3e03e","study_id":"64370a36d30bfa807bc7e43c"},{"rt":1115,"stimulus":"\n\t\t\t\t\t<div>\n\t\t\t\t\t<h2>The practice round is over</h2>\n\t\t\t\t\t<p>Press <span style=\"color: red\"><strong>any key</strong></span> to continue to the actual trials</p>\n\t\t\t\t\t<p>Good Luck!</p>\n\t\t\t\t\t</div>\n\t\t\t\t\t","response":" ","trial_type":"html-keyboard-response","trial_index":5,"time_elapsed":38170,"internal_node_id":"0.0-2.0-3.0","prolific_id":"63e57dfe078c526e4fb9d33f","session_id":"643c25060aea3a4939e3e03e","study_id":"64370a36d30bfa807bc7e43c"},{"rt":3891,"response":{"prediction":"13"},"trial_type":"survey-text","trial_index":6,"time_elapsed":42066,"internal_node_id":"0.0-3.0-0.0","prolific_id":"63e57dfe078c526e4fb9d33f","session_id":"643c25060aea3a4939e3e03e","study_id":"64370a36d30bfa807bc7e43c"},{"rt":7695,"response":{"prior knowledge":0,"curiosity":3},"accuracy":[],"trial_type":"survey","trial_index":7,"time_elapsed":49776,"internal_node_id":"0.0-3.0-1.0","prolific_id":"63e57dfe078c526e4fb9d33f","session_id":"643c25060aea3a4939e3e03e","study_id":"64370a36d30bfa807bc7e43c"},{"rt":null,"stimulus":"\n\t\t\t<div class=\"flip_card\">\n\t\t\t\t<div class=\"flip_card_inner\">\n\t\t\t\t\t<div class=\"flip_card_front\">\n\t\t\t\t\t\t<img src=img/5.png>\n\t\t\t\t\t</div>\n\t\t\t\t\t<div class=\"flip_card_back\">\n\t\t\t\t\t\t<h2>A bar mitzvah is traditionally celebrated when Jewish males turn what age?</h2>\n\t\t\t\t\t\t<br>\n\t\t\t\t\t\t<p>Answer: <strong>13</strong></p>\n\t\t\t\t\t</div>\n\t\t\t\t</div>\n\t\t\t</div>\n\t\t\t","response":null,"trial_type":"html-keyboard-response","trial_index":8,"time_elapsed":54792,"internal_node_id":"0.0-3.0-2.0","prolific_id":"63e57dfe078c526e4fb9d33f","session_id":"643c25060aea3a4939e3e03e","study_id":"64370a36d30bfa807bc7e43c"},{"rt":1015,"stimulus":"\n\t\t\t\t\t<div>\n\t\t\t\t\t<h2>Trial 1 is over</h2>\n\t\t\t\t\t<p>Press <span style=\"color: red\"><strong>any key</strong></span> to continue to the next trial</p>\n\t\t\t\t\t</div>\n\t\t\t\t","response":" ","trial_type":"html-keyboard-response","trial_index":9,"time_elapsed":55808,"internal_node_id":"0.0-3.0-3.0","prolific_id":"63e57dfe078c526e4fb9d33f","session_id":"643c25060aea3a4939e3e03e","study_id":"64370a36d30bfa807bc7e43c"},{"rt":5886,"response":{"prediction":"1880"},"trial_type":"survey-text","trial_index":10,"time_elapsed":61698,"internal_node_id":"0.0-3.0-0.1","prolific_id":"63e57dfe078c526e4fb9d33f","session_id":"643c25060aea3a4939e3e03e","study_id":"64370a36d30bfa807bc7e43c"},{"rt":3478,"response":{"prior knowledge":0,"curiosity":3},"accuracy":[],"trial_type":"survey","trial_index":11,"time_elapsed":65195,"internal_node_id":"0.0-3.0-1.1","prolific_id":"63e57dfe078c526e4fb9d33f","session_id":"643c25060aea3a4939e3e03e","study_id":"64370a36d30bfa807bc7e43c"},{"rt":null,"stimulus":"\n\t\t\t<div class=\"flip_card\">\n\t\t\t\t<div class=\"flip_card_inner\">\n\t\t\t\t\t<div class=\"flip_card_front\">\n\t\t\t\t\t\t<img src=img/8.png>\n\t\t\t\t\t</div>\n\t\t\t\t\t<div class=\"flip_card_back\">\n\t\t\t\t\t\t<h2>In what year was the first Nobel Prize awarded?</h2>\n\t\t\t\t\t\t<br>\n\t\t\t\t\t\t<p>Answer: <strong>1901</strong></p>\n\t\t\t\t\t</div>\n\t\t\t\t</div>\n\t\t\t</div>\n\t\t\t","response":null,"trial_type":"html-keyboard-response","trial_index":12,"time_elapsed":70199,"internal_node_id":"0.0-3.0-2.1","prolific_id":"63e57dfe078c526e4fb9d33f","session_id":"643c25060aea3a4939e3e03e","study_id":"64370a36d30bfa807bc7e43c"},{"rt":1029,"stimulus":"\n\t\t\t\t\t<div>\n\t\t\t\t\t<h2>Trial 2 is over</h2>\n\t\t\t\t\t<p>Press <span style=\"color: red\"><strong>any key</strong></span> to continue to the next trial</p>\n\t\t\t\t\t</div>\n\t\t\t\t","response":" ","trial_type":"html-keyboard-response","trial_index":13,"time_elapsed":71230,"internal_node_id":"0.0-3.0-3.1","prolific_id":"63e57dfe078c526e4fb9d33f","session_id":"643c25060aea3a4939e3e03e","study_id":"64370a36d30bfa807bc7e43c"},{"rt":8114,"response":{"prediction":"350"},"trial_type":"survey-text","trial_index":14,"time_elapsed":79349,"internal_node_id":"0.0-3.0-0.2","prolific_id":"63e57dfe078c526e4fb9d33f","session_id":"643c25060aea3a4939e3e03e","study_id":"64370a36d30bfa807bc7e43c"},{"rt":4288,"response":{"prior knowledge":1,"curiosity":4},"accuracy":[],"trial_type":"survey","trial_index":15,"time_elapsed":83668,"internal_node_id":"0.0-3.0-1.2","prolific_id":"63e57dfe078c526e4fb9d33f","session_id":"643c25060aea3a4939e3e03e","study_id":"64370a36d30bfa807bc7e43c"},{"rt":null,"stimulus":"\n\t\t\t<div class=\"flip_card\">\n\t\t\t\t<div class=\"flip_card_inner\">\n\t\t\t\t\t<div class=\"flip_card_front\">\n\t\t\t\t\t\t<img src=img/22.png>\n\t\t\t\t\t</div>\n\t\t\t\t\t<div class=\"flip_card_back\">\n\t\t\t\t\t\t<h2>How long is the Great Wall of China (in miles)?</h2>\n\t\t\t\t\t\t<br>\n\t\t\t\t\t\t<p>Answer: <strong>13171</strong></p>\n\t\t\t\t\t</div>\n\t\t\t\t</div>\n\t\t\t</div>\n\t\t\t","response":null,"trial_type":"html-keyboard-response","trial_index":16,"time_elapsed":88675,"internal_node_id":"0.0-3.0-2.2","prolific_id":"63e57dfe078c526e4fb9d33f","session_id":"643c25060aea3a4939e3e03e","study_id":"64370a36d30bfa807bc7e43c"},{"rt":1368,"stimulus":"\n\t\t\t\t\t<div>\n\t\t\t\t\t<h2>Trial 3 is over</h2>\n\t\t\t\t\t<p>Press <span style=\"color: red\"><strong>any key</strong></span> to continue to the next trial</p>\n\t\t\t\t\t</div>\n\t\t\t\t","response":" ","trial_type":"html-keyboard-response","trial_index":17,"time_elapsed":90044,"internal_node_id":"0.0-3.0-3.2","prolific_id":"63e57dfe078c526e4fb9d33f","session_id":"643c25060aea3a4939e3e03e","study_id":"64370a36d30bfa807bc7e43c"},{"rt":10122,"response":{"prediction":"120"},"trial_type":"survey-text","trial_index":18,"time_elapsed":100169,"internal_node_id":"0.0-3.0-0.3","prolific_id":"63e57dfe078c526e4fb9d33f","session_id":"643c25060aea3a4939e3e03e","study_id":"64370a36d30bfa807bc7e43c"},{"rt":5969,"response":{"prior knowledge":2,"curiosity":5},"accuracy":[],"trial_type":"survey","trial_index":19,"time_elapsed":106161,"internal_node_id":"0.0-3.0-1.3","prolific_id":"63e57dfe078c526e4fb9d33f","session_id":"643c25060aea3a4939e3e03e","study_id":"64370a36d30bfa807bc7e43c"},{"rt":null,"stimulus":"\n\t\t\t<div class=\"flip_card\">\n\t\t\t\t<div class=\"flip_card_inner\">\n\t\t\t\t\t<div class=\"flip_card_front\">\n\t\t\t\t\t\t<img src=img/1.png>\n\t\t\t\t\t</div>\n\t\t\t\t\t<div class=\"flip_card_back\">\n\t\t\t\t\t\t<h2>How many double stitches does a baseball have?</h2>\n\t\t\t\t\t\t<br>\n\t\t\t\t\t\t<p>Answer: <strong>108</strong></p>\n\t\t\t\t\t</div>\n\t\t\t\t</div>\n\t\t\t</div>\n\t\t\t","response":null,"trial_type":"html-keyboard-response","trial_index":20,"time_elapsed":111177,"internal_node_id":"0.0-3.0-2.3","prolific_id":"63e57dfe078c526e4fb9d33f","session_id":"643c25060aea3a4939e3e03e","study_id":"64370a36d30bfa807bc7e43c"},{"rt":1232,"stimulus":"\n\t\t\t\t\t<div>\n\t\t\t\t\t<h2>Trial 4 is over</h2>\n\t\t\t\t\t<p>Press <span style=\"color: red\"><strong>any key</strong></span> to continue to the next trial</p>\n\t\t\t\t\t</div>\n\t\t\t\t","response":" ","trial_type":"html-keyboard-response","trial_index":21,"time_elapsed":112409,"internal_node_id":"0.0-3.0-3.3","prolific_id":"63e57dfe078c526e4fb9d33f","session_id":"643c25060aea3a4939e3e03e","study_id":"64370a36d30bfa807bc7e43c"},{"rt":33003,"response":{"prediction":"4"},"trial_type":"survey-text","trial_index":22,"time_elapsed":145416,"internal_node_id":"0.0-3.0-0.4","prolific_id":"63e57dfe078c526e4fb9d33f","session_id":"643c25060aea3a4939e3e03e","study_id":"64370a36d30bfa807bc7e43c"},{"rt":6028,"response":{"prior knowledge":0,"curiosity":3},"accuracy":[],"trial_type":"survey","trial_index":23,"time_elapsed":151468,"internal_node_id":"0.0-3.0-1.4","prolific_id":"63e57dfe078c526e4fb9d33f","session_id":"643c25060aea3a4939e3e03e","study_id":"64370a36d30bfa807bc7e43c"},{"rt":null,"stimulus":"\n\t\t\t<div class=\"flip_card\">\n\t\t\t\t<div class=\"flip_card_inner\">\n\t\t\t\t\t<div class=\"flip_card_front\">\n\t\t\t\t\t\t<img src=img/21.png>\n\t\t\t\t\t</div>\n\t\t\t\t\t<div class=\"flip_card_back\">\n\t\t\t\t\t\t<h2>How many countries have territory in the Arctic Circle?</h2>\n\t\t\t\t\t\t<br>\n\t\t\t\t\t\t<p>Answer: <strong>8</strong></p>\n\t\t\t\t\t</div>\n\t\t\t\t</div>\n\t\t\t</div>\n\t\t\t","response":null,"trial_type":"html-keyboard-response","trial_index":24,"time_elapsed":156484,"internal_node_id":"0.0-3.0-2.4","prolific_id":"63e57dfe078c526e4fb9d33f","session_id":"643c25060aea3a4939e3e03e","study_id":"64370a36d30bfa807bc7e43c"},{"rt":1017,"stimulus":"\n\t\t\t\t\t<div>\n\t\t\t\t\t<h2>Trial 5 is over</h2>\n\t\t\t\t\t<p>Press <span style=\"color: red\"><strong>any key</strong></span> to continue to the next trial</p>\n\t\t\t\t\t</div>\n\t\t\t\t","response":" ","trial_type":"html-keyboard-response","trial_index":25,"time_elapsed":157502,"internal_node_id":"0.0-3.0-3.4","prolific_id":"63e57dfe078c526e4fb9d33f","session_id":"643c25060aea3a4939e3e03e","study_id":"64370a36d30bfa807bc7e43c"},{"rt":7757,"response":{"prediction":"27"},"trial_type":"survey-text","trial_index":26,"time_elapsed":165264,"internal_node_id":"0.0-3.0-0.5","prolific_id":"63e57dfe078c526e4fb9d33f","session_id":"643c25060aea3a4939e3e03e","study_id":"64370a36d30bfa807bc7e43c"},{"rt":5803,"response":{"prior knowledge":1,"curiosity":5},"accuracy":[],"trial_type":"survey","trial_index":27,"time_elapsed":171094,"internal_node_id":"0.0-3.0-1.5","prolific_id":"63e57dfe078c526e4fb9d33f","session_id":"643c25060aea3a4939e3e03e","study_id":"64370a36d30bfa807bc7e43c"},{"rt":null,"stimulus":"\n\t\t\t<div class=\"flip_card\">\n\t\t\t\t<div class=\"flip_card_inner\">\n\t\t\t\t\t<div class=\"flip_card_front\">\n\t\t\t\t\t\t<img src=img/3.png>\n\t\t\t\t\t</div>\n\t\t\t\t\t<div class=\"flip_card_back\">\n\t\t\t\t\t\t<h2>How old was King Tut when he died?</h2>\n\t\t\t\t\t\t<br>\n\t\t\t\t\t\t<p>Answer: <strong>19</strong></p>\n\t\t\t\t\t</div>\n\t\t\t\t</div>\n\t\t\t</div>\n\t\t\t","response":null,"trial_type":"html-keyboard-response","trial_index":28,"time_elapsed":176121,"internal_node_id":"0.0-3.0-2.5","prolific_id":"63e57dfe078c526e4fb9d33f","session_id":"643c25060aea3a4939e3e03e","study_id":"64370a36d30bfa807bc7e43c"},{"rt":1439,"stimulus":"\n\t\t\t\t\t<div>\n\t\t\t\t\t<h2>Trial 6 is over</h2>\n\t\t\t\t\t<p>Press <span style=\"color: red\"><strong>any key</strong></span> to continue to the next trial</p>\n\t\t\t\t\t</div>\n\t\t\t\t","response":" ","trial_type":"html-keyboard-response","trial_index":29,"time_elapsed":177561,"internal_node_id":"0.0-3.0-3.5","prolific_id":"63e57dfe078c526e4fb9d33f","session_id":"643c25060aea3a4939e3e03e","study_id":"64370a36d30bfa807bc7e43c"},{"rt":5050,"response":{"prediction":"27"},"trial_type":"survey-text","trial_index":30,"time_elapsed":182614,"internal_node_id":"0.0-3.0-0.6","prolific_id":"63e57dfe078c526e4fb9d33f","session_id":"643c25060aea3a4939e3e03e","study_id":"64370a36d30bfa807bc7e43c"},{"rt":8069,"response":{"prior knowledge":0,"curiosity":4},"accuracy":[],"trial_type":"survey","trial_index":31,"time_elapsed":190703,"internal_node_id":"0.0-3.0-1.6","prolific_id":"63e57dfe078c526e4fb9d33f","session_id":"643c25060aea3a4939e3e03e","study_id":"64370a36d30bfa807bc7e43c"},{"rt":null,"stimulus":"\n\t\t\t<div class=\"flip_card\">\n\t\t\t\t<div class=\"flip_card_inner\">\n\t\t\t\t\t<div class=\"flip_card_front\">\n\t\t\t\t\t\t<img src=img/24.png>\n\t\t\t\t\t</div>\n\t\t\t\t\t<div class=\"flip_card_back\">\n\t\t\t\t\t\t<h2>How many main islands make up Japan?</h2>\n\t\t\t\t\t\t<br>\n\t\t\t\t\t\t<p>Answer: <strong>4</strong></p>\n\t\t\t\t\t</div>\n\t\t\t\t</div>\n\t\t\t</div>\n\t\t\t","response":null,"trial_type":"html-keyboard-response","trial_index":32,"time_elapsed":195722,"internal_node_id":"0.0-3.0-2.6","prolific_id":"63e57dfe078c526e4fb9d33f","session_id":"643c25060aea3a4939e3e03e","study_id":"64370a36d30bfa807bc7e43c"},{"rt":1100,"stimulus":"\n\t\t\t\t\t<div>\n\t\t\t\t\t<h2>Trial 7 is over</h2>\n\t\t\t\t\t<p>Press <span style=\"color: red\"><strong>any key</strong></span> to continue to the next trial</p>\n\t\t\t\t\t</div>\n\t\t\t\t","response":" ","trial_type":"html-keyboard-response","trial_index":33,"time_elapsed":196823,"internal_node_id":"0.0-3.0-3.6","prolific_id":"63e57dfe078c526e4fb9d33f","session_id":"643c25060aea3a4939e3e03e","study_id":"64370a36d30bfa807bc7e43c"},{"rt":14153,"response":{"prediction":"2008"},"trial_type":"survey-text","trial_index":34,"time_elapsed":210979,"internal_node_id":"0.0-3.0-0.7","prolific_id":"63e57dfe078c526e4fb9d33f","session_id":"643c25060aea3a4939e3e03e","study_id":"64370a36d30bfa807bc7e43c"},{"rt":5007,"response":{"prior knowledge":3,"curiosity":4},"accuracy":[],"trial_type":"survey","trial_index":35,"time_elapsed":216006,"internal_node_id":"0.0-3.0-1.7","prolific_id":"63e57dfe078c526e4fb9d33f","session_id":"643c25060aea3a4939e3e03e","study_id":"64370a36d30bfa807bc7e43c"},{"rt":null,"stimulus":"\n\t\t\t<div class=\"flip_card\">\n\t\t\t\t<div class=\"flip_card_inner\">\n\t\t\t\t\t<div class=\"flip_card_front\">\n\t\t\t\t\t\t<img src=img/28.png>\n\t\t\t\t\t</div>\n\t\t\t\t\t<div class=\"flip_card_back\">\n\t\t\t\t\t\t<h2>What year was the very first model of the iPhone released?</h2>\n\t\t\t\t\t\t<br>\n\t\t\t\t\t\t<p>Answer: <strong>2007</strong></p>\n\t\t\t\t\t</div>\n\t\t\t\t</div>\n\t\t\t</div>\n\t\t\t","response":null,"trial_type":"html-keyboard-response","trial_index":36,"time_elapsed":221009,"internal_node_id":"0.0-3.0-2.7","prolific_id":"63e57dfe078c526e4fb9d33f","session_id":"643c25060aea3a4939e3e03e","study_id":"64370a36d30bfa807bc7e43c"},{"rt":1466,"stimulus":"\n\t\t\t\t\t<div>\n\t\t\t\t\t<h2>Trial 8 is over</h2>\n\t\t\t\t\t<p>Press <span style=\"color: red\"><strong>any key</strong></span> to continue to the next trial</p>\n\t\t\t\t\t</div>\n\t\t\t\t","response":" ","trial_type":"html-keyboard-response","trial_index":37,"time_elapsed":222476,"internal_node_id":"0.0-3.0-3.7","prolific_id":"63e57dfe078c526e4fb9d33f","session_id":"643c25060aea3a4939e3e03e","study_id":"64370a36d30bfa807bc7e43c"},{"rt":14775,"response":{"prediction":"1750"},"trial_type":"survey-text","trial_index":38,"time_elapsed":237256,"internal_node_id":"0.0-3.0-0.8","prolific_id":"63e57dfe078c526e4fb9d33f","session_id":"643c25060aea3a4939e3e03e","study_id":"64370a36d30bfa807bc7e43c"},{"rt":8003,"response":{"prior knowledge":0,"curiosity":4},"accuracy":[],"trial_type":"survey","trial_index":39,"time_elapsed":245284,"internal_node_id":"0.0-3.0-1.8","prolific_id":"63e57dfe078c526e4fb9d33f","session_id":"643c25060aea3a4939e3e03e","study_id":"64370a36d30bfa807bc7e43c"},{"rt":null,"stimulus":"\n\t\t\t<div class=\"flip_card\">\n\t\t\t\t<div class=\"flip_card_inner\">\n\t\t\t\t\t<div class=\"flip_card_front\">\n\t\t\t\t\t\t<img src=img/23.png>\n\t\t\t\t\t</div>\n\t\t\t\t\t<div class=\"flip_card_back\">\n\t\t\t\t\t\t<h2>In what year did the first Modern Olympic Games take place?</h2>\n\t\t\t\t\t\t<br>\n\t\t\t\t\t\t<p>Answer: <strong>1896</strong></p>\n\t\t\t\t\t</div>\n\t\t\t\t</div>\n\t\t\t</div>\n\t\t\t","response":null,"trial_type":"html-keyboard-response","trial_index":40,"time_elapsed":250295,"internal_node_id":"0.0-3.0-2.8","prolific_id":"63e57dfe078c526e4fb9d33f","session_id":"643c25060aea3a4939e3e03e","study_id":"64370a36d30bfa807bc7e43c"},{"rt":3213,"stimulus":"\n\t\t\t\t\t<div>\n\t\t\t\t\t<h2>Trial 9 is over</h2>\n\t\t\t\t\t<p>Press <span style=\"color: red\"><strong>any key</strong></span> to continue to the next trial</p>\n\t\t\t\t\t</div>\n\t\t\t\t","response":" ","trial_type":"html-keyboard-response","trial_index":41,"time_elapsed":253509,"internal_node_id":"0.0-3.0-3.8","prolific_id":"63e57dfe078c526e4fb9d33f","session_id":"643c25060aea3a4939e3e03e","study_id":"64370a36d30bfa807bc7e43c"},{"rt":5879,"response":{"prediction":"1912"},"trial_type":"survey-text","trial_index":42,"time_elapsed":259392,"internal_node_id":"0.0-3.0-0.9","prolific_id":"63e57dfe078c526e4fb9d33f","session_id":"643c25060aea3a4939e3e03e","study_id":"64370a36d30bfa807bc7e43c"},{"rt":5698,"response":{"prior knowledge":5,"curiosity":2},"accuracy":[],"trial_type":"survey","trial_index":43,"time_elapsed":265103,"internal_node_id":"0.0-3.0-1.9","prolific_id":"63e57dfe078c526e4fb9d33f","session_id":"643c25060aea3a4939e3e03e","study_id":"64370a36d30bfa807bc7e43c"},{"rt":null,"stimulus":"\n\t\t\t<div class=\"flip_card\">\n\t\t\t\t<div class=\"flip_card_inner\">\n\t\t\t\t\t<div class=\"flip_card_front\">\n\t\t\t\t\t\t<img src=img/18.png>\n\t\t\t\t\t</div>\n\t\t\t\t\t<div class=\"flip_card_back\">\n\t\t\t\t\t\t<h2>What year did the titanic sink?</h2>\n\t\t\t\t\t\t<br>\n\t\t\t\t\t\t<p>Answer: <strong>1912</strong></p>\n\t\t\t\t\t</div>\n\t\t\t\t</div>\n\t\t\t</div>\n\t\t\t","response":null,"trial_type":"html-keyboard-response","trial_index":44,"time_elapsed":270119,"internal_node_id":"0.0-3.0-2.9","prolific_id":"63e57dfe078c526e4fb9d33f","session_id":"643c25060aea3a4939e3e03e","study_id":"64370a36d30bfa807bc7e43c"},{"rt":931,"stimulus":"\n\t\t\t\t\t<div>\n\t\t\t\t\t<h2>Trial 10 is over</h2>\n\t\t\t\t\t<p>Press <span style=\"color: red\"><strong>any key</strong></span> to continue to the next trial</p>\n\t\t\t\t\t</div>\n\t\t\t\t","response":" ","trial_type":"html-keyboard-response","trial_index":45,"time_elapsed":271051,"internal_node_id":"0.0-3.0-3.9","prolific_id":"63e57dfe078c526e4fb9d33f","session_id":"643c25060aea3a4939e3e03e","study_id":"64370a36d30bfa807bc7e43c"},{"rt":22304,"response":{"prediction":"28"},"trial_type":"survey-text","trial_index":46,"time_elapsed":293358,"internal_node_id":"0.0-3.0-0.10","prolific_id":"63e57dfe078c526e4fb9d33f","session_id":"643c25060aea3a4939e3e03e","study_id":"64370a36d30bfa807bc7e43c"},{"rt":6336,"response":{"prior knowledge":1,"curiosity":5},"accuracy":[],"trial_type":"survey","trial_index":47,"time_elapsed":299705,"internal_node_id":"0.0-3.0-1.10","prolific_id":"63e57dfe078c526e4fb9d33f","session_id":"643c25060aea3a4939e3e03e","study_id":"64370a36d30bfa807bc7e43c"},{"rt":null,"stimulus":"\n\t\t\t<div class=\"flip_card\">\n\t\t\t\t<div class=\"flip_card_inner\">\n\t\t\t\t\t<div class=\"flip_card_front\">\n\t\t\t\t\t\t<img src=img/25.png>\n\t\t\t\t\t</div>\n\t\t\t\t\t<div class=\"flip_card_back\">\n\t\t\t\t\t\t<h2>How many countries are in Africa?</h2>\n\t\t\t\t\t\t<br>\n\t\t\t\t\t\t<p>Answer: <strong>54</strong></p>\n\t\t\t\t\t</div>\n\t\t\t\t</div>\n\t\t\t</div>\n\t\t\t","response":null,"trial_type":"html-keyboard-response","trial_index":48,"time_elapsed":304713,"internal_node_id":"0.0-3.0-2.10","prolific_id":"63e57dfe078c526e4fb9d33f","session_id":"643c25060aea3a4939e3e03e","study_id":"64370a36d30bfa807bc7e43c"},{"rt":927,"stimulus":"\n\t\t\t\t\t<div>\n\t\t\t\t\t<h2>Trial 11 is over</h2>\n\t\t\t\t\t<p>Press <span style=\"color: red\"><strong>any key</strong></span> to continue to the next trial</p>\n\t\t\t\t\t</div>\n\t\t\t\t","response":" ","trial_type":"html-keyboard-response","trial_index":49,"time_elapsed":305641,"internal_node_id":"0.0-3.0-3.10","prolific_id":"63e57dfe078c526e4fb9d33f","session_id":"643c25060aea3a4939e3e03e","study_id":"64370a36d30bfa807bc7e43c"},{"rt":209761,"response":{"prediction":"1904"},"trial_type":"survey-text","trial_index":50,"time_elapsed":515405,"internal_node_id":"0.0-3.0-0.11","prolific_id":"63e57dfe078c526e4fb9d33f","session_id":"643c25060aea3a4939e3e03e","study_id":"64370a36d30bfa807bc7e43c"},{"rt":5172,"response":{"prior knowledge":0,"curiosity":3},"accuracy":[],"trial_type":"survey","trial_index":51,"time_elapsed":520608,"internal_node_id":"0.0-3.0-1.11","prolific_id":"63e57dfe078c526e4fb9d33f","session_id":"643c25060aea3a4939e3e03e","study_id":"64370a36d30bfa807bc7e43c"},{"rt":null,"stimulus":"\n\t\t\t<div class=\"flip_card\">\n\t\t\t\t<div class=\"flip_card_inner\">\n\t\t\t\t\t<div class=\"flip_card_front\">\n\t\t\t\t\t\t<img src=img/27.png>\n\t\t\t\t\t</div>\n\t\t\t\t\t<div class=\"flip_card_back\">\n\t\t\t\t\t\t<h2>In what year was the Mexican artist Frida Kahlo born?</h2>\n\t\t\t\t\t\t<br>\n\t\t\t\t\t\t<p>Answer: <strong>1907</strong></p>\n\t\t\t\t\t</div>\n\t\t\t\t</div>\n\t\t\t</div>\n\t\t\t","response":null,"trial_type":"html-keyboard-response","trial_index":52,"time_elapsed":525611,"internal_node_id":"0.0-3.0-2.11","prolific_id":"63e57dfe078c526e4fb9d33f","session_id":"643c25060aea3a4939e3e03e","study_id":"64370a36d30bfa807bc7e43c"},{"rt":1269,"stimulus":"\n\t\t\t\t\t<div>\n\t\t\t\t\t<h2>Trial 12 is over</h2>\n\t\t\t\t\t<p>Press <span style=\"color: red\"><strong>any key</strong></span> to continue to the next trial</p>\n\t\t\t\t\t</div>\n\t\t\t\t","response":" ","trial_type":"html-keyboard-response","trial_index":53,"time_elapsed":526880,"internal_node_id":"0.0-3.0-3.11","prolific_id":"63e57dfe078c526e4fb9d33f","session_id":"643c25060aea3a4939e3e03e","study_id":"64370a36d30bfa807bc7e43c"},{"rt":17508,"response":{"prediction":"200"},"trial_type":"survey-text","trial_index":54,"time_elapsed":544392,"internal_node_id":"0.0-3.0-0.12","prolific_id":"63e57dfe078c526e4fb9d33f","session_id":"643c25060aea3a4939e3e03e","study_id":"64370a36d30bfa807bc7e43c"},{"rt":4769,"response":{"prior knowledge":0,"curiosity":4},"accuracy":[],"trial_type":"survey","trial_index":55,"time_elapsed":549173,"internal_node_id":"0.0-3.0-1.12","prolific_id":"63e57dfe078c526e4fb9d33f","session_id":"643c25060aea3a4939e3e03e","study_id":"64370a36d30bfa807bc7e43c"},{"rt":null,"stimulus":"\n\t\t\t<div class=\"flip_card\">\n\t\t\t\t<div class=\"flip_card_inner\">\n\t\t\t\t\t<div class=\"flip_card_front\">\n\t\t\t\t\t\t<img src=img/17.png>\n\t\t\t\t\t</div>\n\t\t\t\t\t<div class=\"flip_card_back\">\n\t\t\t\t\t\t<h2>How many people are vegan globally (in millions)?</h2>\n\t\t\t\t\t\t<br>\n\t\t\t\t\t\t<p>Answer: <strong>79</strong></p>\n\t\t\t\t\t</div>\n\t\t\t\t</div>\n\t\t\t</div>\n\t\t\t","response":null,"trial_type":"html-keyboard-response","trial_index":56,"time_elapsed":554179,"internal_node_id":"0.0-3.0-2.12","prolific_id":"63e57dfe078c526e4fb9d33f","session_id":"643c25060aea3a4939e3e03e","study_id":"64370a36d30bfa807bc7e43c"},{"rt":928,"stimulus":"\n\t\t\t\t\t<div>\n\t\t\t\t\t<h2>Trial 13 is over</h2>\n\t\t\t\t\t<p>Press <span style=\"color: red\"><strong>any key</strong></span> to continue to the next trial</p>\n\t\t\t\t\t</div>\n\t\t\t\t","response":" ","trial_type":"html-keyboard-response","trial_index":57,"time_elapsed":555108,"internal_node_id":"0.0-3.0-3.12","prolific_id":"63e57dfe078c526e4fb9d33f","session_id":"643c25060aea3a4939e3e03e","study_id":"64370a36d30bfa807bc7e43c"},{"rt":5034,"response":{"prediction":"8"},"trial_type":"survey-text","trial_index":58,"time_elapsed":560143,"internal_node_id":"0.0-3.0-0.13","prolific_id":"63e57dfe078c526e4fb9d33f","session_id":"643c25060aea3a4939e3e03e","study_id":"64370a36d30bfa807bc7e43c"},{"rt":5487,"response":{"prior knowledge":0,"curiosity":2},"accuracy":[],"trial_type":"survey","trial_index":59,"time_elapsed":565643,"internal_node_id":"0.0-3.0-1.13","prolific_id":"63e57dfe078c526e4fb9d33f","session_id":"643c25060aea3a4939e3e03e","study_id":"64370a36d30bfa807bc7e43c"},{"rt":null,"stimulus":"\n\t\t\t<div class=\"flip_card\">\n\t\t\t\t<div class=\"flip_card_inner\">\n\t\t\t\t\t<div class=\"flip_card_front\">\n\t\t\t\t\t\t<img src=img/14.png>\n\t\t\t\t\t</div>\n\t\t\t\t\t<div class=\"flip_card_back\">\n\t\t\t\t\t\t<h2>How many soccer players should each team have on the field at the start of each match?</h2>\n\t\t\t\t\t\t<br>\n\t\t\t\t\t\t<p>Answer: <strong>11</strong></p>\n\t\t\t\t\t</div>\n\t\t\t\t</div>\n\t\t\t</div>\n\t\t\t","response":null,"trial_type":"html-keyboard-response","trial_index":60,"time_elapsed":570644,"internal_node_id":"0.0-3.0-2.13","prolific_id":"63e57dfe078c526e4fb9d33f","session_id":"643c25060aea3a4939e3e03e","study_id":"64370a36d30bfa807bc7e43c"},{"rt":838,"stimulus":"\n\t\t\t\t\t<div>\n\t\t\t\t\t<h2>Trial 14 is over</h2>\n\t\t\t\t\t<p>Press <span style=\"color: red\"><strong>any key</strong></span> to continue to the next trial</p>\n\t\t\t\t\t</div>\n\t\t\t\t","response":" ","trial_type":"html-keyboard-response","trial_index":61,"time_elapsed":571482,"internal_node_id":"0.0-3.0-3.13","prolific_id":"63e57dfe078c526e4fb9d33f","session_id":"643c25060aea3a4939e3e03e","study_id":"64370a36d30bfa807bc7e43c"},{"rt":6676,"response":{"prediction":"5"},"trial_type":"survey-text","trial_index":62,"time_elapsed":578162,"internal_node_id":"0.0-3.0-0.14","prolific_id":"63e57dfe078c526e4fb9d33f","session_id":"643c25060aea3a4939e3e03e","study_id":"64370a36d30bfa807bc7e43c"},{"rt":3922,"response":{"prior knowledge":0,"curiosity":4},"accuracy":[],"trial_type":"survey","trial_index":63,"time_elapsed":582097,"internal_node_id":"0.0-3.0-1.14","prolific_id":"63e57dfe078c526e4fb9d33f","session_id":"643c25060aea3a4939e3e03e","study_id":"64370a36d30bfa807bc7e43c"},{"rt":null,"stimulus":"\n\t\t\t<div class=\"flip_card\">\n\t\t\t\t<div class=\"flip_card_inner\">\n\t\t\t\t\t<div class=\"flip_card_front\">\n\t\t\t\t\t\t<img src=img/26.png>\n\t\t\t\t\t</div>\n\t\t\t\t\t<div class=\"flip_card_back\">\n\t\t\t\t\t\t<h2>How many moons does Neptune have?</h2>\n\t\t\t\t\t\t<br>\n\t\t\t\t\t\t<p>Answer: <strong>14</strong></p>\n\t\t\t\t\t</div>\n\t\t\t\t</div>\n\t\t\t</div>\n\t\t\t","response":null,"trial_type":"html-keyboard-response","trial_index":64,"time_elapsed":587105,"internal_node_id":"0.0-3.0-2.14","prolific_id":"63e57dfe078c526e4fb9d33f","session_id":"643c25060aea3a4939e3e03e","study_id":"64370a36d30bfa807bc7e43c"},{"rt":738,"stimulus":"\n\t\t\t\t\t<div>\n\t\t\t\t\t<h2>Trial 15 is over</h2>\n\t\t\t\t\t<p>Press <span style=\"color: red\"><strong>any key</strong></span> to continue to the next trial</p>\n\t\t\t\t\t</div>\n\t\t\t\t","response":" ","trial_type":"html-keyboard-response","trial_index":65,"time_elapsed":587844,"internal_node_id":"0.0-3.0-3.14","prolific_id":"63e57dfe078c526e4fb9d33f","session_id":"643c25060aea3a4939e3e03e","study_id":"64370a36d30bfa807bc7e43c"},{"rt":9432,"response":{"prediction":"29"},"trial_type":"survey-text","trial_index":66,"time_elapsed":597280,"internal_node_id":"0.0-3.0-0.15","prolific_id":"63e57dfe078c526e4fb9d33f","session_id":"643c25060aea3a4939e3e03e","study_id":"64370a36d30bfa807bc7e43c"},{"rt":4393,"response":{"prior knowledge":0,"curiosity":3},"accuracy":[],"trial_type":"survey","trial_index":67,"time_elapsed":601693,"internal_node_id":"0.0-3.0-1.15","prolific_id":"63e57dfe078c526e4fb9d33f","session_id":"643c25060aea3a4939e3e03e","study_id":"64370a36d30bfa807bc7e43c"},{"rt":null,"stimulus":"\n\t\t\t<div class=\"flip_card\">\n\t\t\t\t<div class=\"flip_card_inner\">\n\t\t\t\t\t<div class=\"flip_card_front\">\n\t\t\t\t\t\t<img src=img/10.png>\n\t\t\t\t\t</div>\n\t\t\t\t\t<div class=\"flip_card_back\">\n\t\t\t\t\t\t<h2>How many tones are in the Vietnamese language?</h2>\n\t\t\t\t\t\t<br>\n\t\t\t\t\t\t<p>Answer: <strong>6</strong></p>\n\t\t\t\t\t</div>\n\t\t\t\t</div>\n\t\t\t</div>\n\t\t\t","response":null,"trial_type":"html-keyboard-response","trial_index":68,"time_elapsed":606695,"internal_node_id":"0.0-3.0-2.15","prolific_id":"63e57dfe078c526e4fb9d33f","session_id":"643c25060aea3a4939e3e03e","study_id":"64370a36d30bfa807bc7e43c"},{"rt":927,"stimulus":"\n\t\t\t\t\t<div>\n\t\t\t\t\t<h2>Trial 16 is over</h2>\n\t\t\t\t\t<p>Press <span style=\"color: red\"><strong>any key</strong></span> to continue to the next trial</p>\n\t\t\t\t\t</div>\n\t\t\t\t","response":" ","trial_type":"html-keyboard-response","trial_index":69,"time_elapsed":607623,"internal_node_id":"0.0-3.0-3.15","prolific_id":"63e57dfe078c526e4fb9d33f","session_id":"643c25060aea3a4939e3e03e","study_id":"64370a36d30bfa807bc7e43c"},{"rt":13341,"response":{"prediction":"1991"},"trial_type":"survey-text","trial_index":70,"time_elapsed":620968,"internal_node_id":"0.0-3.0-0.16","prolific_id":"63e57dfe078c526e4fb9d33f","session_id":"643c25060aea3a4939e3e03e","study_id":"64370a36d30bfa807bc7e43c"},{"rt":6566,"response":{"prior knowledge":1,"curiosity":4},"accuracy":[],"trial_type":"survey","trial_index":71,"time_elapsed":627554,"internal_node_id":"0.0-3.0-1.16","prolific_id":"63e57dfe078c526e4fb9d33f","session_id":"643c25060aea3a4939e3e03e","study_id":"64370a36d30bfa807bc7e43c"},{"rt":null,"stimulus":"\n\t\t\t<div class=\"flip_card\">\n\t\t\t\t<div class=\"flip_card_inner\">\n\t\t\t\t\t<div class=\"flip_card_front\">\n\t\t\t\t\t\t<img src=img/20.png>\n\t\t\t\t\t</div>\n\t\t\t\t\t<div class=\"flip_card_back\">\n\t\t\t\t\t\t<h2>What year did the Berlin Wall fall?</h2>\n\t\t\t\t\t\t<br>\n\t\t\t\t\t\t<p>Answer: <strong>1989</strong></p>\n\t\t\t\t\t</div>\n\t\t\t\t</div>\n\t\t\t</div>\n\t\t\t","response":null,"trial_type":"html-keyboard-response","trial_index":72,"time_elapsed":632555,"internal_node_id":"0.0-3.0-2.16","prolific_id":"63e57dfe078c526e4fb9d33f","session_id":"643c25060aea3a4939e3e03e","study_id":"64370a36d30bfa807bc7e43c"},{"rt":1345,"stimulus":"\n\t\t\t\t\t<div>\n\t\t\t\t\t<h2>Trial 17 is over</h2>\n\t\t\t\t\t<p>Press <span style=\"color: red\"><strong>any key</strong></span> to continue to the next trial</p>\n\t\t\t\t\t</div>\n\t\t\t\t","response":" ","trial_type":"html-keyboard-response","trial_index":73,"time_elapsed":633901,"internal_node_id":"0.0-3.0-3.16","prolific_id":"63e57dfe078c526e4fb9d33f","session_id":"643c25060aea3a4939e3e03e","study_id":"64370a36d30bfa807bc7e43c"},{"rt":18695,"response":{"prediction":"4"},"trial_type":"survey-text","trial_index":74,"time_elapsed":652600,"internal_node_id":"0.0-3.0-0.17","prolific_id":"63e57dfe078c526e4fb9d33f","session_id":"643c25060aea3a4939e3e03e","study_id":"64370a36d30bfa807bc7e43c"},{"rt":5690,"response":{"prior knowledge":0,"curiosity":3},"accuracy":[],"trial_type":"survey","trial_index":75,"time_elapsed":658311,"internal_node_id":"0.0-3.0-1.17","prolific_id":"63e57dfe078c526e4fb9d33f","session_id":"643c25060aea3a4939e3e03e","study_id":"64370a36d30bfa807bc7e43c"},{"rt":null,"stimulus":"\n\t\t\t<div class=\"flip_card\">\n\t\t\t\t<div class=\"flip_card_inner\">\n\t\t\t\t\t<div class=\"flip_card_front\">\n\t\t\t\t\t\t<img src=img/6.png>\n\t\t\t\t\t</div>\n\t\t\t\t\t<div class=\"flip_card_back\">\n\t\t\t\t\t\t<h2>How many countries in Africa have French as the official language?</h2>\n\t\t\t\t\t\t<br>\n\t\t\t\t\t\t<p>Answer: <strong>21</strong></p>\n\t\t\t\t\t</div>\n\t\t\t\t</div>\n\t\t\t</div>\n\t\t\t","response":null,"trial_type":"html-keyboard-response","trial_index":76,"time_elapsed":663320,"internal_node_id":"0.0-3.0-2.17","prolific_id":"63e57dfe078c526e4fb9d33f","session_id":"643c25060aea3a4939e3e03e","study_id":"64370a36d30bfa807bc7e43c"},{"rt":473,"stimulus":"\n\t\t\t\t\t<div>\n\t\t\t\t\t<h2>Trial 18 is over</h2>\n\t\t\t\t\t<p>Press <span style=\"color: red\"><strong>any key</strong></span> to continue to the next trial</p>\n\t\t\t\t\t</div>\n\t\t\t\t","response":" ","trial_type":"html-keyboard-response","trial_index":77,"time_elapsed":663794,"internal_node_id":"0.0-3.0-3.17","prolific_id":"63e57dfe078c526e4fb9d33f","session_id":"643c25060aea3a4939e3e03e","study_id":"64370a36d30bfa807bc7e43c"},{"rt":5292,"response":{"prediction":"35"},"trial_type":"survey-text","trial_index":78,"time_elapsed":669089,"internal_node_id":"0.0-3.0-0.18","prolific_id":"63e57dfe078c526e4fb9d33f","session_id":"643c25060aea3a4939e3e03e","study_id":"64370a36d30bfa807bc7e43c"},{"rt":7564,"response":{"prior knowledge":0,"curiosity":5},"accuracy":[],"trial_type":"survey","trial_index":79,"time_elapsed":676665,"internal_node_id":"0.0-3.0-1.18","prolific_id":"63e57dfe078c526e4fb9d33f","session_id":"643c25060aea3a4939e3e03e","study_id":"64370a36d30bfa807bc7e43c"},{"rt":null,"stimulus":"\n\t\t\t<div class=\"flip_card\">\n\t\t\t\t<div class=\"flip_card_inner\">\n\t\t\t\t\t<div class=\"flip_card_front\">\n\t\t\t\t\t\t<img src=img/7.png>\n\t\t\t\t\t</div>\n\t\t\t\t\t<div class=\"flip_card_back\">\n\t\t\t\t\t\t<h2>How many constellations are there?</h2>\n\t\t\t\t\t\t<br>\n\t\t\t\t\t\t<p>Answer: <strong>88</strong></p>\n\t\t\t\t\t</div>\n\t\t\t\t</div>\n\t\t\t</div>\n\t\t\t","response":null,"trial_type":"html-keyboard-response","trial_index":80,"time_elapsed":681680,"internal_node_id":"0.0-3.0-2.18","prolific_id":"63e57dfe078c526e4fb9d33f","session_id":"643c25060aea3a4939e3e03e","study_id":"64370a36d30bfa807bc7e43c"},{"rt":1009,"stimulus":"\n\t\t\t\t\t<div>\n\t\t\t\t\t<h2>Trial 19 is over</h2>\n\t\t\t\t\t<p>Press <span style=\"color: red\"><strong>any key</strong></span> to continue to the next trial</p>\n\t\t\t\t\t</div>\n\t\t\t\t","response":" ","trial_type":"html-keyboard-response","trial_index":81,"time_elapsed":682690,"internal_node_id":"0.0-3.0-3.18","prolific_id":"63e57dfe078c526e4fb9d33f","session_id":"643c25060aea3a4939e3e03e","study_id":"64370a36d30bfa807bc7e43c"},{"rt":8706,"response":{"prediction":"220"},"trial_type":"survey-text","trial_index":82,"time_elapsed":691400,"internal_node_id":"0.0-3.0-0.19","prolific_id":"63e57dfe078c526e4fb9d33f","session_id":"643c25060aea3a4939e3e03e","study_id":"64370a36d30bfa807bc7e43c"},{"rt":6363,"response":{"prior knowledge":1,"curiosity":4},"accuracy":[],"trial_type":"survey","trial_index":83,"time_elapsed":697776,"internal_node_id":"0.0-3.0-1.19","prolific_id":"63e57dfe078c526e4fb9d33f","session_id":"643c25060aea3a4939e3e03e","study_id":"64370a36d30bfa807bc7e43c"},{"rt":null,"stimulus":"\n\t\t\t<div class=\"flip_card\">\n\t\t\t\t<div class=\"flip_card_inner\">\n\t\t\t\t\t<div class=\"flip_card_front\">\n\t\t\t\t\t\t<img src=img/12.png>\n\t\t\t\t\t</div>\n\t\t\t\t\t<div class=\"flip_card_back\">\n\t\t\t\t\t\t<h2>How many bones is a human baby born with?</h2>\n\t\t\t\t\t\t<br>\n\t\t\t\t\t\t<p>Answer: <strong>300</strong></p>\n\t\t\t\t\t</div>\n\t\t\t\t</div>\n\t\t\t</div>\n\t\t\t","response":null,"trial_type":"html-keyboard-response","trial_index":84,"time_elapsed":702783,"internal_node_id":"0.0-3.0-2.19","prolific_id":"63e57dfe078c526e4fb9d33f","session_id":"643c25060aea3a4939e3e03e","study_id":"64370a36d30bfa807bc7e43c"},{"rt":969,"stimulus":"\n\t\t\t\t\t<div>\n\t\t\t\t\t<h2>Trial 20 is over</h2>\n\t\t\t\t\t<p>Press <span style=\"color: red\"><strong>any key</strong></span> to continue to the next trial</p>\n\t\t\t\t\t</div>\n\t\t\t\t","response":" ","trial_type":"html-keyboard-response","trial_index":85,"time_elapsed":703753,"internal_node_id":"0.0-3.0-3.19","prolific_id":"63e57dfe078c526e4fb9d33f","session_id":"643c25060aea3a4939e3e03e","study_id":"64370a36d30bfa807bc7e43c"},{"rt":3627,"response":{"prediction":"6"},"trial_type":"survey-text","trial_index":86,"time_elapsed":707383,"internal_node_id":"0.0-3.0-0.20","prolific_id":"63e57dfe078c526e4fb9d33f","session_id":"643c25060aea3a4939e3e03e","study_id":"64370a36d30bfa807bc7e43c"},{"rt":4680,"response":{"prior knowledge":0,"curiosity":2},"accuracy":[],"trial_type":"survey","trial_index":87,"time_elapsed":712076,"internal_node_id":"0.0-3.0-1.20","prolific_id":"63e57dfe078c526e4fb9d33f","session_id":"643c25060aea3a4939e3e03e","study_id":"64370a36d30bfa807bc7e43c"},{"rt":null,"stimulus":"\n\t\t\t<div class=\"flip_card\">\n\t\t\t\t<div class=\"flip_card_inner\">\n\t\t\t\t\t<div class=\"flip_card_front\">\n\t\t\t\t\t\t<img src=img/29.png>\n\t\t\t\t\t</div>\n\t\t\t\t\t<div class=\"flip_card_back\">\n\t\t\t\t\t\t<h2>How many native species of kangaroos are found in Australia?</h2>\n\t\t\t\t\t\t<br>\n\t\t\t\t\t\t<p>Answer: <strong>4</strong></p>\n\t\t\t\t\t</div>\n\t\t\t\t</div>\n\t\t\t</div>\n\t\t\t","response":null,"trial_type":"html-keyboard-response","trial_index":88,"time_elapsed":717090,"internal_node_id":"0.0-3.0-2.20","prolific_id":"63e57dfe078c526e4fb9d33f","session_id":"643c25060aea3a4939e3e03e","study_id":"64370a36d30bfa807bc7e43c"},{"rt":920,"stimulus":"\n\t\t\t\t\t<div>\n\t\t\t\t\t<h2>Trial 21 is over</h2>\n\t\t\t\t\t<p>Press <span style=\"color: red\"><strong>any key</strong></span> to continue to the next trial</p>\n\t\t\t\t\t</div>\n\t\t\t\t","response":" ","trial_type":"html-keyboard-response","trial_index":89,"time_elapsed":718011,"internal_node_id":"0.0-3.0-3.20","prolific_id":"63e57dfe078c526e4fb9d33f","session_id":"643c25060aea3a4939e3e03e","study_id":"64370a36d30bfa807bc7e43c"},{"rt":3947,"response":{"prediction":"13"},"trial_type":"survey-text","trial_index":90,"time_elapsed":721962,"internal_node_id":"0.0-3.0-0.21","prolific_id":"63e57dfe078c526e4fb9d33f","session_id":"643c25060aea3a4939e3e03e","study_id":"64370a36d30bfa807bc7e43c"},{"rt":4270,"response":{"prior knowledge":3,"curiosity":2},"accuracy":[],"trial_type":"survey","trial_index":91,"time_elapsed":726253,"internal_node_id":"0.0-3.0-1.21","prolific_id":"63e57dfe078c526e4fb9d33f","session_id":"643c25060aea3a4939e3e03e","study_id":"64370a36d30bfa807bc7e43c"},{"rt":null,"stimulus":"\n\t\t\t<div class=\"flip_card\">\n\t\t\t\t<div class=\"flip_card_inner\">\n\t\t\t\t\t<div class=\"flip_card_front\">\n\t\t\t\t\t\t<img src=img/2.png>\n\t\t\t\t\t</div>\n\t\t\t\t\t<div class=\"flip_card_back\">\n\t\t\t\t\t\t<h2>How much is in a Baker's Dozen?</h2>\n\t\t\t\t\t\t<br>\n\t\t\t\t\t\t<p>Answer: <strong>13</strong></p>\n\t\t\t\t\t</div>\n\t\t\t\t</div>\n\t\t\t</div>\n\t\t\t","response":null,"trial_type":"html-keyboard-response","trial_index":92,"time_elapsed":731269,"internal_node_id":"0.0-3.0-2.21","prolific_id":"63e57dfe078c526e4fb9d33f","session_id":"643c25060aea3a4939e3e03e","study_id":"64370a36d30bfa807bc7e43c"},{"rt":789,"stimulus":"\n\t\t\t\t\t<div>\n\t\t\t\t\t<h2>Trial 22 is over</h2>\n\t\t\t\t\t<p>Press <span style=\"color: red\"><strong>any key</strong></span> to continue to the next trial</p>\n\t\t\t\t\t</div>\n\t\t\t\t","response":" ","trial_type":"html-keyboard-response","trial_index":93,"time_elapsed":732059,"internal_node_id":"0.0-3.0-3.21","prolific_id":"63e57dfe078c526e4fb9d33f","session_id":"643c25060aea3a4939e3e03e","study_id":"64370a36d30bfa807bc7e43c"},{"rt":23527,"response":{"prediction":"12"},"trial_type":"survey-text","trial_index":94,"time_elapsed":755590,"internal_node_id":"0.0-3.0-0.22","prolific_id":"63e57dfe078c526e4fb9d33f","session_id":"643c25060aea3a4939e3e03e","study_id":"64370a36d30bfa807bc7e43c"},{"rt":10009,"response":{"prior knowledge":0,"curiosity":3},"accuracy":[],"trial_type":"survey","trial_index":95,"time_elapsed":765618,"internal_node_id":"0.0-3.0-1.22","prolific_id":"63e57dfe078c526e4fb9d33f","session_id":"643c25060aea3a4939e3e03e","study_id":"64370a36d30bfa807bc7e43c"},{"rt":null,"stimulus":"\n\t\t\t<div class=\"flip_card\">\n\t\t\t\t<div class=\"flip_card_inner\">\n\t\t\t\t\t<div class=\"flip_card_front\">\n\t\t\t\t\t\t<img src=img/16.png>\n\t\t\t\t\t</div>\n\t\t\t\t\t<div class=\"flip_card_back\">\n\t\t\t\t\t\t<h2>How many different animals (real or imaginary) are represented in the Chinese calendar?</h2>\n\t\t\t\t\t\t<br>\n\t\t\t\t\t\t<p>Answer: <strong>12</strong></p>\n\t\t\t\t\t</div>\n\t\t\t\t</div>\n\t\t\t</div>\n\t\t\t","response":null,"trial_type":"html-keyboard-response","trial_index":96,"time_elapsed":770633,"internal_node_id":"0.0-3.0-2.22","prolific_id":"63e57dfe078c526e4fb9d33f","session_id":"643c25060aea3a4939e3e03e","study_id":"64370a36d30bfa807bc7e43c"},{"rt":3199,"stimulus":"\n\t\t\t\t\t<div>\n\t\t\t\t\t<h2>Trial 23 is over</h2>\n\t\t\t\t\t<p>Press <span style=\"color: red\"><strong>any key</strong></span> to continue to the next trial</p>\n\t\t\t\t\t</div>\n\t\t\t\t","response":" ","trial_type":"html-keyboard-response","trial_index":97,"time_elapsed":773832,"internal_node_id":"0.0-3.0-3.22","prolific_id":"63e57dfe078c526e4fb9d33f","session_id":"643c25060aea3a4939e3e03e","study_id":"64370a36d30bfa807bc7e43c"},{"rt":44116,"response":{"prediction":"16"},"trial_type":"survey-text","trial_index":98,"time_elapsed":817952,"internal_node_id":"0.0-3.0-0.23","prolific_id":"63e57dfe078c526e4fb9d33f","session_id":"643c25060aea3a4939e3e03e","study_id":"64370a36d30bfa807bc7e43c"},{"rt":5462,"response":{"prior knowledge":0,"curiosity":3},"accuracy":[],"trial_type":"survey","trial_index":99,"time_elapsed":823434,"internal_node_id":"0.0-3.0-1.23","prolific_id":"63e57dfe078c526e4fb9d33f","session_id":"643c25060aea3a4939e3e03e","study_id":"64370a36d30bfa807bc7e43c"},{"rt":null,"stimulus":"\n\t\t\t<div class=\"flip_card\">\n\t\t\t\t<div class=\"flip_card_inner\">\n\t\t\t\t\t<div class=\"flip_card_front\">\n\t\t\t\t\t\t<img src=img/30.png>\n\t\t\t\t\t</div>\n\t\t\t\t\t<div class=\"flip_card_back\">\n\t\t\t\t\t\t<h2>How many lines are in a sonnet?</h2>\n\t\t\t\t\t\t<br>\n\t\t\t\t\t\t<p>Answer: <strong>14</strong></p>\n\t\t\t\t\t</div>\n\t\t\t\t</div>\n\t\t\t</div>\n\t\t\t","response":null,"trial_type":"html-keyboard-response","trial_index":100,"time_elapsed":828436,"internal_node_id":"0.0-3.0-2.23","prolific_id":"63e57dfe078c526e4fb9d33f","session_id":"643c25060aea3a4939e3e03e","study_id":"64370a36d30bfa807bc7e43c"},{"rt":789,"stimulus":"\n\t\t\t\t\t<div>\n\t\t\t\t\t<h2>Trial 24 is over</h2>\n\t\t\t\t\t<p>Press <span style=\"color: red\"><strong>any key</strong></span> to continue to the next trial</p>\n\t\t\t\t\t</div>\n\t\t\t\t","response":" ","trial_type":"html-keyboard-response","trial_index":101,"time_elapsed":829225,"internal_node_id":"0.0-3.0-3.23","prolific_id":"63e57dfe078c526e4fb9d33f","session_id":"643c25060aea3a4939e3e03e","study_id":"64370a36d30bfa807bc7e43c"},{"rt":13761,"response":{"prediction":"5"},"trial_type":"survey-text","trial_index":102,"time_elapsed":842990,"internal_node_id":"0.0-3.0-0.24","prolific_id":"63e57dfe078c526e4fb9d33f","session_id":"643c25060aea3a4939e3e03e","study_id":"64370a36d30bfa807bc7e43c"},{"rt":5723,"response":{"prior knowledge":1,"curiosity":4},"accuracy":[],"trial_type":"survey","trial_index":103,"time_elapsed":848726,"internal_node_id":"0.0-3.0-1.24","prolific_id":"63e57dfe078c526e4fb9d33f","session_id":"643c25060aea3a4939e3e03e","study_id":"64370a36d30bfa807bc7e43c"},{"rt":null,"stimulus":"\n\t\t\t<div class=\"flip_card\">\n\t\t\t\t<div class=\"flip_card_inner\">\n\t\t\t\t\t<div class=\"flip_card_front\">\n\t\t\t\t\t\t<img src=img/13.png>\n\t\t\t\t\t</div>\n\t\t\t\t\t<div class=\"flip_card_back\">\n\t\t\t\t\t\t<h2>How many times a day do Muslims pray?</h2>\n\t\t\t\t\t\t<br>\n\t\t\t\t\t\t<p>Answer: <strong>5</strong></p>\n\t\t\t\t\t</div>\n\t\t\t\t</div>\n\t\t\t</div>\n\t\t\t","response":null,"trial_type":"html-keyboard-response","trial_index":104,"time_elapsed":853741,"internal_node_id":"0.0-3.0-2.24","prolific_id":"63e57dfe078c526e4fb9d33f","session_id":"643c25060aea3a4939e3e03e","study_id":"64370a36d30bfa807bc7e43c"},{"rt":766,"stimulus":"\n\t\t\t\t\t<div>\n\t\t\t\t\t<h2>Trial 25 is over</h2>\n\t\t\t\t\t<p>Press <span style=\"color: red\"><strong>any key</strong></span> to continue to the next trial</p>\n\t\t\t\t\t</div>\n\t\t\t\t","response":" ","trial_type":"html-keyboard-response","trial_index":105,"time_elapsed":854507,"internal_node_id":"0.0-3.0-3.24","prolific_id":"63e57dfe078c526e4fb9d33f","session_id":"643c25060aea3a4939e3e03e","study_id":"64370a36d30bfa807bc7e43c"},{"rt":9191,"response":{"prediction":"300"},"trial_type":"survey-text","trial_index":106,"time_elapsed":863700,"internal_node_id":"0.0-3.0-0.25","prolific_id":"63e57dfe078c526e4fb9d33f","session_id":"643c25060aea3a4939e3e03e","study_id":"64370a36d30bfa807bc7e43c"},{"rt":6637,"response":{"prior knowledge":1,"curiosity":5},"accuracy":[],"trial_type":"survey","trial_index":107,"time_elapsed":870350,"internal_node_id":"0.0-3.0-1.25","prolific_id":"63e57dfe078c526e4fb9d33f","session_id":"643c25060aea3a4939e3e03e","study_id":"64370a36d30bfa807bc7e43c"},{"rt":null,"stimulus":"\n\t\t\t<div class=\"flip_card\">\n\t\t\t\t<div class=\"flip_card_inner\">\n\t\t\t\t\t<div class=\"flip_card_front\">\n\t\t\t\t\t\t<img src=img/11.png>\n\t\t\t\t\t</div>\n\t\t\t\t\t<div class=\"flip_card_back\">\n\t\t\t\t\t\t<h2>How many books has Stephen King published?</h2>\n\t\t\t\t\t\t<br>\n\t\t\t\t\t\t<p>Answer: <strong>65</strong></p>\n\t\t\t\t\t</div>\n\t\t\t\t</div>\n\t\t\t</div>\n\t\t\t","response":null,"trial_type":"html-keyboard-response","trial_index":108,"time_elapsed":875365,"internal_node_id":"0.0-3.0-2.25","prolific_id":"63e57dfe078c526e4fb9d33f","session_id":"643c25060aea3a4939e3e03e","study_id":"64370a36d30bfa807bc7e43c"},{"rt":800,"stimulus":"\n\t\t\t\t\t<div>\n\t\t\t\t\t<h2>Trial 26 is over</h2>\n\t\t\t\t\t<p>Press <span style=\"color: red\"><strong>any key</strong></span> to continue to the next trial</p>\n\t\t\t\t\t</div>\n\t\t\t\t","response":" ","trial_type":"html-keyboard-response","trial_index":109,"time_elapsed":876165,"internal_node_id":"0.0-3.0-3.25","prolific_id":"63e57dfe078c526e4fb9d33f","session_id":"643c25060aea3a4939e3e03e","study_id":"64370a36d30bfa807bc7e43c"},{"rt":15649,"response":{"prediction":"25000"},"trial_type":"survey-text","trial_index":110,"time_elapsed":891819,"internal_node_id":"0.0-3.0-0.26","prolific_id":"63e57dfe078c526e4fb9d33f","session_id":"643c25060aea3a4939e3e03e","study_id":"64370a36d30bfa807bc7e43c"},{"rt":3253,"response":{"prior knowledge":0,"curiosity":4},"accuracy":[],"trial_type":"survey","trial_index":111,"time_elapsed":895084,"internal_node_id":"0.0-3.0-1.26","prolific_id":"63e57dfe078c526e4fb9d33f","session_id":"643c25060aea3a4939e3e03e","study_id":"64370a36d30bfa807bc7e43c"},{"rt":null,"stimulus":"\n\t\t\t<div class=\"flip_card\">\n\t\t\t\t<div class=\"flip_card_inner\">\n\t\t\t\t\t<div class=\"flip_card_front\">\n\t\t\t\t\t\t<img src=img/19.png>\n\t\t\t\t\t</div>\n\t\t\t\t\t<div class=\"flip_card_back\">\n\t\t\t\t\t\t<h2>What is the diameter of Earth in miles?</h2>\n\t\t\t\t\t\t<br>\n\t\t\t\t\t\t<p>Answer: <strong>7917.5</strong></p>\n\t\t\t\t\t</div>\n\t\t\t\t</div>\n\t\t\t</div>\n\t\t\t","response":null,"trial_type":"html-keyboard-response","trial_index":112,"time_elapsed":900096,"internal_node_id":"0.0-3.0-2.26","prolific_id":"63e57dfe078c526e4fb9d33f","session_id":"643c25060aea3a4939e3e03e","study_id":"64370a36d30bfa807bc7e43c"},{"rt":1128,"stimulus":"\n\t\t\t\t\t<div>\n\t\t\t\t\t<h2>Trial 27 is over</h2>\n\t\t\t\t\t<p>Press <span style=\"color: red\"><strong>any key</strong></span> to continue to the next trial</p>\n\t\t\t\t\t</div>\n\t\t\t\t","response":" ","trial_type":"html-keyboard-response","trial_index":113,"time_elapsed":901225,"internal_node_id":"0.0-3.0-3.26","prolific_id":"63e57dfe078c526e4fb9d33f","session_id":"643c25060aea3a4939e3e03e","study_id":"64370a36d30bfa807bc7e43c"},{"rt":4031,"response":{"prediction":"7"},"trial_type":"survey-text","trial_index":114,"time_elapsed":905260,"internal_node_id":"0.0-3.0-0.27","prolific_id":"63e57dfe078c526e4fb9d33f","session_id":"643c25060aea3a4939e3e03e","study_id":"64370a36d30bfa807bc7e43c"},{"rt":2616,"response":{"prior knowledge":0,"curiosity":0},"accuracy":[],"trial_type":"survey","trial_index":115,"time_elapsed":907902,"internal_node_id":"0.0-3.0-1.27","prolific_id":"63e57dfe078c526e4fb9d33f","session_id":"643c25060aea3a4939e3e03e","study_id":"64370a36d30bfa807bc7e43c"},{"rt":null,"stimulus":"\n\t\t\t<div class=\"flip_card\">\n\t\t\t\t<div class=\"flip_card_inner\">\n\t\t\t\t\t<div class=\"flip_card_front\">\n\t\t\t\t\t\t<img src=img/9.png>\n\t\t\t\t\t</div>\n\t\t\t\t\t<div class=\"flip_card_back\">\n\t\t\t\t\t\t<h2>How many books are in the Catholic Bible?</h2>\n\t\t\t\t\t\t<br>\n\t\t\t\t\t\t<p>Answer: <strong>73</strong></p>\n\t\t\t\t\t</div>\n\t\t\t\t</div>\n\t\t\t</div>\n\t\t\t","response":null,"trial_type":"html-keyboard-response","trial_index":116,"time_elapsed":912918,"internal_node_id":"0.0-3.0-2.27","prolific_id":"63e57dfe078c526e4fb9d33f","session_id":"643c25060aea3a4939e3e03e","study_id":"64370a36d30bfa807bc7e43c"},{"rt":853,"stimulus":"\n\t\t\t\t\t<div>\n\t\t\t\t\t<h2>Trial 28 is over</h2>\n\t\t\t\t\t<p>Press <span style=\"color: red\"><strong>any key</strong></span> to continue to the next trial</p>\n\t\t\t\t\t</div>\n\t\t\t\t","response":" ","trial_type":"html-keyboard-response","trial_index":117,"time_elapsed":913771,"internal_node_id":"0.0-3.0-3.27","prolific_id":"63e57dfe078c526e4fb9d33f","session_id":"643c25060aea3a4939e3e03e","study_id":"64370a36d30bfa807bc7e43c"},{"rt":6890,"response":{"prediction":"210"},"trial_type":"survey-text","trial_index":118,"time_elapsed":920664,"internal_node_id":"0.0-3.0-0.28","prolific_id":"63e57dfe078c526e4fb9d33f","session_id":"643c25060aea3a4939e3e03e","study_id":"64370a36d30bfa807bc7e43c"},{"rt":3881,"response":{"prior knowledge":0,"curiosity":4},"accuracy":[],"trial_type":"survey","trial_index":119,"time_elapsed":924571,"internal_node_id":"0.0-3.0-1.28","prolific_id":"63e57dfe078c526e4fb9d33f","session_id":"643c25060aea3a4939e3e03e","study_id":"64370a36d30bfa807bc7e43c"},{"rt":null,"stimulus":"\n\t\t\t<div class=\"flip_card\">\n\t\t\t\t<div class=\"flip_card_inner\">\n\t\t\t\t\t<div class=\"flip_card_front\">\n\t\t\t\t\t\t<img src=img/4.png>\n\t\t\t\t\t</div>\n\t\t\t\t\t<div class=\"flip_card_back\">\n\t\t\t\t\t\t<h2>How many floors are in the Burj Khalifa, the tallest building in the world?</h2>\n\t\t\t\t\t\t<br>\n\t\t\t\t\t\t<p>Answer: <strong>163</strong></p>\n\t\t\t\t\t</div>\n\t\t\t\t</div>\n\t\t\t</div>\n\t\t\t","response":null,"trial_type":"html-keyboard-response","trial_index":120,"time_elapsed":929594,"internal_node_id":"0.0-3.0-2.28","prolific_id":"63e57dfe078c526e4fb9d33f","session_id":"643c25060aea3a4939e3e03e","study_id":"64370a36d30bfa807bc7e43c"},{"rt":848,"stimulus":"\n\t\t\t\t\t<div>\n\t\t\t\t\t<h2>Trial 29 is over</h2>\n\t\t\t\t\t<p>Press <span style=\"color: red\"><strong>any key</strong></span> to continue to the next trial</p>\n\t\t\t\t\t</div>\n\t\t\t\t","response":" ","trial_type":"html-keyboard-response","trial_index":121,"time_elapsed":930442,"internal_node_id":"0.0-3.0-3.28","prolific_id":"63e57dfe078c526e4fb9d33f","session_id":"643c25060aea3a4939e3e03e","study_id":"64370a36d30bfa807bc7e43c"},{"rt":5357,"response":{"prediction":"9"},"trial_type":"survey-text","trial_index":122,"time_elapsed":935802,"internal_node_id":"0.0-3.0-0.29","prolific_id":"63e57dfe078c526e4fb9d33f","session_id":"643c25060aea3a4939e3e03e","study_id":"64370a36d30bfa807bc7e43c"},{"rt":3146,"response":{"prior knowledge":0,"curiosity":2},"accuracy":[],"trial_type":"survey","trial_index":123,"time_elapsed":938960,"internal_node_id":"0.0-3.0-1.29","prolific_id":"63e57dfe078c526e4fb9d33f","session_id":"643c25060aea3a4939e3e03e","study_id":"64370a36d30bfa807bc7e43c"},{"rt":null,"stimulus":"\n\t\t\t<div class=\"flip_card\">\n\t\t\t\t<div class=\"flip_card_inner\">\n\t\t\t\t\t<div class=\"flip_card_front\">\n\t\t\t\t\t\t<img src=img/15.png>\n\t\t\t\t\t</div>\n\t\t\t\t\t<div class=\"flip_card_back\">\n\t\t\t\t\t\t<h2>How many single hand gestures, or mudras, are used in Indian classical dance?</h2>\n\t\t\t\t\t\t<br>\n\t\t\t\t\t\t<p>Answer: <strong>28</strong></p>\n\t\t\t\t\t</div>\n\t\t\t\t</div>\n\t\t\t</div>\n\t\t\t","response":null,"trial_type":"html-keyboard-response","trial_index":124,"time_elapsed":943969,"internal_node_id":"0.0-3.0-2.29","prolific_id":"63e57dfe078c526e4fb9d33f","session_id":"643c25060aea3a4939e3e03e","study_id":"64370a36d30bfa807bc7e43c"},{"rt":883,"stimulus":"\n\t\t\t\t\t<div>\n\t\t\t\t\t<h2>Trial 30 is over</h2>\n\t\t\t\t\t<p>Press <span style=\"color: red\"><strong>any key</strong></span> to continue to the next trial</p>\n\t\t\t\t\t</div>\n\t\t\t\t","response":" ","trial_type":"html-keyboard-response","trial_index":125,"time_elapsed":944853,"internal_node_id":"0.0-3.0-3.29","prolific_id":"63e57dfe078c526e4fb9d33f","session_id":"643c25060aea3a4939e3e03e","study_id":"64370a36d30bfa807bc7e43c"},{"rt":null,"stimulus":"\n\t\t\t<h2>Good job! You've finished the 30 trials:p</h2>\n\t\t\t<p>In the next session, you will see two cards on the screen in each trial.</p>\n\t\t\t<p>On one card is a pattern that you have seen before in the experiment,\n\t\t\t\tand on the other card is one you have not seen.</p><br>\n\t\t\t<p>Your task is to choose the one you think you <em>have</em> seen before for every trial.</p>\n\t\t\t<p>Press '<span style=\"color: red;\"><strong>F</strong></span>' to choose the card on the left,\n\t\t\t\tand '<span style=\"color: red;\"><strong>J</strong></span>' to choose the card on the right.</p>\n\t\t\t<p>Have fun!</p>\n\t\t\t<br>\n\t\t\t<p>The trials will begin in 30 seconds</p>\n\t\t\t","response":null,"trial_type":"html-keyboard-response","trial_index":126,"time_elapsed":974862,"internal_node_id":"0.0-4.0","prolific_id":"63e57dfe078c526e4fb9d33f","session_id":"643c25060aea3a4939e3e03e","study_id":"64370a36d30bfa807bc7e43c"},{"rt":5527,"stimulus":"\n\t\t\t\t\t\t<div class=\"two_card_container\">\n\t\t\t\t\t\t<div class=\"card_container\">\n\t\t\t\t\t\t<img src=img/36.png>\n\t\t\t\t\t\t</div>\n\n\t\t\t\t\t\t<div class=\"card_container\">\n\t\t\t\t\t\t<img src=img/19.png>\n\t\t\t\t\t\t</div>","response":"j","task":"response","correct_response":"j","trial_type":"html-keyboard-response","trial_index":127,"time_elapsed":980391,"internal_node_id":"0.0-5.0-0.0","prolific_id":"63e57dfe078c526e4fb9d33f","session_id":"643c25060aea3a4939e3e03e","study_id":"64370a36d30bfa807bc7e43c","correct":true},{"rt":null,"stimulus":"\n\t\t\t\t\t<p>Correct!</p>\n\t\t\t\t\t","response":null,"trial_type":"html-keyboard-response","trial_index":128,"time_elapsed":981403,"internal_node_id":"0.0-5.0-1.0","prolific_id":"63e57dfe078c526e4fb9d33f","session_id":"643c25060aea3a4939e3e03e","study_id":"64370a36d30bfa807bc7e43c"},{"rt":2581,"stimulus":"\n\t\t\t\t\t\t<div class=\"two_card_container\">\n\t\t\t\t\t\t<div class=\"card_container\">\n\t\t\t\t\t\t<img src=img/10.png>\n\t\t\t\t\t\t</div>\n\n\t\t\t\t\t\t<div class=\"card_container\">\n\t\t\t\t\t\t<img src=img/34.png>\n\t\t\t\t\t\t</div>","response":"f","task":"response","correct_response":"f","trial_type":"html-keyboard-response","trial_index":129,"time_elapsed":983985,"internal_node_id":"0.0-5.0-0.1","prolific_id":"63e57dfe078c526e4fb9d33f","session_id":"643c25060aea3a4939e3e03e","study_id":"64370a36d30bfa807bc7e43c","correct":true},{"rt":null,"stimulus":"\n\t\t\t\t\t<p>Correct!</p>\n\t\t\t\t\t","response":null,"trial_type":"html-keyboard-response","trial_index":130,"time_elapsed":984999,"internal_node_id":"0.0-5.0-1.1","prolific_id":"63e57dfe078c526e4fb9d33f","session_id":"643c25060aea3a4939e3e03e","study_id":"64370a36d30bfa807bc7e43c"},{"rt":3328,"stimulus":"\n\t\t\t\t\t\t<div class=\"two_card_container\">\n\t\t\t\t\t\t<div class=\"card_container\">\n\t\t\t\t\t\t<img src=img/24.png>\n\t\t\t\t\t\t</div>\n\n\t\t\t\t\t\t<div class=\"card_container\">\n\t\t\t\t\t\t<img src=img/37.png>\n\t\t\t\t\t\t</div>","response":"j","task":"response","correct_response":"f","trial_type":"html-keyboard-response","trial_index":131,"time_elapsed":988329,"internal_node_id":"0.0-5.0-0.2","prolific_id":"63e57dfe078c526e4fb9d33f","session_id":"643c25060aea3a4939e3e03e","study_id":"64370a36d30bfa807bc7e43c","correct":false},{"rt":null,"stimulus":"\n\t\t\t\t\t<p>Wrong answer</p>\n\t\t\t\t\t","response":null,"trial_type":"html-keyboard-response","trial_index":132,"time_elapsed":989339,"internal_node_id":"0.0-5.0-1.2","prolific_id":"63e57dfe078c526e4fb9d33f","session_id":"643c25060aea3a4939e3e03e","study_id":"64370a36d30bfa807bc7e43c"},{"rt":2610,"stimulus":"\n\t\t\t\t\t\t<div class=\"two_card_container\">\n\t\t\t\t\t\t<div class=\"card_container\">\n\t\t\t\t\t\t<img src=img/33.png>\n\t\t\t\t\t\t</div>\n\n\t\t\t\t\t\t<div class=\"card_container\">\n\t\t\t\t\t\t<img src=img/12.png>\n\t\t\t\t\t\t</div>","response":"j","task":"response","correct_response":"j","trial_type":"html-keyboard-response","trial_index":133,"time_elapsed":991950,"internal_node_id":"0.0-5.0-0.3","prolific_id":"63e57dfe078c526e4fb9d33f","session_id":"643c25060aea3a4939e3e03e","study_id":"64370a36d30bfa807bc7e43c","correct":true},{"rt":null,"stimulus":"\n\t\t\t\t\t<p>Correct!</p>\n\t\t\t\t\t","response":null,"trial_type":"html-keyboard-response","trial_index":134,"time_elapsed":992961,"internal_node_id":"0.0-5.0-1.3","prolific_id":"63e57dfe078c526e4fb9d33f","session_id":"643c25060aea3a4939e3e03e","study_id":"64370a36d30bfa807bc7e43c"},{"rt":1899,"stimulus":"\n\t\t\t\t\t\t<div class=\"two_card_container\">\n\t\t\t\t\t\t<div class=\"card_container\">\n\t\t\t\t\t\t<img src=img/28.png>\n\t\t\t\t\t\t</div>\n\n\t\t\t\t\t\t<div class=\"card_container\">\n\t\t\t\t\t\t<img src=img/40.png>\n\t\t\t\t\t\t</div>","response":"f","task":"response","correct_response":"f","trial_type":"html-keyboard-response","trial_index":135,"time_elapsed":994862,"internal_node_id":"0.0-5.0-0.4","prolific_id":"63e57dfe078c526e4fb9d33f","session_id":"643c25060aea3a4939e3e03e","study_id":"64370a36d30bfa807bc7e43c","correct":true},{"rt":null,"stimulus":"\n\t\t\t\t\t<p>Correct!</p>\n\t\t\t\t\t","response":null,"trial_type":"html-keyboard-response","trial_index":136,"time_elapsed":995864,"internal_node_id":"0.0-5.0-1.4","prolific_id":"63e57dfe078c526e4fb9d33f","session_id":"643c25060aea3a4939e3e03e","study_id":"64370a36d30bfa807bc7e43c"},{"rt":2218,"stimulus":"\n\t\t\t\t\t\t<div class=\"two_card_container\">\n\t\t\t\t\t\t<div class=\"card_container\">\n\t\t\t\t\t\t<img src=img/39.png>\n\t\t\t\t\t\t</div>\n\n\t\t\t\t\t\t<div class=\"card_container\">\n\t\t\t\t\t\t<img src=img/30.png>\n\t\t\t\t\t\t</div>","response":"j","task":"response","correct_response":"j","trial_type":"html-keyboard-response","trial_index":137,"time_elapsed":998083,"internal_node_id":"0.0-5.0-0.5","prolific_id":"63e57dfe078c526e4fb9d33f","session_id":"643c25060aea3a4939e3e03e","study_id":"64370a36d30bfa807bc7e43c","correct":true},{"rt":null,"stimulus":"\n\t\t\t\t\t<p>Correct!</p>\n\t\t\t\t\t","response":null,"trial_type":"html-keyboard-response","trial_index":138,"time_elapsed":999100,"internal_node_id":"0.0-5.0-1.5","prolific_id":"63e57dfe078c526e4fb9d33f","session_id":"643c25060aea3a4939e3e03e","study_id":"64370a36d30bfa807bc7e43c"},{"rt":2533,"stimulus":"\n\t\t\t\t\t\t<div class=\"two_card_container\">\n\t\t\t\t\t\t<div class=\"card_container\">\n\t\t\t\t\t\t<img src=img/17.png>\n\t\t\t\t\t\t</div>\n\n\t\t\t\t\t\t<div class=\"card_container\">\n\t\t\t\t\t\t<img src=img/38.png>\n\t\t\t\t\t\t</div>","response":"j","task":"response","correct_response":"f","trial_type":"html-keyboard-response","trial_index":139,"time_elapsed":1001634,"internal_node_id":"0.0-5.0-0.6","prolific_id":"63e57dfe078c526e4fb9d33f","session_id":"643c25060aea3a4939e3e03e","study_id":"64370a36d30bfa807bc7e43c","correct":false},{"rt":null,"stimulus":"\n\t\t\t\t\t<p>Wrong answer</p>\n\t\t\t\t\t","response":null,"trial_type":"html-keyboard-response","trial_index":140,"time_elapsed":1002639,"internal_node_id":"0.0-5.0-1.6","prolific_id":"63e57dfe078c526e4fb9d33f","session_id":"643c25060aea3a4939e3e03e","study_id":"64370a36d30bfa807bc7e43c"},{"rt":1449,"stimulus":"\n\t\t\t\t\t\t<div class=\"two_card_container\">\n\t\t\t\t\t\t<div class=\"card_container\">\n\t\t\t\t\t\t<img src=img/32.png>\n\t\t\t\t\t\t</div>\n\n\t\t\t\t\t\t<div class=\"card_container\">\n\t\t\t\t\t\t<img src=img/1.png>\n\t\t\t\t\t\t</div>","response":"j","task":"response","correct_response":"j","trial_type":"html-keyboard-response","trial_index":141,"time_elapsed":1004089,"internal_node_id":"0.0-5.0-0.7","prolific_id":"63e57dfe078c526e4fb9d33f","session_id":"643c25060aea3a4939e3e03e","study_id":"64370a36d30bfa807bc7e43c","correct":true},{"rt":null,"stimulus":"\n\t\t\t\t\t<p>Correct!</p>\n\t\t\t\t\t","response":null,"trial_type":"html-keyboard-response","trial_index":142,"time_elapsed":1005092,"internal_node_id":"0.0-5.0-1.7","prolific_id":"63e57dfe078c526e4fb9d33f","session_id":"643c25060aea3a4939e3e03e","study_id":"64370a36d30bfa807bc7e43c"},{"rt":1637,"stimulus":"\n\t\t\t\t\t\t<div class=\"two_card_container\">\n\t\t\t\t\t\t<div class=\"card_container\">\n\t\t\t\t\t\t<img src=img/35.png>\n\t\t\t\t\t\t</div>\n\n\t\t\t\t\t\t<div class=\"card_container\">\n\t\t\t\t\t\t<img src=img/23.png>\n\t\t\t\t\t\t</div>","response":"j","task":"response","correct_response":"j","trial_type":"html-keyboard-response","trial_index":143,"time_elapsed":1006730,"internal_node_id":"0.0-5.0-0.8","prolific_id":"63e57dfe078c526e4fb9d33f","session_id":"643c25060aea3a4939e3e03e","study_id":"64370a36d30bfa807bc7e43c","correct":true},{"rt":null,"stimulus":"\n\t\t\t\t\t<p>Correct!</p>\n\t\t\t\t\t","response":null,"trial_type":"html-keyboard-response","trial_index":144,"time_elapsed":1007747,"internal_node_id":"0.0-5.0-1.8","prolific_id":"63e57dfe078c526e4fb9d33f","session_id":"643c25060aea3a4939e3e03e","study_id":"64370a36d30bfa807bc7e43c"},{"rt":1353,"stimulus":"\n\t\t\t\t\t\t<div class=\"two_card_container\">\n\t\t\t\t\t\t<div class=\"card_container\">\n\t\t\t\t\t\t<img src=img/26.png>\n\t\t\t\t\t\t</div>\n\n\t\t\t\t\t\t<div class=\"card_container\">\n\t\t\t\t\t\t<img src=img/31.png>\n\t\t\t\t\t\t</div>","response":"f","task":"response","correct_response":"f","trial_type":"html-keyboard-response","trial_index":145,"time_elapsed":1009102,"internal_node_id":"0.0-5.0-0.9","prolific_id":"63e57dfe078c526e4fb9d33f","session_id":"643c25060aea3a4939e3e03e","study_id":"64370a36d30bfa807bc7e43c","correct":true},{"rt":null,"stimulus":"\n\t\t\t\t\t<p>Correct!</p>\n\t\t\t\t\t","response":null,"trial_type":"html-keyboard-response","trial_index":146,"time_elapsed":1010111,"internal_node_id":"0.0-5.0-1.9","prolific_id":"63e57dfe078c526e4fb9d33f","session_id":"643c25060aea3a4939e3e03e","study_id":"64370a36d30bfa807bc7e43c"},{"rt":null,"stimulus":"\n\t\t\t<h2>Good job :p</h2>\n\t\t\t<p>In the next session, you will see a trivia question on the screen in each trial.</p>\n\t\t\t<p>Each of these trivia questions is chosen from the questions you have already seen in the first session of the experiment.</p><br>\n\t\t\t<p>Your task is to answer the trivia question based on what you remember as accurately as you can.</p>\n\t\t\t<p>Have fun!</p>\n\t\t\t<br>\n\t\t\t<p>The trials will begin in 30 seconds</p>\n\t\t\t","response":null,"trial_type":"html-keyboard-response","trial_index":147,"time_elapsed":1040126,"internal_node_id":"0.0-6.0","prolific_id":"63e57dfe078c526e4fb9d33f","session_id":"643c25060aea3a4939e3e03e","study_id":"64370a36d30bfa807bc7e43c"},{"rt":6406,"response":{"answer":"300"},"task":"response","correct_response":"300","trial_type":"survey-text","trial_index":148,"time_elapsed":1046537,"internal_node_id":"0.0-7.0-0.0","prolific_id":"63e57dfe078c526e4fb9d33f","session_id":"643c25060aea3a4939e3e03e","study_id":"64370a36d30bfa807bc7e43c","difference":0},{"rt":null,"stimulus":"<h2>The correct answer is 300.</h2><p>Your answer was different from the answer by 0.</p><p>You got the right answer. Amazing work!</p>","response":null,"trial_type":"html-keyboard-response","trial_index":149,"time_elapsed":1049059,"internal_node_id":"0.0-7.0-1.0","prolific_id":"63e57dfe078c526e4fb9d33f","session_id":"643c25060aea3a4939e3e03e","study_id":"64370a36d30bfa807bc7e43c"},{"rt":4840,"response":{"answer":"2007"},"task":"response","correct_response":"2007","trial_type":"survey-text","trial_index":150,"time_elapsed":1053901,"internal_node_id":"0.0-7.0-0.1","prolific_id":"63e57dfe078c526e4fb9d33f","session_id":"643c25060aea3a4939e3e03e","study_id":"64370a36d30bfa807bc7e43c","difference":0},{"rt":null,"stimulus":"<h2>The correct answer is 2007.</h2><p>Your answer was different from the answer by 0.</p><p>You got the right answer. Amazing work!</p>","response":null,"trial_type":"html-keyboard-response","trial_index":151,"time_elapsed":1056403,"internal_node_id":"0.0-7.0-1.1","prolific_id":"63e57dfe078c526e4fb9d33f","session_id":"643c25060aea3a4939e3e03e","study_id":"64370a36d30bfa807bc7e43c"},{"rt":2975,"response":{"answer":"57"},"task":"response","correct_response":"54","trial_type":"survey-text","trial_index":152,"time_elapsed":1059381,"internal_node_id":"0.0-7.0-0.2","prolific_id":"63e57dfe078c526e4fb9d33f","session_id":"643c25060aea3a4939e3e03e","study_id":"64370a36d30bfa807bc7e43c","difference":6},{"rt":null,"stimulus":"<h2>The correct answer is 54.</h2><p>Your answer was different from the answer by 3.</p><p>Excellent. Kudos to you!</p>","response":null,"trial_type":"html-keyboard-response","trial_index":153,"time_elapsed":1061886,"internal_node_id":"0.0-7.0-1.2","prolific_id":"63e57dfe078c526e4fb9d33f","session_id":"643c25060aea3a4939e3e03e","study_id":"64370a36d30bfa807bc7e43c"},{"rt":2608,"response":{"answer":"14"},"task":"response","correct_response":"14","trial_type":"survey-text","trial_index":154,"time_elapsed":1064498,"internal_node_id":"0.0-7.0-0.3","prolific_id":"63e57dfe078c526e4fb9d33f","session_id":"643c25060aea3a4939e3e03e","study_id":"64370a36d30bfa807bc7e43c","difference":0},{"rt":null,"stimulus":"<h2>The correct answer is 14.</h2><p>Your answer was different from the answer by 0.</p><p>You got the right answer. Amazing work!</p>","response":null,"trial_type":"html-keyboard-response","trial_index":155,"time_elapsed":1066999,"internal_node_id":"0.0-7.0-1.3","prolific_id":"63e57dfe078c526e4fb9d33f","session_id":"643c25060aea3a4939e3e03e","study_id":"64370a36d30bfa807bc7e43c"},{"rt":6953,"response":{"answer":"7217"},"task":"response","correct_response":"7917.5","trial_type":"survey-text","trial_index":156,"time_elapsed":1073956,"internal_node_id":"0.0-7.0-0.4","prolific_id":"63e57dfe078c526e4fb9d33f","session_id":"643c25060aea3a4939e3e03e","study_id":"64370a36d30bfa807bc7e43c","difference":9},{"rt":null,"stimulus":"<h2>The correct answer is 7917.5.</h2><p>Your answer was different from the answer by 700.5.</p><p>Excellent. Kudos to you!</p>","response":null,"trial_type":"html-keyboard-response","trial_index":157,"time_elapsed":1076473,"internal_node_id":"0.0-7.0-1.4","prolific_id":"63e57dfe078c526e4fb9d33f","session_id":"643c25060aea3a4939e3e03e","study_id":"64370a36d30bfa807bc7e43c"},{"rt":6277,"response":{"answer":"21"},"task":"response","correct_response":"21","trial_type":"survey-text","trial_index":158,"time_elapsed":1082754,"internal_node_id":"0.0-7.0-0.5","prolific_id":"63e57dfe078c526e4fb9d33f","session_id":"643c25060aea3a4939e3e03e","study_id":"64370a36d30bfa807bc7e43c","difference":0},{"rt":null,"stimulus":"<h2>The correct answer is 21.</h2><p>Your answer was different from the answer by 0.</p><p>You got the right answer. Amazing work!</p>","response":null,"trial_type":"html-keyboard-response","trial_index":159,"time_elapsed":1085261,"internal_node_id":"0.0-7.0-1.5","prolific_id":"63e57dfe078c526e4fb9d33f","session_id":"643c25060aea3a4939e3e03e","study_id":"64370a36d30bfa807bc7e43c"},{"rt":5752,"response":{"answer":"28"},"task":"response","correct_response":"28","trial_type":"survey-text","trial_index":160,"time_elapsed":1091017,"internal_node_id":"0.0-7.0-0.6","prolific_id":"63e57dfe078c526e4fb9d33f","session_id":"643c25060aea3a4939e3e03e","study_id":"64370a36d30bfa807bc7e43c","difference":0},{"rt":null,"stimulus":"<h2>The correct answer is 28.</h2><p>Your answer was different from the answer by 0.</p><p>You got the right answer. Amazing work!</p>","response":null,"trial_type":"html-keyboard-response","trial_index":161,"time_elapsed":1093523,"internal_node_id":"0.0-7.0-1.6","prolific_id":"63e57dfe078c526e4fb9d33f","session_id":"643c25060aea3a4939e3e03e","study_id":"64370a36d30bfa807bc7e43c"},{"rt":3035,"response":{"answer":"1989"},"task":"response","correct_response":"1989","trial_type":"survey-text","trial_index":162,"time_elapsed":1096561,"internal_node_id":"0.0-7.0-0.7","prolific_id":"63e57dfe078c526e4fb9d33f","session_id":"643c25060aea3a4939e3e03e","study_id":"64370a36d30bfa807bc7e43c","difference":0},{"rt":null,"stimulus":"<h2>The correct answer is 1989.</h2><p>Your answer was different from the answer by 0.</p><p>You got the right answer. Amazing work!</p>","response":null,"trial_type":"html-keyboard-response","trial_index":163,"time_elapsed":1099072,"internal_node_id":"0.0-7.0-1.7","prolific_id":"63e57dfe078c526e4fb9d33f","session_id":"643c25060aea3a4939e3e03e","study_id":"64370a36d30bfa807bc7e43c"},{"rt":4122,"response":{"answer":"163"},"task":"response","correct_response":"163","trial_type":"survey-text","trial_index":164,"time_elapsed":1103197,"internal_node_id":"0.0-7.0-0.8","prolific_id":"63e57dfe078c526e4fb9d33f","session_id":"643c25060aea3a4939e3e03e","study_id":"64370a36d30bfa807bc7e43c","difference":0},{"rt":null,"stimulus":"<h2>The correct answer is 163.</h2><p>Your answer was different from the answer by 0.</p><p>You got the right answer. Amazing work!</p>","response":null,"trial_type":"html-keyboard-response","trial_index":165,"time_elapsed":1105700,"internal_node_id":"0.0-7.0-1.8","prolific_id":"63e57dfe078c526e4fb9d33f","session_id":"643c25060aea3a4939e3e03e","study_id":"64370a36d30bfa807bc7e43c"},{"rt":5310,"response":{"answer":"31000"},"task":"response","correct_response":"13171","trial_type":"survey-text","trial_index":166,"time_elapsed":1111013,"internal_node_id":"0.0-7.0-0.9","prolific_id":"63e57dfe078c526e4fb9d33f","session_id":"643c25060aea3a4939e3e03e","study_id":"64370a36d30bfa807bc7e43c","difference":100},{"rt":null,"stimulus":"<h2>The correct answer is 13171.</h2><p>Your answer was different from the answer by 17829.</p><p>Not even close... do better next time!</p>","response":null,"trial_type":"html-keyboard-response","trial_index":167,"time_elapsed":1113514,"internal_node_id":"0.0-7.0-1.9","prolific_id":"63e57dfe078c526e4fb9d33f","session_id":"643c25060aea3a4939e3e03e","study_id":"64370a36d30bfa807bc7e43c"}]