[{"success":true,"timeout":false,"failed_images":[],"failed_audio":[],"failed_video":[],"trial_type":"preload","trial_index":0,"time_elapsed":418,"internal_node_id":"0.0-0.0","prolific_id":"63f034d521ee30d5ba770e4e","session_id":"643c314582da115c7d9a065e","study_id":"64370a36d30bfa807bc7e43c"},{"rt":5051,"stimulus":"\n\t\t\t\t\t<p>Welcome and thank you for participating in this study!</p>\n\t\t\t\t\t<p>In each trial, you will be given a trivia question and then be asked to:</p><br>\n\t\t\t\t\t<div class=\"list\">\n\t\t\t\t\t<p>1) Predict the answer</p>\n\t\t\t\t\t<p>2) Rate how much you already know about the topic</p>\n\t\t\t\t\t<p>3) Rate how much you want to know the answer</p>\n\t\t\t\t\t</div>\n\t\t\t\t\t<br>\n\t\t\t\t\t<p>Then, you will see a card that flips over to reveal the answer.</p>\n\t\t\t\t\t<br>\n\t\t\t\t\t<p>Let's try a practice round. Press <span style=\"color: red\"><strong>any key</strong></span> to move to the next slide</p>\n\t\t\t\t\t","response":" ","trial_type":"html-keyboard-response","trial_index":1,"time_elapsed":5469,"internal_node_id":"0.0-1.0","prolific_id":"63f034d521ee30d5ba770e4e","session_id":"643c314582da115c7d9a065e","study_id":"64370a36d30bfa807bc7e43c"},{"rt":5822,"response":{"practice prediction":"7"},"task":"practice","trial_type":"survey-text","trial_index":2,"time_elapsed":11298,"internal_node_id":"0.0-2.0-0.0","prolific_id":"63f034d521ee30d5ba770e4e","session_id":"643c314582da115c7d9a065e","study_id":"64370a36d30bfa807bc7e43c"},{"rt":3283,"response":{"practice":4},"accuracy":[],"trial_type":"survey","trial_index":3,"time_elapsed":14606,"internal_node_id":"0.0-2.0-1.0","prolific_id":"63f034d521ee30d5ba770e4e","session_id":"643c314582da115c7d9a065e","study_id":"64370a36d30bfa807bc7e43c"},{"rt":327,"stimulus":"\n\t\t\t\t<div class=\"flip_card\">\n\t\t\t\t\t<div class=\"flip_card_inner\">\n\t\t\t\t\t\t<div class=\"flip_card_front\">\n\t\t\t\t\t\t\t<img src=img/practice.png>\n\t\t\t\t\t\t</div>\n\t\t\t\t\t\t<div class=\"flip_card_back\">\n\t\t\t\t\t\t\t<h2>\"How many legs does a lobster have?\"</h2>\n\t\t\t\t\t\t    <br>\n\t\t\t\t\t\t    <p>Answer: <strong>\"10\"</strong></p>\n\t\t\t\t\t    </div>\n\t\t\t\t    </div>\n\t\t\t    </div>\n\t\t\t\t","response":"7","trial_type":"html-keyboard-response","trial_index":4,"time_elapsed":19609,"internal_node_id":"0.0-2.0-2.0","prolific_id":"63f034d521ee30d5ba770e4e","session_id":"643c314582da115c7d9a065e","study_id":"64370a36d30bfa807bc7e43c"},{"rt":3180,"stimulus":"\n\t\t\t\t\t<div>\n\t\t\t\t\t<h2>The practice round is over</h2>\n\t\t\t\t\t<p>Press <span style=\"color: red\"><strong>any key</strong></span> to continue to the actual trials</p>\n\t\t\t\t\t<p>Good Luck!</p>\n\t\t\t\t\t</div>\n\t\t\t\t\t","response":" ","trial_type":"html-keyboard-response","trial_index":5,"time_elapsed":22790,"internal_node_id":"0.0-2.0-3.0","prolific_id":"63f034d521ee30d5ba770e4e","session_id":"643c314582da115c7d9a065e","study_id":"64370a36d30bfa807bc7e43c"},{"rt":4241,"response":{"prediction":"13"},"trial_type":"survey-text","trial_index":6,"time_elapsed":27034,"internal_node_id":"0.0-3.0-0.0","prolific_id":"63f034d521ee30d5ba770e4e","session_id":"643c314582da115c7d9a065e","study_id":"64370a36d30bfa807bc7e43c"},{"rt":4001,"response":{"prior knowledge":4,"curiosity":5},"accuracy":[],"trial_type":"survey","trial_index":7,"time_elapsed":31047,"internal_node_id":"0.0-3.0-1.0","prolific_id":"63f034d521ee30d5ba770e4e","session_id":"643c314582da115c7d9a065e","study_id":"64370a36d30bfa807bc7e43c"},{"rt":null,"stimulus":"\n\t\t\t<div class=\"flip_card\">\n\t\t\t\t<div class=\"flip_card_inner\">\n\t\t\t\t\t<div class=\"flip_card_front\">\n\t\t\t\t\t\t<img src=img/8.png>\n\t\t\t\t\t</div>\n\t\t\t\t\t<div class=\"flip_card_back\">\n\t\t\t\t\t\t<h2>A bar mitzvah is traditionally celebrated when Jewish males turn what age?</h2>\n\t\t\t\t\t\t<br>\n\t\t\t\t\t\t<p>Answer: <strong>13</strong></p>\n\t\t\t\t\t</div>\n\t\t\t\t</div>\n\t\t\t</div>\n\t\t\t","response":null,"trial_type":"html-keyboard-response","trial_index":8,"time_elapsed":36059,"internal_node_id":"0.0-3.0-2.0","prolific_id":"63f034d521ee30d5ba770e4e","session_id":"643c314582da115c7d9a065e","study_id":"64370a36d30bfa807bc7e43c"},{"rt":946,"stimulus":"\n\t\t\t\t\t<div>\n\t\t\t\t\t<h2>Trial 1 is over</h2>\n\t\t\t\t\t<p>Press <span style=\"color: red\"><strong>any key</strong></span> to continue to the next trial</p>\n\t\t\t\t\t</div>\n\t\t\t\t","response":" ","trial_type":"html-keyboard-response","trial_index":9,"time_elapsed":37006,"internal_node_id":"0.0-3.0-3.0","prolific_id":"63f034d521ee30d5ba770e4e","session_id":"643c314582da115c7d9a065e","study_id":"64370a36d30bfa807bc7e43c"},{"rt":3418,"response":{"prediction":"54"},"trial_type":"survey-text","trial_index":10,"time_elapsed":40426,"internal_node_id":"0.0-3.0-0.1","prolific_id":"63f034d521ee30d5ba770e4e","session_id":"643c314582da115c7d9a065e","study_id":"64370a36d30bfa807bc7e43c"},{"rt":3617,"response":{"prior knowledge":2,"curiosity":5},"accuracy":[],"trial_type":"survey","trial_index":11,"time_elapsed":44060,"internal_node_id":"0.0-3.0-1.1","prolific_id":"63f034d521ee30d5ba770e4e","session_id":"643c314582da115c7d9a065e","study_id":"64370a36d30bfa807bc7e43c"},{"rt":null,"stimulus":"\n\t\t\t<div class=\"flip_card\">\n\t\t\t\t<div class=\"flip_card_inner\">\n\t\t\t\t\t<div class=\"flip_card_front\">\n\t\t\t\t\t\t<img src=img/9.png>\n\t\t\t\t\t</div>\n\t\t\t\t\t<div class=\"flip_card_back\">\n\t\t\t\t\t\t<h2>How many countries are in Africa?</h2>\n\t\t\t\t\t\t<br>\n\t\t\t\t\t\t<p>Answer: <strong>54</strong></p>\n\t\t\t\t\t</div>\n\t\t\t\t</div>\n\t\t\t</div>\n\t\t\t","response":null,"trial_type":"html-keyboard-response","trial_index":12,"time_elapsed":49062,"internal_node_id":"0.0-3.0-2.1","prolific_id":"63f034d521ee30d5ba770e4e","session_id":"643c314582da115c7d9a065e","study_id":"64370a36d30bfa807bc7e43c"},{"rt":903,"stimulus":"\n\t\t\t\t\t<div>\n\t\t\t\t\t<h2>Trial 2 is over</h2>\n\t\t\t\t\t<p>Press <span style=\"color: red\"><strong>any key</strong></span> to continue to the next trial</p>\n\t\t\t\t\t</div>\n\t\t\t\t","response":" ","trial_type":"html-keyboard-response","trial_index":13,"time_elapsed":49966,"internal_node_id":"0.0-3.0-3.1","prolific_id":"63f034d521ee30d5ba770e4e","session_id":"643c314582da115c7d9a065e","study_id":"64370a36d30bfa807bc7e43c"},{"rt":8134,"response":{"prediction":"1909"},"trial_type":"survey-text","trial_index":14,"time_elapsed":58101,"internal_node_id":"0.0-3.0-0.2","prolific_id":"63f034d521ee30d5ba770e4e","session_id":"643c314582da115c7d9a065e","study_id":"64370a36d30bfa807bc7e43c"},{"rt":3519,"response":{"prior knowledge":4,"curiosity":5},"accuracy":[],"trial_type":"survey","trial_index":15,"time_elapsed":61631,"internal_node_id":"0.0-3.0-1.2","prolific_id":"63f034d521ee30d5ba770e4e","session_id":"643c314582da115c7d9a065e","study_id":"64370a36d30bfa807bc7e43c"},{"rt":null,"stimulus":"\n\t\t\t<div class=\"flip_card\">\n\t\t\t\t<div class=\"flip_card_inner\">\n\t\t\t\t\t<div class=\"flip_card_front\">\n\t\t\t\t\t\t<img src=img/21.png>\n\t\t\t\t\t</div>\n\t\t\t\t\t<div class=\"flip_card_back\">\n\t\t\t\t\t\t<h2>In what year was the first Nobel Prize awarded?</h2>\n\t\t\t\t\t\t<br>\n\t\t\t\t\t\t<p>Answer: <strong>1901</strong></p>\n\t\t\t\t\t</div>\n\t\t\t\t</div>\n\t\t\t</div>\n\t\t\t","response":null,"trial_type":"html-keyboard-response","trial_index":16,"time_elapsed":66633,"internal_node_id":"0.0-3.0-2.2","prolific_id":"63f034d521ee30d5ba770e4e","session_id":"643c314582da115c7d9a065e","study_id":"64370a36d30bfa807bc7e43c"},{"rt":156,"stimulus":"\n\t\t\t\t\t<div>\n\t\t\t\t\t<h2>Trial 3 is over</h2>\n\t\t\t\t\t<p>Press <span style=\"color: red\"><strong>any key</strong></span> to continue to the next trial</p>\n\t\t\t\t\t</div>\n\t\t\t\t","response":" ","trial_type":"html-keyboard-response","trial_index":17,"time_elapsed":66790,"internal_node_id":"0.0-3.0-3.2","prolific_id":"63f034d521ee30d5ba770e4e","session_id":"643c314582da115c7d9a065e","study_id":"64370a36d30bfa807bc7e43c"},{"rt":4094,"response":{"prediction":"13"},"trial_type":"survey-text","trial_index":18,"time_elapsed":70885,"internal_node_id":"0.0-3.0-0.3","prolific_id":"63f034d521ee30d5ba770e4e","session_id":"643c314582da115c7d9a065e","study_id":"64370a36d30bfa807bc7e43c"},{"rt":2856,"response":{"prior knowledge":4,"curiosity":5},"accuracy":[],"trial_type":"survey","trial_index":19,"time_elapsed":73752,"internal_node_id":"0.0-3.0-1.3","prolific_id":"63f034d521ee30d5ba770e4e","session_id":"643c314582da115c7d9a065e","study_id":"64370a36d30bfa807bc7e43c"},{"rt":null,"stimulus":"\n\t\t\t<div class=\"flip_card\">\n\t\t\t\t<div class=\"flip_card_inner\">\n\t\t\t\t\t<div class=\"flip_card_front\">\n\t\t\t\t\t\t<img src=img/6.png>\n\t\t\t\t\t</div>\n\t\t\t\t\t<div class=\"flip_card_back\">\n\t\t\t\t\t\t<h2>How much is in a Baker's Dozen?</h2>\n\t\t\t\t\t\t<br>\n\t\t\t\t\t\t<p>Answer: <strong>13</strong></p>\n\t\t\t\t\t</div>\n\t\t\t\t</div>\n\t\t\t</div>\n\t\t\t","response":null,"trial_type":"html-keyboard-response","trial_index":20,"time_elapsed":78766,"internal_node_id":"0.0-3.0-2.3","prolific_id":"63f034d521ee30d5ba770e4e","session_id":"643c314582da115c7d9a065e","study_id":"64370a36d30bfa807bc7e43c"},{"rt":127,"stimulus":"\n\t\t\t\t\t<div>\n\t\t\t\t\t<h2>Trial 4 is over</h2>\n\t\t\t\t\t<p>Press <span style=\"color: red\"><strong>any key</strong></span> to continue to the next trial</p>\n\t\t\t\t\t</div>\n\t\t\t\t","response":" ","trial_type":"html-keyboard-response","trial_index":21,"time_elapsed":78894,"internal_node_id":"0.0-3.0-3.3","prolific_id":"63f034d521ee30d5ba770e4e","session_id":"643c314582da115c7d9a065e","study_id":"64370a36d30bfa807bc7e43c"},{"rt":3441,"response":{"prediction":"4"},"trial_type":"survey-text","trial_index":22,"time_elapsed":82337,"internal_node_id":"0.0-3.0-0.4","prolific_id":"63f034d521ee30d5ba770e4e","session_id":"643c314582da115c7d9a065e","study_id":"64370a36d30bfa807bc7e43c"},{"rt":3270,"response":{"prior knowledge":4,"curiosity":5},"accuracy":[],"trial_type":"survey","trial_index":23,"time_elapsed":85619,"internal_node_id":"0.0-3.0-1.4","prolific_id":"63f034d521ee30d5ba770e4e","session_id":"643c314582da115c7d9a065e","study_id":"64370a36d30bfa807bc7e43c"},{"rt":null,"stimulus":"\n\t\t\t<div class=\"flip_card\">\n\t\t\t\t<div class=\"flip_card_inner\">\n\t\t\t\t\t<div class=\"flip_card_front\">\n\t\t\t\t\t\t<img src=img/26.png>\n\t\t\t\t\t</div>\n\t\t\t\t\t<div class=\"flip_card_back\">\n\t\t\t\t\t\t<h2>How many tones are in the Vietnamese language?</h2>\n\t\t\t\t\t\t<br>\n\t\t\t\t\t\t<p>Answer: <strong>6</strong></p>\n\t\t\t\t\t</div>\n\t\t\t\t</div>\n\t\t\t</div>\n\t\t\t","response":null,"trial_type":"html-keyboard-response","trial_index":24,"time_elapsed":90624,"internal_node_id":"0.0-3.0-2.4","prolific_id":"63f034d521ee30d5ba770e4e","session_id":"643c314582da115c7d9a065e","study_id":"64370a36d30bfa807bc7e43c"},{"rt":108,"stimulus":"\n\t\t\t\t\t<div>\n\t\t\t\t\t<h2>Trial 5 is over</h2>\n\t\t\t\t\t<p>Press <span style=\"color: red\"><strong>any key</strong></span> to continue to the next trial</p>\n\t\t\t\t\t</div>\n\t\t\t\t","response":" ","trial_type":"html-keyboard-response","trial_index":25,"time_elapsed":90732,"internal_node_id":"0.0-3.0-3.4","prolific_id":"63f034d521ee30d5ba770e4e","session_id":"643c314582da115c7d9a065e","study_id":"64370a36d30bfa807bc7e43c"},{"rt":6328,"response":{"prediction":"19004"},"trial_type":"survey-text","trial_index":26,"time_elapsed":97063,"internal_node_id":"0.0-3.0-0.5","prolific_id":"63f034d521ee30d5ba770e4e","session_id":"643c314582da115c7d9a065e","study_id":"64370a36d30bfa807bc7e43c"},{"rt":4090,"response":{"prior knowledge":1,"curiosity":4},"accuracy":[],"trial_type":"survey","trial_index":27,"time_elapsed":101163,"internal_node_id":"0.0-3.0-1.5","prolific_id":"63f034d521ee30d5ba770e4e","session_id":"643c314582da115c7d9a065e","study_id":"64370a36d30bfa807bc7e43c"},{"rt":null,"stimulus":"\n\t\t\t<div class=\"flip_card\">\n\t\t\t\t<div class=\"flip_card_inner\">\n\t\t\t\t\t<div class=\"flip_card_front\">\n\t\t\t\t\t\t<img src=img/1.png>\n\t\t\t\t\t</div>\n\t\t\t\t\t<div class=\"flip_card_back\">\n\t\t\t\t\t\t<h2>In what year did the first Modern Olympic Games take place?</h2>\n\t\t\t\t\t\t<br>\n\t\t\t\t\t\t<p>Answer: <strong>1896</strong></p>\n\t\t\t\t\t</div>\n\t\t\t\t</div>\n\t\t\t</div>\n\t\t\t","response":null,"trial_type":"html-keyboard-response","trial_index":28,"time_elapsed":106165,"internal_node_id":"0.0-3.0-2.5","prolific_id":"63f034d521ee30d5ba770e4e","session_id":"643c314582da115c7d9a065e","study_id":"64370a36d30bfa807bc7e43c"},{"rt":351,"stimulus":"\n\t\t\t\t\t<div>\n\t\t\t\t\t<h2>Trial 6 is over</h2>\n\t\t\t\t\t<p>Press <span style=\"color: red\"><strong>any key</strong></span> to continue to the next trial</p>\n\t\t\t\t\t</div>\n\t\t\t\t","response":" ","trial_type":"html-keyboard-response","trial_index":29,"time_elapsed":106517,"internal_node_id":"0.0-3.0-3.5","prolific_id":"63f034d521ee30d5ba770e4e","session_id":"643c314582da115c7d9a065e","study_id":"64370a36d30bfa807bc7e43c"},{"rt":3663,"response":{"prediction":"4"},"trial_type":"survey-text","trial_index":30,"time_elapsed":110182,"internal_node_id":"0.0-3.0-0.6","prolific_id":"63f034d521ee30d5ba770e4e","session_id":"643c314582da115c7d9a065e","study_id":"64370a36d30bfa807bc7e43c"},{"rt":2999,"response":{"prior knowledge":3,"curiosity":4},"accuracy":[],"trial_type":"survey","trial_index":31,"time_elapsed":113193,"internal_node_id":"0.0-3.0-1.6","prolific_id":"63f034d521ee30d5ba770e4e","session_id":"643c314582da115c7d9a065e","study_id":"64370a36d30bfa807bc7e43c"},{"rt":null,"stimulus":"\n\t\t\t<div class=\"flip_card\">\n\t\t\t\t<div class=\"flip_card_inner\">\n\t\t\t\t\t<div class=\"flip_card_front\">\n\t\t\t\t\t\t<img src=img/18.png>\n\t\t\t\t\t</div>\n\t\t\t\t\t<div class=\"flip_card_back\">\n\t\t\t\t\t\t<h2>How many times a day do Muslims pray?</h2>\n\t\t\t\t\t\t<br>\n\t\t\t\t\t\t<p>Answer: <strong>5</strong></p>\n\t\t\t\t\t</div>\n\t\t\t\t</div>\n\t\t\t</div>\n\t\t\t","response":null,"trial_type":"html-keyboard-response","trial_index":32,"time_elapsed":118206,"internal_node_id":"0.0-3.0-2.6","prolific_id":"63f034d521ee30d5ba770e4e","session_id":"643c314582da115c7d9a065e","study_id":"64370a36d30bfa807bc7e43c"},{"rt":749,"stimulus":"\n\t\t\t\t\t<div>\n\t\t\t\t\t<h2>Trial 7 is over</h2>\n\t\t\t\t\t<p>Press <span style=\"color: red\"><strong>any key</strong></span> to continue to the next trial</p>\n\t\t\t\t\t</div>\n\t\t\t\t","response":" ","trial_type":"html-keyboard-response","trial_index":33,"time_elapsed":118956,"internal_node_id":"0.0-3.0-3.6","prolific_id":"63f034d521ee30d5ba770e4e","session_id":"643c314582da115c7d9a065e","study_id":"64370a36d30bfa807bc7e43c"},{"rt":3706,"response":{"prediction":"73"},"trial_type":"survey-text","trial_index":34,"time_elapsed":122664,"internal_node_id":"0.0-3.0-0.7","prolific_id":"63f034d521ee30d5ba770e4e","session_id":"643c314582da115c7d9a065e","study_id":"64370a36d30bfa807bc7e43c"},{"rt":2841,"response":{"prior knowledge":3,"curiosity":5},"accuracy":[],"trial_type":"survey","trial_index":35,"time_elapsed":125516,"internal_node_id":"0.0-3.0-1.7","prolific_id":"63f034d521ee30d5ba770e4e","session_id":"643c314582da115c7d9a065e","study_id":"64370a36d30bfa807bc7e43c"},{"rt":null,"stimulus":"\n\t\t\t<div class=\"flip_card\">\n\t\t\t\t<div class=\"flip_card_inner\">\n\t\t\t\t\t<div class=\"flip_card_front\">\n\t\t\t\t\t\t<img src=img/27.png>\n\t\t\t\t\t</div>\n\t\t\t\t\t<div class=\"flip_card_back\">\n\t\t\t\t\t\t<h2>How many books are in the Catholic Bible?</h2>\n\t\t\t\t\t\t<br>\n\t\t\t\t\t\t<p>Answer: <strong>73</strong></p>\n\t\t\t\t\t</div>\n\t\t\t\t</div>\n\t\t\t</div>\n\t\t\t","response":null,"trial_type":"html-keyboard-response","trial_index":36,"time_elapsed":130522,"internal_node_id":"0.0-3.0-2.7","prolific_id":"63f034d521ee30d5ba770e4e","session_id":"643c314582da115c7d9a065e","study_id":"64370a36d30bfa807bc7e43c"},{"rt":474,"stimulus":"\n\t\t\t\t\t<div>\n\t\t\t\t\t<h2>Trial 8 is over</h2>\n\t\t\t\t\t<p>Press <span style=\"color: red\"><strong>any key</strong></span> to continue to the next trial</p>\n\t\t\t\t\t</div>\n\t\t\t\t","response":" ","trial_type":"html-keyboard-response","trial_index":37,"time_elapsed":130997,"internal_node_id":"0.0-3.0-3.7","prolific_id":"63f034d521ee30d5ba770e4e","session_id":"643c314582da115c7d9a065e","study_id":"64370a36d30bfa807bc7e43c"},{"rt":5938,"response":{"prediction":"2004"},"trial_type":"survey-text","trial_index":38,"time_elapsed":136937,"internal_node_id":"0.0-3.0-0.8","prolific_id":"63f034d521ee30d5ba770e4e","session_id":"643c314582da115c7d9a065e","study_id":"64370a36d30bfa807bc7e43c"},{"rt":3216,"response":{"prior knowledge":4,"curiosity":5},"accuracy":[],"trial_type":"survey","trial_index":39,"time_elapsed":140164,"internal_node_id":"0.0-3.0-1.8","prolific_id":"63f034d521ee30d5ba770e4e","session_id":"643c314582da115c7d9a065e","study_id":"64370a36d30bfa807bc7e43c"},{"rt":null,"stimulus":"\n\t\t\t<div class=\"flip_card\">\n\t\t\t\t<div class=\"flip_card_inner\">\n\t\t\t\t\t<div class=\"flip_card_front\">\n\t\t\t\t\t\t<img src=img/29.png>\n\t\t\t\t\t</div>\n\t\t\t\t\t<div class=\"flip_card_back\">\n\t\t\t\t\t\t<h2>What year was the very first model of the iPhone released?</h2>\n\t\t\t\t\t\t<br>\n\t\t\t\t\t\t<p>Answer: <strong>2007</strong></p>\n\t\t\t\t\t</div>\n\t\t\t\t</div>\n\t\t\t</div>\n\t\t\t","response":null,"trial_type":"html-keyboard-response","trial_index":40,"time_elapsed":145178,"internal_node_id":"0.0-3.0-2.8","prolific_id":"63f034d521ee30d5ba770e4e","session_id":"643c314582da115c7d9a065e","study_id":"64370a36d30bfa807bc7e43c"},{"rt":682,"stimulus":"\n\t\t\t\t\t<div>\n\t\t\t\t\t<h2>Trial 9 is over</h2>\n\t\t\t\t\t<p>Press <span style=\"color: red\"><strong>any key</strong></span> to continue to the next trial</p>\n\t\t\t\t\t</div>\n\t\t\t\t","response":" ","trial_type":"html-keyboard-response","trial_index":41,"time_elapsed":145861,"internal_node_id":"0.0-3.0-3.8","prolific_id":"63f034d521ee30d5ba770e4e","session_id":"643c314582da115c7d9a065e","study_id":"64370a36d30bfa807bc7e43c"},{"rt":5202,"response":{"prediction":"55"},"trial_type":"survey-text","trial_index":42,"time_elapsed":151064,"internal_node_id":"0.0-3.0-0.9","prolific_id":"63f034d521ee30d5ba770e4e","session_id":"643c314582da115c7d9a065e","study_id":"64370a36d30bfa807bc7e43c"},{"rt":3209,"response":{"prior knowledge":2,"curiosity":4},"accuracy":[],"trial_type":"survey","trial_index":43,"time_elapsed":154283,"internal_node_id":"0.0-3.0-1.9","prolific_id":"63f034d521ee30d5ba770e4e","session_id":"643c314582da115c7d9a065e","study_id":"64370a36d30bfa807bc7e43c"},{"rt":null,"stimulus":"\n\t\t\t<div class=\"flip_card\">\n\t\t\t\t<div class=\"flip_card_inner\">\n\t\t\t\t\t<div class=\"flip_card_front\">\n\t\t\t\t\t\t<img src=img/7.png>\n\t\t\t\t\t</div>\n\t\t\t\t\t<div class=\"flip_card_back\">\n\t\t\t\t\t\t<h2>How many double stitches does a baseball have?</h2>\n\t\t\t\t\t\t<br>\n\t\t\t\t\t\t<p>Answer: <strong>108</strong></p>\n\t\t\t\t\t</div>\n\t\t\t\t</div>\n\t\t\t</div>\n\t\t\t","response":null,"trial_type":"html-keyboard-response","trial_index":44,"time_elapsed":159286,"internal_node_id":"0.0-3.0-2.9","prolific_id":"63f034d521ee30d5ba770e4e","session_id":"643c314582da115c7d9a065e","study_id":"64370a36d30bfa807bc7e43c"},{"rt":734,"stimulus":"\n\t\t\t\t\t<div>\n\t\t\t\t\t<h2>Trial 10 is over</h2>\n\t\t\t\t\t<p>Press <span style=\"color: red\"><strong>any key</strong></span> to continue to the next trial</p>\n\t\t\t\t\t</div>\n\t\t\t\t","response":" ","trial_type":"html-keyboard-response","trial_index":45,"time_elapsed":160020,"internal_node_id":"0.0-3.0-3.9","prolific_id":"63f034d521ee30d5ba770e4e","session_id":"643c314582da115c7d9a065e","study_id":"64370a36d30bfa807bc7e43c"},{"rt":5915,"response":{"prediction":"13777"},"trial_type":"survey-text","trial_index":46,"time_elapsed":165937,"internal_node_id":"0.0-3.0-0.10","prolific_id":"63f034d521ee30d5ba770e4e","session_id":"643c314582da115c7d9a065e","study_id":"64370a36d30bfa807bc7e43c"},{"rt":3968,"response":{"prior knowledge":2,"curiosity":5},"accuracy":[],"trial_type":"survey","trial_index":47,"time_elapsed":169916,"internal_node_id":"0.0-3.0-1.10","prolific_id":"63f034d521ee30d5ba770e4e","session_id":"643c314582da115c7d9a065e","study_id":"64370a36d30bfa807bc7e43c"},{"rt":null,"stimulus":"\n\t\t\t<div class=\"flip_card\">\n\t\t\t\t<div class=\"flip_card_inner\">\n\t\t\t\t\t<div class=\"flip_card_front\">\n\t\t\t\t\t\t<img src=img/11.png>\n\t\t\t\t\t</div>\n\t\t\t\t\t<div class=\"flip_card_back\">\n\t\t\t\t\t\t<h2>What is the diameter of Earth in miles?</h2>\n\t\t\t\t\t\t<br>\n\t\t\t\t\t\t<p>Answer: <strong>7917.5</strong></p>\n\t\t\t\t\t</div>\n\t\t\t\t</div>\n\t\t\t</div>\n\t\t\t","response":null,"trial_type":"html-keyboard-response","trial_index":48,"time_elapsed":174929,"internal_node_id":"0.0-3.0-2.10","prolific_id":"63f034d521ee30d5ba770e4e","session_id":"643c314582da115c7d9a065e","study_id":"64370a36d30bfa807bc7e43c"},{"rt":695,"stimulus":"\n\t\t\t\t\t<div>\n\t\t\t\t\t<h2>Trial 11 is over</h2>\n\t\t\t\t\t<p>Press <span style=\"color: red\"><strong>any key</strong></span> to continue to the next trial</p>\n\t\t\t\t\t</div>\n\t\t\t\t","response":" ","trial_type":"html-keyboard-response","trial_index":49,"time_elapsed":175625,"internal_node_id":"0.0-3.0-3.10","prolific_id":"63f034d521ee30d5ba770e4e","session_id":"643c314582da115c7d9a065e","study_id":"64370a36d30bfa807bc7e43c"},{"rt":3064,"response":{"prediction":"4"},"trial_type":"survey-text","trial_index":50,"time_elapsed":178691,"internal_node_id":"0.0-3.0-0.11","prolific_id":"63f034d521ee30d5ba770e4e","session_id":"643c314582da115c7d9a065e","study_id":"64370a36d30bfa807bc7e43c"},{"rt":3072,"response":{"prior knowledge":5,"curiosity":5},"accuracy":[],"trial_type":"survey","trial_index":51,"time_elapsed":181775,"internal_node_id":"0.0-3.0-1.11","prolific_id":"63f034d521ee30d5ba770e4e","session_id":"643c314582da115c7d9a065e","study_id":"64370a36d30bfa807bc7e43c"},{"rt":null,"stimulus":"\n\t\t\t<div class=\"flip_card\">\n\t\t\t\t<div class=\"flip_card_inner\">\n\t\t\t\t\t<div class=\"flip_card_front\">\n\t\t\t\t\t\t<img src=img/28.png>\n\t\t\t\t\t</div>\n\t\t\t\t\t<div class=\"flip_card_back\">\n\t\t\t\t\t\t<h2>How many main islands make up Japan?</h2>\n\t\t\t\t\t\t<br>\n\t\t\t\t\t\t<p>Answer: <strong>4</strong></p>\n\t\t\t\t\t</div>\n\t\t\t\t</div>\n\t\t\t</div>\n\t\t\t","response":null,"trial_type":"html-keyboard-response","trial_index":52,"time_elapsed":186785,"internal_node_id":"0.0-3.0-2.11","prolific_id":"63f034d521ee30d5ba770e4e","session_id":"643c314582da115c7d9a065e","study_id":"64370a36d30bfa807bc7e43c"},{"rt":123,"stimulus":"\n\t\t\t\t\t<div>\n\t\t\t\t\t<h2>Trial 12 is over</h2>\n\t\t\t\t\t<p>Press <span style=\"color: red\"><strong>any key</strong></span> to continue to the next trial</p>\n\t\t\t\t\t</div>\n\t\t\t\t","response":" ","trial_type":"html-keyboard-response","trial_index":53,"time_elapsed":186909,"internal_node_id":"0.0-3.0-3.11","prolific_id":"63f034d521ee30d5ba770e4e","session_id":"643c314582da115c7d9a065e","study_id":"64370a36d30bfa807bc7e43c"},{"rt":5899,"response":{"prediction":"13766"},"trial_type":"survey-text","trial_index":54,"time_elapsed":192809,"internal_node_id":"0.0-3.0-0.12","prolific_id":"63f034d521ee30d5ba770e4e","session_id":"643c314582da115c7d9a065e","study_id":"64370a36d30bfa807bc7e43c"},{"rt":3483,"response":{"prior knowledge":3,"curiosity":5},"accuracy":[],"trial_type":"survey","trial_index":55,"time_elapsed":196303,"internal_node_id":"0.0-3.0-1.12","prolific_id":"63f034d521ee30d5ba770e4e","session_id":"643c314582da115c7d9a065e","study_id":"64370a36d30bfa807bc7e43c"},{"rt":null,"stimulus":"\n\t\t\t<div class=\"flip_card\">\n\t\t\t\t<div class=\"flip_card_inner\">\n\t\t\t\t\t<div class=\"flip_card_front\">\n\t\t\t\t\t\t<img src=img/13.png>\n\t\t\t\t\t</div>\n\t\t\t\t\t<div class=\"flip_card_back\">\n\t\t\t\t\t\t<h2>How long is the Great Wall of China (in miles)?</h2>\n\t\t\t\t\t\t<br>\n\t\t\t\t\t\t<p>Answer: <strong>13171</strong></p>\n\t\t\t\t\t</div>\n\t\t\t\t</div>\n\t\t\t</div>\n\t\t\t","response":null,"trial_type":"html-keyboard-response","trial_index":56,"time_elapsed":201304,"internal_node_id":"0.0-3.0-2.12","prolific_id":"63f034d521ee30d5ba770e4e","session_id":"643c314582da115c7d9a065e","study_id":"64370a36d30bfa807bc7e43c"},{"rt":964,"stimulus":"\n\t\t\t\t\t<div>\n\t\t\t\t\t<h2>Trial 13 is over</h2>\n\t\t\t\t\t<p>Press <span style=\"color: red\"><strong>any key</strong></span> to continue to the next trial</p>\n\t\t\t\t\t</div>\n\t\t\t\t","response":" ","trial_type":"html-keyboard-response","trial_index":57,"time_elapsed":202269,"internal_node_id":"0.0-3.0-3.12","prolific_id":"63f034d521ee30d5ba770e4e","session_id":"643c314582da115c7d9a065e","study_id":"64370a36d30bfa807bc7e43c"},{"rt":5265,"response":{"prediction":"14"},"trial_type":"survey-text","trial_index":58,"time_elapsed":207536,"internal_node_id":"0.0-3.0-0.13","prolific_id":"63f034d521ee30d5ba770e4e","session_id":"643c314582da115c7d9a065e","study_id":"64370a36d30bfa807bc7e43c"},{"rt":4613,"response":{"prior knowledge":3,"curiosity":5},"accuracy":[],"trial_type":"survey","trial_index":59,"time_elapsed":212159,"internal_node_id":"0.0-3.0-1.13","prolific_id":"63f034d521ee30d5ba770e4e","session_id":"643c314582da115c7d9a065e","study_id":"64370a36d30bfa807bc7e43c"},{"rt":null,"stimulus":"\n\t\t\t<div class=\"flip_card\">\n\t\t\t\t<div class=\"flip_card_inner\">\n\t\t\t\t\t<div class=\"flip_card_front\">\n\t\t\t\t\t\t<img src=img/2.png>\n\t\t\t\t\t</div>\n\t\t\t\t\t<div class=\"flip_card_back\">\n\t\t\t\t\t\t<h2>How many moons does Neptune have?</h2>\n\t\t\t\t\t\t<br>\n\t\t\t\t\t\t<p>Answer: <strong>14</strong></p>\n\t\t\t\t\t</div>\n\t\t\t\t</div>\n\t\t\t</div>\n\t\t\t","response":null,"trial_type":"html-keyboard-response","trial_index":60,"time_elapsed":217167,"internal_node_id":"0.0-3.0-2.13","prolific_id":"63f034d521ee30d5ba770e4e","session_id":"643c314582da115c7d9a065e","study_id":"64370a36d30bfa807bc7e43c"},{"rt":30,"stimulus":"\n\t\t\t\t\t<div>\n\t\t\t\t\t<h2>Trial 14 is over</h2>\n\t\t\t\t\t<p>Press <span style=\"color: red\"><strong>any key</strong></span> to continue to the next trial</p>\n\t\t\t\t\t</div>\n\t\t\t\t","response":" ","trial_type":"html-keyboard-response","trial_index":61,"time_elapsed":217197,"internal_node_id":"0.0-3.0-3.13","prolific_id":"63f034d521ee30d5ba770e4e","session_id":"643c314582da115c7d9a065e","study_id":"64370a36d30bfa807bc7e43c"},{"rt":5558,"response":{"prediction":"88"},"trial_type":"survey-text","trial_index":62,"time_elapsed":222757,"internal_node_id":"0.0-3.0-0.14","prolific_id":"63f034d521ee30d5ba770e4e","session_id":"643c314582da115c7d9a065e","study_id":"64370a36d30bfa807bc7e43c"},{"rt":2777,"response":{"prior knowledge":4,"curiosity":5},"accuracy":[],"trial_type":"survey","trial_index":63,"time_elapsed":225546,"internal_node_id":"0.0-3.0-1.14","prolific_id":"63f034d521ee30d5ba770e4e","session_id":"643c314582da115c7d9a065e","study_id":"64370a36d30bfa807bc7e43c"},{"rt":null,"stimulus":"\n\t\t\t<div class=\"flip_card\">\n\t\t\t\t<div class=\"flip_card_inner\">\n\t\t\t\t\t<div class=\"flip_card_front\">\n\t\t\t\t\t\t<img src=img/3.png>\n\t\t\t\t\t</div>\n\t\t\t\t\t<div class=\"flip_card_back\">\n\t\t\t\t\t\t<h2>How many constellations are there?</h2>\n\t\t\t\t\t\t<br>\n\t\t\t\t\t\t<p>Answer: <strong>88</strong></p>\n\t\t\t\t\t</div>\n\t\t\t\t</div>\n\t\t\t</div>\n\t\t\t","response":null,"trial_type":"html-keyboard-response","trial_index":64,"time_elapsed":230548,"internal_node_id":"0.0-3.0-2.14","prolific_id":"63f034d521ee30d5ba770e4e","session_id":"643c314582da115c7d9a065e","study_id":"64370a36d30bfa807bc7e43c"},{"rt":659,"stimulus":"\n\t\t\t\t\t<div>\n\t\t\t\t\t<h2>Trial 15 is over</h2>\n\t\t\t\t\t<p>Press <span style=\"color: red\"><strong>any key</strong></span> to continue to the next trial</p>\n\t\t\t\t\t</div>\n\t\t\t\t","response":" ","trial_type":"html-keyboard-response","trial_index":65,"time_elapsed":231208,"internal_node_id":"0.0-3.0-3.14","prolific_id":"63f034d521ee30d5ba770e4e","session_id":"643c314582da115c7d9a065e","study_id":"64370a36d30bfa807bc7e43c"},{"rt":8100,"response":{"prediction":"13"},"trial_type":"survey-text","trial_index":66,"time_elapsed":239309,"internal_node_id":"0.0-3.0-0.15","prolific_id":"63f034d521ee30d5ba770e4e","session_id":"643c314582da115c7d9a065e","study_id":"64370a36d30bfa807bc7e43c"},{"rt":2898,"response":{"prior knowledge":1,"curiosity":5},"accuracy":[],"trial_type":"survey","trial_index":67,"time_elapsed":242219,"internal_node_id":"0.0-3.0-1.15","prolific_id":"63f034d521ee30d5ba770e4e","session_id":"643c314582da115c7d9a065e","study_id":"64370a36d30bfa807bc7e43c"},{"rt":null,"stimulus":"\n\t\t\t<div class=\"flip_card\">\n\t\t\t\t<div class=\"flip_card_inner\">\n\t\t\t\t\t<div class=\"flip_card_front\">\n\t\t\t\t\t\t<img src=img/4.png>\n\t\t\t\t\t</div>\n\t\t\t\t\t<div class=\"flip_card_back\">\n\t\t\t\t\t\t<h2>How many people are vegan globally (in millions)?</h2>\n\t\t\t\t\t\t<br>\n\t\t\t\t\t\t<p>Answer: <strong>79</strong></p>\n\t\t\t\t\t</div>\n\t\t\t\t</div>\n\t\t\t</div>\n\t\t\t","response":null,"trial_type":"html-keyboard-response","trial_index":68,"time_elapsed":247221,"internal_node_id":"0.0-3.0-2.15","prolific_id":"63f034d521ee30d5ba770e4e","session_id":"643c314582da115c7d9a065e","study_id":"64370a36d30bfa807bc7e43c"},{"rt":982,"stimulus":"\n\t\t\t\t\t<div>\n\t\t\t\t\t<h2>Trial 16 is over</h2>\n\t\t\t\t\t<p>Press <span style=\"color: red\"><strong>any key</strong></span> to continue to the next trial</p>\n\t\t\t\t\t</div>\n\t\t\t\t","response":" ","trial_type":"html-keyboard-response","trial_index":69,"time_elapsed":248204,"internal_node_id":"0.0-3.0-3.15","prolific_id":"63f034d521ee30d5ba770e4e","session_id":"643c314582da115c7d9a065e","study_id":"64370a36d30bfa807bc7e43c"},{"rt":6413,"response":{"prediction":"8"},"trial_type":"survey-text","trial_index":70,"time_elapsed":254618,"internal_node_id":"0.0-3.0-0.16","prolific_id":"63f034d521ee30d5ba770e4e","session_id":"643c314582da115c7d9a065e","study_id":"64370a36d30bfa807bc7e43c"},{"rt":4679,"response":{"prior knowledge":5,"curiosity":5},"accuracy":[],"trial_type":"survey","trial_index":71,"time_elapsed":259307,"internal_node_id":"0.0-3.0-1.16","prolific_id":"63f034d521ee30d5ba770e4e","session_id":"643c314582da115c7d9a065e","study_id":"64370a36d30bfa807bc7e43c"},{"rt":null,"stimulus":"\n\t\t\t<div class=\"flip_card\">\n\t\t\t\t<div class=\"flip_card_inner\">\n\t\t\t\t\t<div class=\"flip_card_front\">\n\t\t\t\t\t\t<img src=img/25.png>\n\t\t\t\t\t</div>\n\t\t\t\t\t<div class=\"flip_card_back\">\n\t\t\t\t\t\t<h2>How many countries have territory in the Arctic Circle?</h2>\n\t\t\t\t\t\t<br>\n\t\t\t\t\t\t<p>Answer: <strong>8</strong></p>\n\t\t\t\t\t</div>\n\t\t\t\t</div>\n\t\t\t</div>\n\t\t\t","response":null,"trial_type":"html-keyboard-response","trial_index":72,"time_elapsed":264310,"internal_node_id":"0.0-3.0-2.16","prolific_id":"63f034d521ee30d5ba770e4e","session_id":"643c314582da115c7d9a065e","study_id":"64370a36d30bfa807bc7e43c"},{"rt":1190,"stimulus":"\n\t\t\t\t\t<div>\n\t\t\t\t\t<h2>Trial 17 is over</h2>\n\t\t\t\t\t<p>Press <span style=\"color: red\"><strong>any key</strong></span> to continue to the next trial</p>\n\t\t\t\t\t</div>\n\t\t\t\t","response":" ","trial_type":"html-keyboard-response","trial_index":73,"time_elapsed":265501,"internal_node_id":"0.0-3.0-3.16","prolific_id":"63f034d521ee30d5ba770e4e","session_id":"643c314582da115c7d9a065e","study_id":"64370a36d30bfa807bc7e43c"},{"rt":4136,"response":{"prediction":"4"},"trial_type":"survey-text","trial_index":74,"time_elapsed":269639,"internal_node_id":"0.0-3.0-0.17","prolific_id":"63f034d521ee30d5ba770e4e","session_id":"643c314582da115c7d9a065e","study_id":"64370a36d30bfa807bc7e43c"},{"rt":3546,"response":{"prior knowledge":2,"curiosity":5},"accuracy":[],"trial_type":"survey","trial_index":75,"time_elapsed":273196,"internal_node_id":"0.0-3.0-1.17","prolific_id":"63f034d521ee30d5ba770e4e","session_id":"643c314582da115c7d9a065e","study_id":"64370a36d30bfa807bc7e43c"},{"rt":null,"stimulus":"\n\t\t\t<div class=\"flip_card\">\n\t\t\t\t<div class=\"flip_card_inner\">\n\t\t\t\t\t<div class=\"flip_card_front\">\n\t\t\t\t\t\t<img src=img/16.png>\n\t\t\t\t\t</div>\n\t\t\t\t\t<div class=\"flip_card_back\">\n\t\t\t\t\t\t<h2>How many single hand gestures, or mudras, are used in Indian classical dance?</h2>\n\t\t\t\t\t\t<br>\n\t\t\t\t\t\t<p>Answer: <strong>28</strong></p>\n\t\t\t\t\t</div>\n\t\t\t\t</div>\n\t\t\t</div>\n\t\t\t","response":null,"trial_type":"html-keyboard-response","trial_index":76,"time_elapsed":278202,"internal_node_id":"0.0-3.0-2.17","prolific_id":"63f034d521ee30d5ba770e4e","session_id":"643c314582da115c7d9a065e","study_id":"64370a36d30bfa807bc7e43c"},{"rt":10,"stimulus":"\n\t\t\t\t\t<div>\n\t\t\t\t\t<h2>Trial 18 is over</h2>\n\t\t\t\t\t<p>Press <span style=\"color: red\"><strong>any key</strong></span> to continue to the next trial</p>\n\t\t\t\t\t</div>\n\t\t\t\t","response":" ","trial_type":"html-keyboard-response","trial_index":77,"time_elapsed":278213,"internal_node_id":"0.0-3.0-3.17","prolific_id":"63f034d521ee30d5ba770e4e","session_id":"643c314582da115c7d9a065e","study_id":"64370a36d30bfa807bc7e43c"},{"rt":3619,"response":{"prediction":"300"},"trial_type":"survey-text","trial_index":78,"time_elapsed":281833,"internal_node_id":"0.0-3.0-0.18","prolific_id":"63f034d521ee30d5ba770e4e","session_id":"643c314582da115c7d9a065e","study_id":"64370a36d30bfa807bc7e43c"},{"rt":2536,"response":{"prior knowledge":4,"curiosity":5},"accuracy":[],"trial_type":"survey","trial_index":79,"time_elapsed":284380,"internal_node_id":"0.0-3.0-1.18","prolific_id":"63f034d521ee30d5ba770e4e","session_id":"643c314582da115c7d9a065e","study_id":"64370a36d30bfa807bc7e43c"},{"rt":null,"stimulus":"\n\t\t\t<div class=\"flip_card\">\n\t\t\t\t<div class=\"flip_card_inner\">\n\t\t\t\t\t<div class=\"flip_card_front\">\n\t\t\t\t\t\t<img src=img/14.png>\n\t\t\t\t\t</div>\n\t\t\t\t\t<div class=\"flip_card_back\">\n\t\t\t\t\t\t<h2>How many bones is a human baby born with?</h2>\n\t\t\t\t\t\t<br>\n\t\t\t\t\t\t<p>Answer: <strong>300</strong></p>\n\t\t\t\t\t</div>\n\t\t\t\t</div>\n\t\t\t</div>\n\t\t\t","response":null,"trial_type":"html-keyboard-response","trial_index":80,"time_elapsed":289381,"internal_node_id":"0.0-3.0-2.18","prolific_id":"63f034d521ee30d5ba770e4e","session_id":"643c314582da115c7d9a065e","study_id":"64370a36d30bfa807bc7e43c"},{"rt":551,"stimulus":"\n\t\t\t\t\t<div>\n\t\t\t\t\t<h2>Trial 19 is over</h2>\n\t\t\t\t\t<p>Press <span style=\"color: red\"><strong>any key</strong></span> to continue to the next trial</p>\n\t\t\t\t\t</div>\n\t\t\t\t","response":" ","trial_type":"html-keyboard-response","trial_index":81,"time_elapsed":289933,"internal_node_id":"0.0-3.0-3.18","prolific_id":"63f034d521ee30d5ba770e4e","session_id":"643c314582da115c7d9a065e","study_id":"64370a36d30bfa807bc7e43c"},{"rt":5786,"response":{"prediction":"160"},"trial_type":"survey-text","trial_index":82,"time_elapsed":295722,"internal_node_id":"0.0-3.0-0.19","prolific_id":"63f034d521ee30d5ba770e4e","session_id":"643c314582da115c7d9a065e","study_id":"64370a36d30bfa807bc7e43c"},{"rt":3161,"response":{"prior knowledge":3,"curiosity":5},"accuracy":[],"trial_type":"survey","trial_index":83,"time_elapsed":298894,"internal_node_id":"0.0-3.0-1.19","prolific_id":"63f034d521ee30d5ba770e4e","session_id":"643c314582da115c7d9a065e","study_id":"64370a36d30bfa807bc7e43c"},{"rt":null,"stimulus":"\n\t\t\t<div class=\"flip_card\">\n\t\t\t\t<div class=\"flip_card_inner\">\n\t\t\t\t\t<div class=\"flip_card_front\">\n\t\t\t\t\t\t<img src=img/12.png>\n\t\t\t\t\t</div>\n\t\t\t\t\t<div class=\"flip_card_back\">\n\t\t\t\t\t\t<h2>How many floors are in the Burj Khalifa, the tallest building in the world?</h2>\n\t\t\t\t\t\t<br>\n\t\t\t\t\t\t<p>Answer: <strong>163</strong></p>\n\t\t\t\t\t</div>\n\t\t\t\t</div>\n\t\t\t</div>\n\t\t\t","response":null,"trial_type":"html-keyboard-response","trial_index":84,"time_elapsed":303898,"internal_node_id":"0.0-3.0-2.19","prolific_id":"63f034d521ee30d5ba770e4e","session_id":"643c314582da115c7d9a065e","study_id":"64370a36d30bfa807bc7e43c"},{"rt":546,"stimulus":"\n\t\t\t\t\t<div>\n\t\t\t\t\t<h2>Trial 20 is over</h2>\n\t\t\t\t\t<p>Press <span style=\"color: red\"><strong>any key</strong></span> to continue to the next trial</p>\n\t\t\t\t\t</div>\n\t\t\t\t","response":" ","trial_type":"html-keyboard-response","trial_index":85,"time_elapsed":304445,"internal_node_id":"0.0-3.0-3.19","prolific_id":"63f034d521ee30d5ba770e4e","session_id":"643c314582da115c7d9a065e","study_id":"64370a36d30bfa807bc7e43c"},{"rt":5807,"response":{"prediction":"5"},"trial_type":"survey-text","trial_index":86,"time_elapsed":310254,"internal_node_id":"0.0-3.0-0.20","prolific_id":"63f034d521ee30d5ba770e4e","session_id":"643c314582da115c7d9a065e","study_id":"64370a36d30bfa807bc7e43c"},{"rt":4760,"response":{"prior knowledge":3,"curiosity":5},"accuracy":[],"trial_type":"survey","trial_index":87,"time_elapsed":315024,"internal_node_id":"0.0-3.0-1.20","prolific_id":"63f034d521ee30d5ba770e4e","session_id":"643c314582da115c7d9a065e","study_id":"64370a36d30bfa807bc7e43c"},{"rt":null,"stimulus":"\n\t\t\t<div class=\"flip_card\">\n\t\t\t\t<div class=\"flip_card_inner\">\n\t\t\t\t\t<div class=\"flip_card_front\">\n\t\t\t\t\t\t<img src=img/17.png>\n\t\t\t\t\t</div>\n\t\t\t\t\t<div class=\"flip_card_back\">\n\t\t\t\t\t\t<h2>How many different animals (real or imaginary) are represented in the Chinese calendar?</h2>\n\t\t\t\t\t\t<br>\n\t\t\t\t\t\t<p>Answer: <strong>12</strong></p>\n\t\t\t\t\t</div>\n\t\t\t\t</div>\n\t\t\t</div>\n\t\t\t","response":null,"trial_type":"html-keyboard-response","trial_index":88,"time_elapsed":320029,"internal_node_id":"0.0-3.0-2.20","prolific_id":"63f034d521ee30d5ba770e4e","session_id":"643c314582da115c7d9a065e","study_id":"64370a36d30bfa807bc7e43c"},{"rt":1144,"stimulus":"\n\t\t\t\t\t<div>\n\t\t\t\t\t<h2>Trial 21 is over</h2>\n\t\t\t\t\t<p>Press <span style=\"color: red\"><strong>any key</strong></span> to continue to the next trial</p>\n\t\t\t\t\t</div>\n\t\t\t\t","response":" ","trial_type":"html-keyboard-response","trial_index":89,"time_elapsed":321174,"internal_node_id":"0.0-3.0-3.20","prolific_id":"63f034d521ee30d5ba770e4e","session_id":"643c314582da115c7d9a065e","study_id":"64370a36d30bfa807bc7e43c"},{"rt":4452,"response":{"prediction":"10"},"trial_type":"survey-text","trial_index":90,"time_elapsed":325628,"internal_node_id":"0.0-3.0-0.21","prolific_id":"63f034d521ee30d5ba770e4e","session_id":"643c314582da115c7d9a065e","study_id":"64370a36d30bfa807bc7e43c"},{"rt":3904,"response":{"prior knowledge":5,"curiosity":5},"accuracy":[],"trial_type":"survey","trial_index":91,"time_elapsed":329543,"internal_node_id":"0.0-3.0-1.21","prolific_id":"63f034d521ee30d5ba770e4e","session_id":"643c314582da115c7d9a065e","study_id":"64370a36d30bfa807bc7e43c"},{"rt":null,"stimulus":"\n\t\t\t<div class=\"flip_card\">\n\t\t\t\t<div class=\"flip_card_inner\">\n\t\t\t\t\t<div class=\"flip_card_front\">\n\t\t\t\t\t\t<img src=img/30.png>\n\t\t\t\t\t</div>\n\t\t\t\t\t<div class=\"flip_card_back\">\n\t\t\t\t\t\t<h2>How many soccer players should each team have on the field at the start of each match?</h2>\n\t\t\t\t\t\t<br>\n\t\t\t\t\t\t<p>Answer: <strong>11</strong></p>\n\t\t\t\t\t</div>\n\t\t\t\t</div>\n\t\t\t</div>\n\t\t\t","response":null,"trial_type":"html-keyboard-response","trial_index":92,"time_elapsed":334555,"internal_node_id":"0.0-3.0-2.21","prolific_id":"63f034d521ee30d5ba770e4e","session_id":"643c314582da115c7d9a065e","study_id":"64370a36d30bfa807bc7e43c"},{"rt":570,"stimulus":"\n\t\t\t\t\t<div>\n\t\t\t\t\t<h2>Trial 22 is over</h2>\n\t\t\t\t\t<p>Press <span style=\"color: red\"><strong>any key</strong></span> to continue to the next trial</p>\n\t\t\t\t\t</div>\n\t\t\t\t","response":" ","trial_type":"html-keyboard-response","trial_index":93,"time_elapsed":335126,"internal_node_id":"0.0-3.0-3.21","prolific_id":"63f034d521ee30d5ba770e4e","session_id":"643c314582da115c7d9a065e","study_id":"64370a36d30bfa807bc7e43c"},{"rt":3590,"response":{"prediction":"34"},"trial_type":"survey-text","trial_index":94,"time_elapsed":338717,"internal_node_id":"0.0-3.0-0.22","prolific_id":"63f034d521ee30d5ba770e4e","session_id":"643c314582da115c7d9a065e","study_id":"64370a36d30bfa807bc7e43c"},{"rt":3534,"response":{"prior knowledge":1,"curiosity":5},"accuracy":[],"trial_type":"survey","trial_index":95,"time_elapsed":342263,"internal_node_id":"0.0-3.0-1.22","prolific_id":"63f034d521ee30d5ba770e4e","session_id":"643c314582da115c7d9a065e","study_id":"64370a36d30bfa807bc7e43c"},{"rt":null,"stimulus":"\n\t\t\t<div class=\"flip_card\">\n\t\t\t\t<div class=\"flip_card_inner\">\n\t\t\t\t\t<div class=\"flip_card_front\">\n\t\t\t\t\t\t<img src=img/20.png>\n\t\t\t\t\t</div>\n\t\t\t\t\t<div class=\"flip_card_back\">\n\t\t\t\t\t\t<h2>How many lines are in a sonnet?</h2>\n\t\t\t\t\t\t<br>\n\t\t\t\t\t\t<p>Answer: <strong>14</strong></p>\n\t\t\t\t\t</div>\n\t\t\t\t</div>\n\t\t\t</div>\n\t\t\t","response":null,"trial_type":"html-keyboard-response","trial_index":96,"time_elapsed":347276,"internal_node_id":"0.0-3.0-2.22","prolific_id":"63f034d521ee30d5ba770e4e","session_id":"643c314582da115c7d9a065e","study_id":"64370a36d30bfa807bc7e43c"},{"rt":137,"stimulus":"\n\t\t\t\t\t<div>\n\t\t\t\t\t<h2>Trial 23 is over</h2>\n\t\t\t\t\t<p>Press <span style=\"color: red\"><strong>any key</strong></span> to continue to the next trial</p>\n\t\t\t\t\t</div>\n\t\t\t\t","response":" ","trial_type":"html-keyboard-response","trial_index":97,"time_elapsed":347414,"internal_node_id":"0.0-3.0-3.22","prolific_id":"63f034d521ee30d5ba770e4e","session_id":"643c314582da115c7d9a065e","study_id":"64370a36d30bfa807bc7e43c"},{"rt":5218,"response":{"prediction":"1870"},"trial_type":"survey-text","trial_index":98,"time_elapsed":352633,"internal_node_id":"0.0-3.0-0.23","prolific_id":"63f034d521ee30d5ba770e4e","session_id":"643c314582da115c7d9a065e","study_id":"64370a36d30bfa807bc7e43c"},{"rt":3392,"response":{"prior knowledge":2,"curiosity":5},"accuracy":[],"trial_type":"survey","trial_index":99,"time_elapsed":356035,"internal_node_id":"0.0-3.0-1.23","prolific_id":"63f034d521ee30d5ba770e4e","session_id":"643c314582da115c7d9a065e","study_id":"64370a36d30bfa807bc7e43c"},{"rt":null,"stimulus":"\n\t\t\t<div class=\"flip_card\">\n\t\t\t\t<div class=\"flip_card_inner\">\n\t\t\t\t\t<div class=\"flip_card_front\">\n\t\t\t\t\t\t<img src=img/19.png>\n\t\t\t\t\t</div>\n\t\t\t\t\t<div class=\"flip_card_back\">\n\t\t\t\t\t\t<h2>How many books has Stephen King published?</h2>\n\t\t\t\t\t\t<br>\n\t\t\t\t\t\t<p>Answer: <strong>65</strong></p>\n\t\t\t\t\t</div>\n\t\t\t\t</div>\n\t\t\t</div>\n\t\t\t","response":null,"trial_type":"html-keyboard-response","trial_index":100,"time_elapsed":361036,"internal_node_id":"0.0-3.0-2.23","prolific_id":"63f034d521ee30d5ba770e4e","session_id":"643c314582da115c7d9a065e","study_id":"64370a36d30bfa807bc7e43c"},{"rt":1976,"stimulus":"\n\t\t\t\t\t<div>\n\t\t\t\t\t<h2>Trial 24 is over</h2>\n\t\t\t\t\t<p>Press <span style=\"color: red\"><strong>any key</strong></span> to continue to the next trial</p>\n\t\t\t\t\t</div>\n\t\t\t\t","response":" ","trial_type":"html-keyboard-response","trial_index":101,"time_elapsed":363012,"internal_node_id":"0.0-3.0-3.23","prolific_id":"63f034d521ee30d5ba770e4e","session_id":"643c314582da115c7d9a065e","study_id":"64370a36d30bfa807bc7e43c"},{"rt":5400,"response":{"prediction":"1960"},"trial_type":"survey-text","trial_index":102,"time_elapsed":368414,"internal_node_id":"0.0-3.0-0.24","prolific_id":"63f034d521ee30d5ba770e4e","session_id":"643c314582da115c7d9a065e","study_id":"64370a36d30bfa807bc7e43c"},{"rt":3634,"response":{"prior knowledge":2,"curiosity":5},"accuracy":[],"trial_type":"survey","trial_index":103,"time_elapsed":372059,"internal_node_id":"0.0-3.0-1.24","prolific_id":"63f034d521ee30d5ba770e4e","session_id":"643c314582da115c7d9a065e","study_id":"64370a36d30bfa807bc7e43c"},{"rt":null,"stimulus":"\n\t\t\t<div class=\"flip_card\">\n\t\t\t\t<div class=\"flip_card_inner\">\n\t\t\t\t\t<div class=\"flip_card_front\">\n\t\t\t\t\t\t<img src=img/10.png>\n\t\t\t\t\t</div>\n\t\t\t\t\t<div class=\"flip_card_back\">\n\t\t\t\t\t\t<h2>What year did the titanic sink?</h2>\n\t\t\t\t\t\t<br>\n\t\t\t\t\t\t<p>Answer: <strong>1912</strong></p>\n\t\t\t\t\t</div>\n\t\t\t\t</div>\n\t\t\t</div>\n\t\t\t","response":null,"trial_type":"html-keyboard-response","trial_index":104,"time_elapsed":377067,"internal_node_id":"0.0-3.0-2.24","prolific_id":"63f034d521ee30d5ba770e4e","session_id":"643c314582da115c7d9a065e","study_id":"64370a36d30bfa807bc7e43c"},{"rt":665,"stimulus":"\n\t\t\t\t\t<div>\n\t\t\t\t\t<h2>Trial 25 is over</h2>\n\t\t\t\t\t<p>Press <span style=\"color: red\"><strong>any key</strong></span> to continue to the next trial</p>\n\t\t\t\t\t</div>\n\t\t\t\t","response":" ","trial_type":"html-keyboard-response","trial_index":105,"time_elapsed":377733,"internal_node_id":"0.0-3.0-3.24","prolific_id":"63f034d521ee30d5ba770e4e","session_id":"643c314582da115c7d9a065e","study_id":"64370a36d30bfa807bc7e43c"},{"rt":5393,"response":{"prediction":"1913"},"trial_type":"survey-text","trial_index":106,"time_elapsed":383128,"internal_node_id":"0.0-3.0-0.25","prolific_id":"63f034d521ee30d5ba770e4e","session_id":"643c314582da115c7d9a065e","study_id":"64370a36d30bfa807bc7e43c"},{"rt":3375,"response":{"prior knowledge":1,"curiosity":5},"accuracy":[],"trial_type":"survey","trial_index":107,"time_elapsed":386514,"internal_node_id":"0.0-3.0-1.25","prolific_id":"63f034d521ee30d5ba770e4e","session_id":"643c314582da115c7d9a065e","study_id":"64370a36d30bfa807bc7e43c"},{"rt":null,"stimulus":"\n\t\t\t<div class=\"flip_card\">\n\t\t\t\t<div class=\"flip_card_inner\">\n\t\t\t\t\t<div class=\"flip_card_front\">\n\t\t\t\t\t\t<img src=img/24.png>\n\t\t\t\t\t</div>\n\t\t\t\t\t<div class=\"flip_card_back\">\n\t\t\t\t\t\t<h2>In what year was the Mexican artist Frida Kahlo born?</h2>\n\t\t\t\t\t\t<br>\n\t\t\t\t\t\t<p>Answer: <strong>1907</strong></p>\n\t\t\t\t\t</div>\n\t\t\t\t</div>\n\t\t\t</div>\n\t\t\t","response":null,"trial_type":"html-keyboard-response","trial_index":108,"time_elapsed":391522,"internal_node_id":"0.0-3.0-2.25","prolific_id":"63f034d521ee30d5ba770e4e","session_id":"643c314582da115c7d9a065e","study_id":"64370a36d30bfa807bc7e43c"},{"rt":472,"stimulus":"\n\t\t\t\t\t<div>\n\t\t\t\t\t<h2>Trial 26 is over</h2>\n\t\t\t\t\t<p>Press <span style=\"color: red\"><strong>any key</strong></span> to continue to the next trial</p>\n\t\t\t\t\t</div>\n\t\t\t\t","response":" ","trial_type":"html-keyboard-response","trial_index":109,"time_elapsed":391995,"internal_node_id":"0.0-3.0-3.25","prolific_id":"63f034d521ee30d5ba770e4e","session_id":"643c314582da115c7d9a065e","study_id":"64370a36d30bfa807bc7e43c"},{"rt":4731,"response":{"prediction":"19"},"trial_type":"survey-text","trial_index":110,"time_elapsed":396728,"internal_node_id":"0.0-3.0-0.26","prolific_id":"63f034d521ee30d5ba770e4e","session_id":"643c314582da115c7d9a065e","study_id":"64370a36d30bfa807bc7e43c"},{"rt":2622,"response":{"prior knowledge":5,"curiosity":5},"accuracy":[],"trial_type":"survey","trial_index":111,"time_elapsed":399362,"internal_node_id":"0.0-3.0-1.26","prolific_id":"63f034d521ee30d5ba770e4e","session_id":"643c314582da115c7d9a065e","study_id":"64370a36d30bfa807bc7e43c"},{"rt":null,"stimulus":"\n\t\t\t<div class=\"flip_card\">\n\t\t\t\t<div class=\"flip_card_inner\">\n\t\t\t\t\t<div class=\"flip_card_front\">\n\t\t\t\t\t\t<img src=img/23.png>\n\t\t\t\t\t</div>\n\t\t\t\t\t<div class=\"flip_card_back\">\n\t\t\t\t\t\t<h2>How old was King Tut when he died?</h2>\n\t\t\t\t\t\t<br>\n\t\t\t\t\t\t<p>Answer: <strong>19</strong></p>\n\t\t\t\t\t</div>\n\t\t\t\t</div>\n\t\t\t</div>\n\t\t\t","response":null,"trial_type":"html-keyboard-response","trial_index":112,"time_elapsed":404373,"internal_node_id":"0.0-3.0-2.26","prolific_id":"63f034d521ee30d5ba770e4e","session_id":"643c314582da115c7d9a065e","study_id":"64370a36d30bfa807bc7e43c"},{"rt":6371,"stimulus":"\n\t\t\t\t\t<div>\n\t\t\t\t\t<h2>Trial 27 is over</h2>\n\t\t\t\t\t<p>Press <span style=\"color: red\"><strong>any key</strong></span> to continue to the next trial</p>\n\t\t\t\t\t</div>\n\t\t\t\t","response":" ","trial_type":"html-keyboard-response","trial_index":113,"time_elapsed":410745,"internal_node_id":"0.0-3.0-3.26","prolific_id":"63f034d521ee30d5ba770e4e","session_id":"643c314582da115c7d9a065e","study_id":"64370a36d30bfa807bc7e43c"},{"rt":2989,"response":{"prediction":"4"},"trial_type":"survey-text","trial_index":114,"time_elapsed":413737,"internal_node_id":"0.0-3.0-0.27","prolific_id":"63f034d521ee30d5ba770e4e","session_id":"643c314582da115c7d9a065e","study_id":"64370a36d30bfa807bc7e43c"},{"rt":3842,"response":{"prior knowledge":3,"curiosity":5},"accuracy":[],"trial_type":"survey","trial_index":115,"time_elapsed":417590,"internal_node_id":"0.0-3.0-1.27","prolific_id":"63f034d521ee30d5ba770e4e","session_id":"643c314582da115c7d9a065e","study_id":"64370a36d30bfa807bc7e43c"},{"rt":null,"stimulus":"\n\t\t\t<div class=\"flip_card\">\n\t\t\t\t<div class=\"flip_card_inner\">\n\t\t\t\t\t<div class=\"flip_card_front\">\n\t\t\t\t\t\t<img src=img/22.png>\n\t\t\t\t\t</div>\n\t\t\t\t\t<div class=\"flip_card_back\">\n\t\t\t\t\t\t<h2>How many countries in Africa have French as the official language?</h2>\n\t\t\t\t\t\t<br>\n\t\t\t\t\t\t<p>Answer: <strong>21</strong></p>\n\t\t\t\t\t</div>\n\t\t\t\t</div>\n\t\t\t</div>\n\t\t\t","response":null,"trial_type":"html-keyboard-response","trial_index":116,"time_elapsed":422596,"internal_node_id":"0.0-3.0-2.27","prolific_id":"63f034d521ee30d5ba770e4e","session_id":"643c314582da115c7d9a065e","study_id":"64370a36d30bfa807bc7e43c"},{"rt":1016,"stimulus":"\n\t\t\t\t\t<div>\n\t\t\t\t\t<h2>Trial 28 is over</h2>\n\t\t\t\t\t<p>Press <span style=\"color: red\"><strong>any key</strong></span> to continue to the next trial</p>\n\t\t\t\t\t</div>\n\t\t\t\t","response":" ","trial_type":"html-keyboard-response","trial_index":117,"time_elapsed":423613,"internal_node_id":"0.0-3.0-3.27","prolific_id":"63f034d521ee30d5ba770e4e","session_id":"643c314582da115c7d9a065e","study_id":"64370a36d30bfa807bc7e43c"},{"rt":5343,"response":{"prediction":"1989"},"trial_type":"survey-text","trial_index":118,"time_elapsed":428957,"internal_node_id":"0.0-3.0-0.28","prolific_id":"63f034d521ee30d5ba770e4e","session_id":"643c314582da115c7d9a065e","study_id":"64370a36d30bfa807bc7e43c"},{"rt":2654,"response":{"prior knowledge":5,"curiosity":5},"accuracy":[],"trial_type":"survey","trial_index":119,"time_elapsed":431622,"internal_node_id":"0.0-3.0-1.28","prolific_id":"63f034d521ee30d5ba770e4e","session_id":"643c314582da115c7d9a065e","study_id":"64370a36d30bfa807bc7e43c"},{"rt":null,"stimulus":"\n\t\t\t<div class=\"flip_card\">\n\t\t\t\t<div class=\"flip_card_inner\">\n\t\t\t\t\t<div class=\"flip_card_front\">\n\t\t\t\t\t\t<img src=img/15.png>\n\t\t\t\t\t</div>\n\t\t\t\t\t<div class=\"flip_card_back\">\n\t\t\t\t\t\t<h2>What year did the Berlin Wall fall?</h2>\n\t\t\t\t\t\t<br>\n\t\t\t\t\t\t<p>Answer: <strong>1989</strong></p>\n\t\t\t\t\t</div>\n\t\t\t\t</div>\n\t\t\t</div>\n\t\t\t","response":null,"trial_type":"html-keyboard-response","trial_index":120,"time_elapsed":436635,"internal_node_id":"0.0-3.0-2.28","prolific_id":"63f034d521ee30d5ba770e4e","session_id":"643c314582da115c7d9a065e","study_id":"64370a36d30bfa807bc7e43c"},{"rt":809,"stimulus":"\n\t\t\t\t\t<div>\n\t\t\t\t\t<h2>Trial 29 is over</h2>\n\t\t\t\t\t<p>Press <span style=\"color: red\"><strong>any key</strong></span> to continue to the next trial</p>\n\t\t\t\t\t</div>\n\t\t\t\t","response":" ","trial_type":"html-keyboard-response","trial_index":121,"time_elapsed":437444,"internal_node_id":"0.0-3.0-3.28","prolific_id":"63f034d521ee30d5ba770e4e","session_id":"643c314582da115c7d9a065e","study_id":"64370a36d30bfa807bc7e43c"},{"rt":2952,"response":{"prediction":"4"},"trial_type":"survey-text","trial_index":122,"time_elapsed":440398,"internal_node_id":"0.0-3.0-0.29","prolific_id":"63f034d521ee30d5ba770e4e","session_id":"643c314582da115c7d9a065e","study_id":"64370a36d30bfa807bc7e43c"},{"rt":3568,"response":{"prior knowledge":3,"curiosity":5},"accuracy":[],"trial_type":"survey","trial_index":123,"time_elapsed":443976,"internal_node_id":"0.0-3.0-1.29","prolific_id":"63f034d521ee30d5ba770e4e","session_id":"643c314582da115c7d9a065e","study_id":"64370a36d30bfa807bc7e43c"},{"rt":null,"stimulus":"\n\t\t\t<div class=\"flip_card\">\n\t\t\t\t<div class=\"flip_card_inner\">\n\t\t\t\t\t<div class=\"flip_card_front\">\n\t\t\t\t\t\t<img src=img/5.png>\n\t\t\t\t\t</div>\n\t\t\t\t\t<div class=\"flip_card_back\">\n\t\t\t\t\t\t<h2>How many native species of kangaroos are found in Australia?</h2>\n\t\t\t\t\t\t<br>\n\t\t\t\t\t\t<p>Answer: <strong>4</strong></p>\n\t\t\t\t\t</div>\n\t\t\t\t</div>\n\t\t\t</div>\n\t\t\t","response":null,"trial_type":"html-keyboard-response","trial_index":124,"time_elapsed":448978,"internal_node_id":"0.0-3.0-2.29","prolific_id":"63f034d521ee30d5ba770e4e","session_id":"643c314582da115c7d9a065e","study_id":"64370a36d30bfa807bc7e43c"},{"rt":1842,"stimulus":"\n\t\t\t\t\t<div>\n\t\t\t\t\t<h2>Trial 30 is over</h2>\n\t\t\t\t\t<p>Press <span style=\"color: red\"><strong>any key</strong></span> to continue to the next trial</p>\n\t\t\t\t\t</div>\n\t\t\t\t","response":" ","trial_type":"html-keyboard-response","trial_index":125,"time_elapsed":450821,"internal_node_id":"0.0-3.0-3.29","prolific_id":"63f034d521ee30d5ba770e4e","session_id":"643c314582da115c7d9a065e","study_id":"64370a36d30bfa807bc7e43c"},{"rt":13912,"stimulus":"\n\t\t\t<h2>Good job! You've finished the 30 trials:p</h2>\n\t\t\t<p>In the next session, you will see two cards on the screen in each trial.</p>\n\t\t\t<p>On one card is a pattern that you have seen before in the experiment,\n\t\t\t\tand on the other card is one you have not seen.</p><br>\n\t\t\t<p>Your task is to choose the one you think you <em>have</em> seen before for every trial.</p>\n\t\t\t<p>Press '<span style=\"color: red;\"><strong>F</strong></span>' to choose the card on the left,\n\t\t\t\tand '<span style=\"color: red;\"><strong>J</strong></span>' to choose the card on the right.</p>\n\t\t\t<p>Have fun!</p>\n\t\t\t<br>\n\t\t\t<p>The trials will begin in 30 seconds</p>\n\t\t\t","response":" ","trial_type":"html-keyboard-response","trial_index":126,"time_elapsed":464734,"internal_node_id":"0.0-4.0","prolific_id":"63f034d521ee30d5ba770e4e","session_id":"643c314582da115c7d9a065e","study_id":"64370a36d30bfa807bc7e43c"},{"rt":2854,"stimulus":"\n\t\t\t\t\t\t<div class=\"two_card_container\">\n\t\t\t\t\t\t<div class=\"card_container\">\n\t\t\t\t\t\t<img src=img/11.png>\n\t\t\t\t\t\t</div>\n\n\t\t\t\t\t\t<div class=\"card_container\">\n\t\t\t\t\t\t<img src=img/36.png>\n\t\t\t\t\t\t</div>","response":"j","task":"response","correct_response":"f","trial_type":"html-keyboard-response","trial_index":127,"time_elapsed":467589,"internal_node_id":"0.0-5.0-0.0","prolific_id":"63f034d521ee30d5ba770e4e","session_id":"643c314582da115c7d9a065e","study_id":"64370a36d30bfa807bc7e43c","correct":false},{"rt":null,"stimulus":"\n\t\t\t\t\t<p>Wrong answer</p>\n\t\t\t\t\t","response":null,"trial_type":"html-keyboard-response","trial_index":128,"time_elapsed":468602,"internal_node_id":"0.0-5.0-1.0","prolific_id":"63f034d521ee30d5ba770e4e","session_id":"643c314582da115c7d9a065e","study_id":"64370a36d30bfa807bc7e43c"},{"rt":1643,"stimulus":"\n\t\t\t\t\t\t<div class=\"two_card_container\">\n\t\t\t\t\t\t<div class=\"card_container\">\n\t\t\t\t\t\t<img src=img/34.png>\n\t\t\t\t\t\t</div>\n\n\t\t\t\t\t\t<div class=\"card_container\">\n\t\t\t\t\t\t<img src=img/27.png>\n\t\t\t\t\t\t</div>","response":"j","task":"response","correct_response":"j","trial_type":"html-keyboard-response","trial_index":129,"time_elapsed":470245,"internal_node_id":"0.0-5.0-0.1","prolific_id":"63f034d521ee30d5ba770e4e","session_id":"643c314582da115c7d9a065e","study_id":"64370a36d30bfa807bc7e43c","correct":true},{"rt":null,"stimulus":"\n\t\t\t\t\t<p>Correct!</p>\n\t\t\t\t\t","response":null,"trial_type":"html-keyboard-response","trial_index":130,"time_elapsed":471250,"internal_node_id":"0.0-5.0-1.1","prolific_id":"63f034d521ee30d5ba770e4e","session_id":"643c314582da115c7d9a065e","study_id":"64370a36d30bfa807bc7e43c"},{"rt":2282,"stimulus":"\n\t\t\t\t\t\t<div class=\"two_card_container\">\n\t\t\t\t\t\t<div class=\"card_container\">\n\t\t\t\t\t\t<img src=img/16.png>\n\t\t\t\t\t\t</div>\n\n\t\t\t\t\t\t<div class=\"card_container\">\n\t\t\t\t\t\t<img src=img/39.png>\n\t\t\t\t\t\t</div>","response":"f","task":"response","correct_response":"f","trial_type":"html-keyboard-response","trial_index":131,"time_elapsed":473533,"internal_node_id":"0.0-5.0-0.2","prolific_id":"63f034d521ee30d5ba770e4e","session_id":"643c314582da115c7d9a065e","study_id":"64370a36d30bfa807bc7e43c","correct":true},{"rt":null,"stimulus":"\n\t\t\t\t\t<p>Correct!</p>\n\t\t\t\t\t","response":null,"trial_type":"html-keyboard-response","trial_index":132,"time_elapsed":474538,"internal_node_id":"0.0-5.0-1.2","prolific_id":"63f034d521ee30d5ba770e4e","session_id":"643c314582da115c7d9a065e","study_id":"64370a36d30bfa807bc7e43c"},{"rt":1484,"stimulus":"\n\t\t\t\t\t\t<div class=\"two_card_container\">\n\t\t\t\t\t\t<div class=\"card_container\">\n\t\t\t\t\t\t<img src=img/8.png>\n\t\t\t\t\t\t</div>\n\n\t\t\t\t\t\t<div class=\"card_container\">\n\t\t\t\t\t\t<img src=img/32.png>\n\t\t\t\t\t\t</div>","response":"f","task":"response","correct_response":"f","trial_type":"html-keyboard-response","trial_index":133,"time_elapsed":476023,"internal_node_id":"0.0-5.0-0.3","prolific_id":"63f034d521ee30d5ba770e4e","session_id":"643c314582da115c7d9a065e","study_id":"64370a36d30bfa807bc7e43c","correct":true},{"rt":null,"stimulus":"\n\t\t\t\t\t<p>Correct!</p>\n\t\t\t\t\t","response":null,"trial_type":"html-keyboard-response","trial_index":134,"time_elapsed":477032,"internal_node_id":"0.0-5.0-1.3","prolific_id":"63f034d521ee30d5ba770e4e","session_id":"643c314582da115c7d9a065e","study_id":"64370a36d30bfa807bc7e43c"},{"rt":1316,"stimulus":"\n\t\t\t\t\t\t<div class=\"two_card_container\">\n\t\t\t\t\t\t<div class=\"card_container\">\n\t\t\t\t\t\t<img src=img/7.png>\n\t\t\t\t\t\t</div>\n\n\t\t\t\t\t\t<div class=\"card_container\">\n\t\t\t\t\t\t<img src=img/31.png>\n\t\t\t\t\t\t</div>","response":"f","task":"response","correct_response":"f","trial_type":"html-keyboard-response","trial_index":135,"time_elapsed":478349,"internal_node_id":"0.0-5.0-0.4","prolific_id":"63f034d521ee30d5ba770e4e","session_id":"643c314582da115c7d9a065e","study_id":"64370a36d30bfa807bc7e43c","correct":true},{"rt":null,"stimulus":"\n\t\t\t\t\t<p>Correct!</p>\n\t\t\t\t\t","response":null,"trial_type":"html-keyboard-response","trial_index":136,"time_elapsed":479357,"internal_node_id":"0.0-5.0-1.4","prolific_id":"63f034d521ee30d5ba770e4e","session_id":"643c314582da115c7d9a065e","study_id":"64370a36d30bfa807bc7e43c"},{"rt":1303,"stimulus":"\n\t\t\t\t\t\t<div class=\"two_card_container\">\n\t\t\t\t\t\t<div class=\"card_container\">\n\t\t\t\t\t\t<img src=img/33.png>\n\t\t\t\t\t\t</div>\n\n\t\t\t\t\t\t<div class=\"card_container\">\n\t\t\t\t\t\t<img src=img/21.png>\n\t\t\t\t\t\t</div>","response":"j","task":"response","correct_response":"j","trial_type":"html-keyboard-response","trial_index":137,"time_elapsed":480661,"internal_node_id":"0.0-5.0-0.5","prolific_id":"63f034d521ee30d5ba770e4e","session_id":"643c314582da115c7d9a065e","study_id":"64370a36d30bfa807bc7e43c","correct":true},{"rt":null,"stimulus":"\n\t\t\t\t\t<p>Correct!</p>\n\t\t\t\t\t","response":null,"trial_type":"html-keyboard-response","trial_index":138,"time_elapsed":481663,"internal_node_id":"0.0-5.0-1.5","prolific_id":"63f034d521ee30d5ba770e4e","session_id":"643c314582da115c7d9a065e","study_id":"64370a36d30bfa807bc7e43c"},{"rt":1077,"stimulus":"\n\t\t\t\t\t\t<div class=\"two_card_container\">\n\t\t\t\t\t\t<div class=\"card_container\">\n\t\t\t\t\t\t<img src=img/17.png>\n\t\t\t\t\t\t</div>\n\n\t\t\t\t\t\t<div class=\"card_container\">\n\t\t\t\t\t\t<img src=img/38.png>\n\t\t\t\t\t\t</div>","response":"j","task":"response","correct_response":"f","trial_type":"html-keyboard-response","trial_index":139,"time_elapsed":482741,"internal_node_id":"0.0-5.0-0.6","prolific_id":"63f034d521ee30d5ba770e4e","session_id":"643c314582da115c7d9a065e","study_id":"64370a36d30bfa807bc7e43c","correct":false},{"rt":null,"stimulus":"\n\t\t\t\t\t<p>Wrong answer</p>\n\t\t\t\t\t","response":null,"trial_type":"html-keyboard-response","trial_index":140,"time_elapsed":483746,"internal_node_id":"0.0-5.0-1.6","prolific_id":"63f034d521ee30d5ba770e4e","session_id":"643c314582da115c7d9a065e","study_id":"64370a36d30bfa807bc7e43c"},{"rt":1098,"stimulus":"\n\t\t\t\t\t\t<div class=\"two_card_container\">\n\t\t\t\t\t\t<div class=\"card_container\">\n\t\t\t\t\t\t<img src=img/35.png>\n\t\t\t\t\t\t</div>\n\n\t\t\t\t\t\t<div class=\"card_container\">\n\t\t\t\t\t\t<img src=img/20.png>\n\t\t\t\t\t\t</div>","response":"j","task":"response","correct_response":"j","trial_type":"html-keyboard-response","trial_index":141,"time_elapsed":484845,"internal_node_id":"0.0-5.0-0.7","prolific_id":"63f034d521ee30d5ba770e4e","session_id":"643c314582da115c7d9a065e","study_id":"64370a36d30bfa807bc7e43c","correct":true},{"rt":null,"stimulus":"\n\t\t\t\t\t<p>Correct!</p>\n\t\t\t\t\t","response":null,"trial_type":"html-keyboard-response","trial_index":142,"time_elapsed":485849,"internal_node_id":"0.0-5.0-1.7","prolific_id":"63f034d521ee30d5ba770e4e","session_id":"643c314582da115c7d9a065e","study_id":"64370a36d30bfa807bc7e43c"},{"rt":1156,"stimulus":"\n\t\t\t\t\t\t<div class=\"two_card_container\">\n\t\t\t\t\t\t<div class=\"card_container\">\n\t\t\t\t\t\t<img src=img/37.png>\n\t\t\t\t\t\t</div>\n\n\t\t\t\t\t\t<div class=\"card_container\">\n\t\t\t\t\t\t<img src=img/18.png>\n\t\t\t\t\t\t</div>","response":"f","task":"response","correct_response":"j","trial_type":"html-keyboard-response","trial_index":143,"time_elapsed":487006,"internal_node_id":"0.0-5.0-0.8","prolific_id":"63f034d521ee30d5ba770e4e","session_id":"643c314582da115c7d9a065e","study_id":"64370a36d30bfa807bc7e43c","correct":false},{"rt":null,"stimulus":"\n\t\t\t\t\t<p>Wrong answer</p>\n\t\t\t\t\t","response":null,"trial_type":"html-keyboard-response","trial_index":144,"time_elapsed":488011,"internal_node_id":"0.0-5.0-1.8","prolific_id":"63f034d521ee30d5ba770e4e","session_id":"643c314582da115c7d9a065e","study_id":"64370a36d30bfa807bc7e43c"},{"rt":1281,"stimulus":"\n\t\t\t\t\t\t<div class=\"two_card_container\">\n\t\t\t\t\t\t<div class=\"card_container\">\n\t\t\t\t\t\t<img src=img/40.png>\n\t\t\t\t\t\t</div>\n\n\t\t\t\t\t\t<div class=\"card_container\">\n\t\t\t\t\t\t<img src=img/25.png>\n\t\t\t\t\t\t</div>","response":"f","task":"response","correct_response":"j","trial_type":"html-keyboard-response","trial_index":145,"time_elapsed":489293,"internal_node_id":"0.0-5.0-0.9","prolific_id":"63f034d521ee30d5ba770e4e","session_id":"643c314582da115c7d9a065e","study_id":"64370a36d30bfa807bc7e43c","correct":false},{"rt":null,"stimulus":"\n\t\t\t\t\t<p>Wrong answer</p>\n\t\t\t\t\t","response":null,"trial_type":"html-keyboard-response","trial_index":146,"time_elapsed":490298,"internal_node_id":"0.0-5.0-1.9","prolific_id":"63f034d521ee30d5ba770e4e","session_id":"643c314582da115c7d9a065e","study_id":"64370a36d30bfa807bc7e43c"},{"rt":10715,"stimulus":"\n\t\t\t<h2>Good job :p</h2>\n\t\t\t<p>In the next session, you will see a trivia question on the screen in each trial.</p>\n\t\t\t<p>Each of these trivia questions is chosen from the questions you have already seen in the first session of the experiment.</p><br>\n\t\t\t<p>Your task is to answer the trivia question based on what you remember as accurately as you can.</p>\n\t\t\t<p>Have fun!</p>\n\t\t\t<br>\n\t\t\t<p>The trials will begin in 30 seconds</p>\n\t\t\t","response":" ","trial_type":"html-keyboard-response","trial_index":147,"time_elapsed":501014,"internal_node_id":"0.0-6.0","prolific_id":"63f034d521ee30d5ba770e4e","session_id":"643c314582da115c7d9a065e","study_id":"64370a36d30bfa807bc7e43c"},{"rt":3746,"response":{"answer":"4"},"task":"response","correct_response":"4","trial_type":"survey-text","trial_index":148,"time_elapsed":504762,"internal_node_id":"0.0-7.0-0.0","prolific_id":"63f034d521ee30d5ba770e4e","session_id":"643c314582da115c7d9a065e","study_id":"64370a36d30bfa807bc7e43c","difference":0},{"rt":null,"stimulus":"<h2>The correct answer is 4.</h2><p>Your answer was different from the answer by 0.</p><p>You got the right answer. Amazing work!</p>","response":null,"trial_type":"html-keyboard-response","trial_index":149,"time_elapsed":507271,"internal_node_id":"0.0-7.0-1.0","prolific_id":"63f034d521ee30d5ba770e4e","session_id":"643c314582da115c7d9a065e","study_id":"64370a36d30bfa807bc7e43c"},{"rt":8721,"response":{"answer":"7788"},"task":"response","correct_response":"7917.5","trial_type":"survey-text","trial_index":150,"time_elapsed":515994,"internal_node_id":"0.0-7.0-0.1","prolific_id":"63f034d521ee30d5ba770e4e","session_id":"643c314582da115c7d9a065e","study_id":"64370a36d30bfa807bc7e43c","difference":2},{"rt":null,"stimulus":"<h2>The correct answer is 7917.5.</h2><p>Your answer was different from the answer by 129.5.</p><p>Excellent. Kudos to you!</p>","response":null,"trial_type":"html-keyboard-response","trial_index":151,"time_elapsed":518496,"internal_node_id":"0.0-7.0-1.1","prolific_id":"63f034d521ee30d5ba770e4e","session_id":"643c314582da115c7d9a065e","study_id":"64370a36d30bfa807bc7e43c"},{"rt":5600,"response":{"answer":"2007"},"task":"response","correct_response":"2007","trial_type":"survey-text","trial_index":152,"time_elapsed":524097,"internal_node_id":"0.0-7.0-0.2","prolific_id":"63f034d521ee30d5ba770e4e","session_id":"643c314582da115c7d9a065e","study_id":"64370a36d30bfa807bc7e43c","difference":0},{"rt":null,"stimulus":"<h2>The correct answer is 2007.</h2><p>Your answer was different from the answer by 0.</p><p>You got the right answer. Amazing work!</p>","response":null,"trial_type":"html-keyboard-response","trial_index":153,"time_elapsed":526609,"internal_node_id":"0.0-7.0-1.2","prolific_id":"63f034d521ee30d5ba770e4e","session_id":"643c314582da115c7d9a065e","study_id":"64370a36d30bfa807bc7e43c"},{"rt":3558,"response":{"answer":"13"},"task":"response","correct_response":"13","trial_type":"survey-text","trial_index":154,"time_elapsed":530169,"internal_node_id":"0.0-7.0-0.3","prolific_id":"63f034d521ee30d5ba770e4e","session_id":"643c314582da115c7d9a065e","study_id":"64370a36d30bfa807bc7e43c","difference":0},{"rt":null,"stimulus":"<h2>The correct answer is 13.</h2><p>Your answer was different from the answer by 0.</p><p>You got the right answer. Amazing work!</p>","response":null,"trial_type":"html-keyboard-response","trial_index":155,"time_elapsed":532680,"internal_node_id":"0.0-7.0-1.3","prolific_id":"63f034d521ee30d5ba770e4e","session_id":"643c314582da115c7d9a065e","study_id":"64370a36d30bfa807bc7e43c"},{"rt":4272,"response":{"answer":"1989"},"task":"response","correct_response":"1989","trial_type":"survey-text","trial_index":156,"time_elapsed":536953,"internal_node_id":"0.0-7.0-0.4","prolific_id":"63f034d521ee30d5ba770e4e","session_id":"643c314582da115c7d9a065e","study_id":"64370a36d30bfa807bc7e43c","difference":0},{"rt":null,"stimulus":"<h2>The correct answer is 1989.</h2><p>Your answer was different from the answer by 0.</p><p>You got the right answer. Amazing work!</p>","response":null,"trial_type":"html-keyboard-response","trial_index":157,"time_elapsed":539463,"internal_node_id":"0.0-7.0-1.4","prolific_id":"63f034d521ee30d5ba770e4e","session_id":"643c314582da115c7d9a065e","study_id":"64370a36d30bfa807bc7e43c"},{"rt":3248,"response":{"answer":"300"},"task":"response","correct_response":"300","trial_type":"survey-text","trial_index":158,"time_elapsed":542713,"internal_node_id":"0.0-7.0-0.5","prolific_id":"63f034d521ee30d5ba770e4e","session_id":"643c314582da115c7d9a065e","study_id":"64370a36d30bfa807bc7e43c","difference":0},{"rt":null,"stimulus":"<h2>The correct answer is 300.</h2><p>Your answer was different from the answer by 0.</p><p>You got the right answer. Amazing work!</p>","response":null,"trial_type":"html-keyboard-response","trial_index":159,"time_elapsed":545217,"internal_node_id":"0.0-7.0-1.5","prolific_id":"63f034d521ee30d5ba770e4e","session_id":"643c314582da115c7d9a065e","study_id":"64370a36d30bfa807bc7e43c"},{"rt":5162,"response":{"answer":"1909"},"task":"response","correct_response":"1901","trial_type":"survey-text","trial_index":160,"time_elapsed":550381,"internal_node_id":"0.0-7.0-0.6","prolific_id":"63f034d521ee30d5ba770e4e","session_id":"643c314582da115c7d9a065e","study_id":"64370a36d30bfa807bc7e43c","difference":0},{"rt":null,"stimulus":"<h2>The correct answer is 1901.</h2><p>Your answer was different from the answer by 8.</p><p>Excellent. Kudos to you!</p>","response":null,"trial_type":"html-keyboard-response","trial_index":161,"time_elapsed":552893,"internal_node_id":"0.0-7.0-1.6","prolific_id":"63f034d521ee30d5ba770e4e","session_id":"643c314582da115c7d9a065e","study_id":"64370a36d30bfa807bc7e43c"},{"rt":5095,"response":{"answer":"1900"},"task":"response","correct_response":"1896","trial_type":"survey-text","trial_index":162,"time_elapsed":557989,"internal_node_id":"0.0-7.0-0.7","prolific_id":"63f034d521ee30d5ba770e4e","session_id":"643c314582da115c7d9a065e","study_id":"64370a36d30bfa807bc7e43c","difference":0},{"rt":null,"stimulus":"<h2>The correct answer is 1896.</h2><p>Your answer was different from the answer by 4.</p><p>Excellent. Kudos to you!</p>","response":null,"trial_type":"html-keyboard-response","trial_index":163,"time_elapsed":560495,"internal_node_id":"0.0-7.0-1.7","prolific_id":"63f034d521ee30d5ba770e4e","session_id":"643c314582da115c7d9a065e","study_id":"64370a36d30bfa807bc7e43c"},{"rt":5860,"response":{"answer":"164"},"task":"response","correct_response":"163","trial_type":"survey-text","trial_index":164,"time_elapsed":566357,"internal_node_id":"0.0-7.0-0.8","prolific_id":"63f034d521ee30d5ba770e4e","session_id":"643c314582da115c7d9a065e","study_id":"64370a36d30bfa807bc7e43c","difference":1},{"rt":null,"stimulus":"<h2>The correct answer is 163.</h2><p>Your answer was different from the answer by 1.</p><p>Excellent. Kudos to you!</p>","response":null,"trial_type":"html-keyboard-response","trial_index":165,"time_elapsed":568860,"internal_node_id":"0.0-7.0-1.8","prolific_id":"63f034d521ee30d5ba770e4e","session_id":"643c314582da115c7d9a065e","study_id":"64370a36d30bfa807bc7e43c"},{"rt":5687,"response":{"answer":"78"},"task":"response","correct_response":"14","trial_type":"survey-text","trial_index":166,"time_elapsed":574550,"internal_node_id":"0.0-7.0-0.9","prolific_id":"63f034d521ee30d5ba770e4e","session_id":"643c314582da115c7d9a065e","study_id":"64370a36d30bfa807bc7e43c","difference":100},{"rt":null,"stimulus":"<h2>The correct answer is 14.</h2><p>Your answer was different from the answer by 64.</p><p>Not even close... do better next time!</p>","response":null,"trial_type":"html-keyboard-response","trial_index":167,"time_elapsed":577053,"internal_node_id":"0.0-7.0-1.9","prolific_id":"63f034d521ee30d5ba770e4e","session_id":"643c314582da115c7d9a065e","study_id":"64370a36d30bfa807bc7e43c"}]