[{"success":true,"timeout":false,"failed_images":[],"failed_audio":[],"failed_video":[],"trial_type":"preload","trial_index":0,"time_elapsed":8438,"internal_node_id":"0.0-0.0","prolific_id":"63f796a016e377d12cff50f1","session_id":"643c2524ce85d9f46e95f7da","study_id":"64370a36d30bfa807bc7e43c"},{"rt":11220,"stimulus":"\n\t\t\t\t\t<p>Welcome and thank you for participating in this study!</p>\n\t\t\t\t\t<p>In each trial, you will be given a trivia question and then be asked to:</p><br>\n\t\t\t\t\t<div class=\"list\">\n\t\t\t\t\t<p>1) Predict the answer</p>\n\t\t\t\t\t<p>2) Rate how much you already know about the topic</p>\n\t\t\t\t\t<p>3) Rate how much you want to know the answer</p>\n\t\t\t\t\t</div>\n\t\t\t\t\t<br>\n\t\t\t\t\t<p>Then, you will see a card that flips over to reveal the answer.</p>\n\t\t\t\t\t<br>\n\t\t\t\t\t<p>Let's try a practice round. Press <span style=\"color: red\"><strong>any key</strong></span> to move to the next slide</p>\n\t\t\t\t\t","response":" ","trial_type":"html-keyboard-response","trial_index":1,"time_elapsed":19659,"internal_node_id":"0.0-1.0","prolific_id":"63f796a016e377d12cff50f1","session_id":"643c2524ce85d9f46e95f7da","study_id":"64370a36d30bfa807bc7e43c"},{"rt":13259,"response":{"practice prediction":"6"},"task":"practice","trial_type":"survey-text","trial_index":2,"time_elapsed":32943,"internal_node_id":"0.0-2.0-0.0","prolific_id":"63f796a016e377d12cff50f1","session_id":"643c2524ce85d9f46e95f7da","study_id":"64370a36d30bfa807bc7e43c"},{"rt":10227,"response":{"practice":5},"accuracy":[],"trial_type":"survey","trial_index":3,"time_elapsed":43197,"internal_node_id":"0.0-2.0-1.0","prolific_id":"63f796a016e377d12cff50f1","session_id":"643c2524ce85d9f46e95f7da","study_id":"64370a36d30bfa807bc7e43c"},{"rt":null,"stimulus":"\n\t\t\t\t<div class=\"flip_card\">\n\t\t\t\t\t<div class=\"flip_card_inner\">\n\t\t\t\t\t\t<div class=\"flip_card_front\">\n\t\t\t\t\t\t\t<img src=img/practice.png>\n\t\t\t\t\t\t</div>\n\t\t\t\t\t\t<div class=\"flip_card_back\">\n\t\t\t\t\t\t\t<h2>\"How many legs does a lobster have?\"</h2>\n\t\t\t\t\t\t    <br>\n\t\t\t\t\t\t    <p>Answer: <strong>\"10\"</strong></p>\n\t\t\t\t\t    </div>\n\t\t\t\t    </div>\n\t\t\t    </div>\n\t\t\t\t","response":null,"trial_type":"html-keyboard-response","trial_index":4,"time_elapsed":48211,"internal_node_id":"0.0-2.0-2.0","prolific_id":"63f796a016e377d12cff50f1","session_id":"643c2524ce85d9f46e95f7da","study_id":"64370a36d30bfa807bc7e43c"},{"rt":3909,"stimulus":"\n\t\t\t\t\t<div>\n\t\t\t\t\t<h2>The practice round is over</h2>\n\t\t\t\t\t<p>Press <span style=\"color: red\"><strong>any key</strong></span> to continue to the actual trials</p>\n\t\t\t\t\t<p>Good Luck!</p>\n\t\t\t\t\t</div>\n\t\t\t\t\t","response":" ","trial_type":"html-keyboard-response","trial_index":5,"time_elapsed":52121,"internal_node_id":"0.0-2.0-3.0","prolific_id":"63f796a016e377d12cff50f1","session_id":"643c2524ce85d9f46e95f7da","study_id":"64370a36d30bfa807bc7e43c"},{"rt":6433,"response":{"prediction":"5"},"trial_type":"survey-text","trial_index":6,"time_elapsed":58558,"internal_node_id":"0.0-3.0-0.0","prolific_id":"63f796a016e377d12cff50f1","session_id":"643c2524ce85d9f46e95f7da","study_id":"64370a36d30bfa807bc7e43c"},{"rt":8079,"response":{"prior knowledge":0,"curiosity":5},"accuracy":[],"trial_type":"survey","trial_index":7,"time_elapsed":66651,"internal_node_id":"0.0-3.0-1.0","prolific_id":"63f796a016e377d12cff50f1","session_id":"643c2524ce85d9f46e95f7da","study_id":"64370a36d30bfa807bc7e43c"},{"rt":null,"stimulus":"\n\t\t\t<div class=\"flip_card\">\n\t\t\t\t<div class=\"flip_card_inner\">\n\t\t\t\t\t<div class=\"flip_card_front\">\n\t\t\t\t\t\t<img src=img/21.png>\n\t\t\t\t\t</div>\n\t\t\t\t\t<div class=\"flip_card_back\">\n\t\t\t\t\t\t<h2>How many times a day do Muslims pray?</h2>\n\t\t\t\t\t\t<br>\n\t\t\t\t\t\t<p>Answer: <strong>5</strong></p>\n\t\t\t\t\t</div>\n\t\t\t\t</div>\n\t\t\t</div>\n\t\t\t","response":null,"trial_type":"html-keyboard-response","trial_index":8,"time_elapsed":71665,"internal_node_id":"0.0-3.0-2.0","prolific_id":"63f796a016e377d12cff50f1","session_id":"643c2524ce85d9f46e95f7da","study_id":"64370a36d30bfa807bc7e43c"},{"rt":2601,"stimulus":"\n\t\t\t\t\t<div>\n\t\t\t\t\t<h2>Trial 1 is over</h2>\n\t\t\t\t\t<p>Press <span style=\"color: red\"><strong>any key</strong></span> to continue to the next trial</p>\n\t\t\t\t\t</div>\n\t\t\t\t","response":" ","trial_type":"html-keyboard-response","trial_index":9,"time_elapsed":74266,"internal_node_id":"0.0-3.0-3.0","prolific_id":"63f796a016e377d12cff50f1","session_id":"643c2524ce85d9f46e95f7da","study_id":"64370a36d30bfa807bc7e43c"},{"rt":10503,"response":{"prediction":"12"},"trial_type":"survey-text","trial_index":10,"time_elapsed":84770,"internal_node_id":"0.0-3.0-0.1","prolific_id":"63f796a016e377d12cff50f1","session_id":"643c2524ce85d9f46e95f7da","study_id":"64370a36d30bfa807bc7e43c"},{"rt":5638,"response":{"prior knowledge":0,"curiosity":5},"accuracy":[],"trial_type":"survey","trial_index":11,"time_elapsed":90416,"internal_node_id":"0.0-3.0-1.1","prolific_id":"63f796a016e377d12cff50f1","session_id":"643c2524ce85d9f46e95f7da","study_id":"64370a36d30bfa807bc7e43c"},{"rt":null,"stimulus":"\n\t\t\t<div class=\"flip_card\">\n\t\t\t\t<div class=\"flip_card_inner\">\n\t\t\t\t\t<div class=\"flip_card_front\">\n\t\t\t\t\t\t<img src=img/2.png>\n\t\t\t\t\t</div>\n\t\t\t\t\t<div class=\"flip_card_back\">\n\t\t\t\t\t\t<h2>How many countries have territory in the Arctic Circle?</h2>\n\t\t\t\t\t\t<br>\n\t\t\t\t\t\t<p>Answer: <strong>8</strong></p>\n\t\t\t\t\t</div>\n\t\t\t\t</div>\n\t\t\t</div>\n\t\t\t","response":null,"trial_type":"html-keyboard-response","trial_index":12,"time_elapsed":95425,"internal_node_id":"0.0-3.0-2.1","prolific_id":"63f796a016e377d12cff50f1","session_id":"643c2524ce85d9f46e95f7da","study_id":"64370a36d30bfa807bc7e43c"},{"rt":1719,"stimulus":"\n\t\t\t\t\t<div>\n\t\t\t\t\t<h2>Trial 2 is over</h2>\n\t\t\t\t\t<p>Press <span style=\"color: red\"><strong>any key</strong></span> to continue to the next trial</p>\n\t\t\t\t\t</div>\n\t\t\t\t","response":" ","trial_type":"html-keyboard-response","trial_index":13,"time_elapsed":97144,"internal_node_id":"0.0-3.0-3.1","prolific_id":"63f796a016e377d12cff50f1","session_id":"643c2524ce85d9f46e95f7da","study_id":"64370a36d30bfa807bc7e43c"},{"rt":9276,"response":{"prediction":"72"},"trial_type":"survey-text","trial_index":14,"time_elapsed":106421,"internal_node_id":"0.0-3.0-0.2","prolific_id":"63f796a016e377d12cff50f1","session_id":"643c2524ce85d9f46e95f7da","study_id":"64370a36d30bfa807bc7e43c"},{"rt":7381,"response":{"prior knowledge":0,"curiosity":5},"accuracy":[],"trial_type":"survey","trial_index":15,"time_elapsed":113818,"internal_node_id":"0.0-3.0-1.2","prolific_id":"63f796a016e377d12cff50f1","session_id":"643c2524ce85d9f46e95f7da","study_id":"64370a36d30bfa807bc7e43c"},{"rt":null,"stimulus":"\n\t\t\t<div class=\"flip_card\">\n\t\t\t\t<div class=\"flip_card_inner\">\n\t\t\t\t\t<div class=\"flip_card_front\">\n\t\t\t\t\t\t<img src=img/8.png>\n\t\t\t\t\t</div>\n\t\t\t\t\t<div class=\"flip_card_back\">\n\t\t\t\t\t\t<h2>How many constellations are there?</h2>\n\t\t\t\t\t\t<br>\n\t\t\t\t\t\t<p>Answer: <strong>88</strong></p>\n\t\t\t\t\t</div>\n\t\t\t\t</div>\n\t\t\t</div>\n\t\t\t","response":null,"trial_type":"html-keyboard-response","trial_index":16,"time_elapsed":118823,"internal_node_id":"0.0-3.0-2.2","prolific_id":"63f796a016e377d12cff50f1","session_id":"643c2524ce85d9f46e95f7da","study_id":"64370a36d30bfa807bc7e43c"},{"rt":1633,"stimulus":"\n\t\t\t\t\t<div>\n\t\t\t\t\t<h2>Trial 3 is over</h2>\n\t\t\t\t\t<p>Press <span style=\"color: red\"><strong>any key</strong></span> to continue to the next trial</p>\n\t\t\t\t\t</div>\n\t\t\t\t","response":" ","trial_type":"html-keyboard-response","trial_index":17,"time_elapsed":120456,"internal_node_id":"0.0-3.0-3.2","prolific_id":"63f796a016e377d12cff50f1","session_id":"643c2524ce85d9f46e95f7da","study_id":"64370a36d30bfa807bc7e43c"},{"rt":13574,"response":{"prediction":"1912"},"trial_type":"survey-text","trial_index":18,"time_elapsed":134034,"internal_node_id":"0.0-3.0-0.3","prolific_id":"63f796a016e377d12cff50f1","session_id":"643c2524ce85d9f46e95f7da","study_id":"64370a36d30bfa807bc7e43c"},{"rt":7639,"response":{"prior knowledge":0,"curiosity":5},"accuracy":[],"trial_type":"survey","trial_index":19,"time_elapsed":141688,"internal_node_id":"0.0-3.0-1.3","prolific_id":"63f796a016e377d12cff50f1","session_id":"643c2524ce85d9f46e95f7da","study_id":"64370a36d30bfa807bc7e43c"},{"rt":null,"stimulus":"\n\t\t\t<div class=\"flip_card\">\n\t\t\t\t<div class=\"flip_card_inner\">\n\t\t\t\t\t<div class=\"flip_card_front\">\n\t\t\t\t\t\t<img src=img/20.png>\n\t\t\t\t\t</div>\n\t\t\t\t\t<div class=\"flip_card_back\">\n\t\t\t\t\t\t<h2>In what year did the first Modern Olympic Games take place?</h2>\n\t\t\t\t\t\t<br>\n\t\t\t\t\t\t<p>Answer: <strong>1896</strong></p>\n\t\t\t\t\t</div>\n\t\t\t\t</div>\n\t\t\t</div>\n\t\t\t","response":null,"trial_type":"html-keyboard-response","trial_index":20,"time_elapsed":146695,"internal_node_id":"0.0-3.0-2.3","prolific_id":"63f796a016e377d12cff50f1","session_id":"643c2524ce85d9f46e95f7da","study_id":"64370a36d30bfa807bc7e43c"},{"rt":1637,"stimulus":"\n\t\t\t\t\t<div>\n\t\t\t\t\t<h2>Trial 4 is over</h2>\n\t\t\t\t\t<p>Press <span style=\"color: red\"><strong>any key</strong></span> to continue to the next trial</p>\n\t\t\t\t\t</div>\n\t\t\t\t","response":" ","trial_type":"html-keyboard-response","trial_index":21,"time_elapsed":148333,"internal_node_id":"0.0-3.0-3.3","prolific_id":"63f796a016e377d12cff50f1","session_id":"643c2524ce85d9f46e95f7da","study_id":"64370a36d30bfa807bc7e43c"},{"rt":7506,"response":{"prediction":"1988"},"trial_type":"survey-text","trial_index":22,"time_elapsed":155842,"internal_node_id":"0.0-3.0-0.4","prolific_id":"63f796a016e377d12cff50f1","session_id":"643c2524ce85d9f46e95f7da","study_id":"64370a36d30bfa807bc7e43c"},{"rt":5507,"response":{"prior knowledge":1,"curiosity":5},"accuracy":[],"trial_type":"survey","trial_index":23,"time_elapsed":161365,"internal_node_id":"0.0-3.0-1.4","prolific_id":"63f796a016e377d12cff50f1","session_id":"643c2524ce85d9f46e95f7da","study_id":"64370a36d30bfa807bc7e43c"},{"rt":null,"stimulus":"\n\t\t\t<div class=\"flip_card\">\n\t\t\t\t<div class=\"flip_card_inner\">\n\t\t\t\t\t<div class=\"flip_card_front\">\n\t\t\t\t\t\t<img src=img/10.png>\n\t\t\t\t\t</div>\n\t\t\t\t\t<div class=\"flip_card_back\">\n\t\t\t\t\t\t<h2>What year did the Berlin Wall fall?</h2>\n\t\t\t\t\t\t<br>\n\t\t\t\t\t\t<p>Answer: <strong>1989</strong></p>\n\t\t\t\t\t</div>\n\t\t\t\t</div>\n\t\t\t</div>\n\t\t\t","response":null,"trial_type":"html-keyboard-response","trial_index":24,"time_elapsed":166378,"internal_node_id":"0.0-3.0-2.4","prolific_id":"63f796a016e377d12cff50f1","session_id":"643c2524ce85d9f46e95f7da","study_id":"64370a36d30bfa807bc7e43c"},{"rt":1537,"stimulus":"\n\t\t\t\t\t<div>\n\t\t\t\t\t<h2>Trial 5 is over</h2>\n\t\t\t\t\t<p>Press <span style=\"color: red\"><strong>any key</strong></span> to continue to the next trial</p>\n\t\t\t\t\t</div>\n\t\t\t\t","response":" ","trial_type":"html-keyboard-response","trial_index":25,"time_elapsed":167917,"internal_node_id":"0.0-3.0-3.4","prolific_id":"63f796a016e377d12cff50f1","session_id":"643c2524ce85d9f46e95f7da","study_id":"64370a36d30bfa807bc7e43c"},{"rt":9059,"response":{"prediction":"30"},"trial_type":"survey-text","trial_index":26,"time_elapsed":176981,"internal_node_id":"0.0-3.0-0.5","prolific_id":"63f796a016e377d12cff50f1","session_id":"643c2524ce85d9f46e95f7da","study_id":"64370a36d30bfa807bc7e43c"},{"rt":8636,"response":{"prior knowledge":1,"curiosity":5},"accuracy":[],"trial_type":"survey","trial_index":27,"time_elapsed":185632,"internal_node_id":"0.0-3.0-1.5","prolific_id":"63f796a016e377d12cff50f1","session_id":"643c2524ce85d9f46e95f7da","study_id":"64370a36d30bfa807bc7e43c"},{"rt":null,"stimulus":"\n\t\t\t<div class=\"flip_card\">\n\t\t\t\t<div class=\"flip_card_inner\">\n\t\t\t\t\t<div class=\"flip_card_front\">\n\t\t\t\t\t\t<img src=img/23.png>\n\t\t\t\t\t</div>\n\t\t\t\t\t<div class=\"flip_card_back\">\n\t\t\t\t\t\t<h2>How old was King Tut when he died?</h2>\n\t\t\t\t\t\t<br>\n\t\t\t\t\t\t<p>Answer: <strong>19</strong></p>\n\t\t\t\t\t</div>\n\t\t\t\t</div>\n\t\t\t</div>\n\t\t\t","response":null,"trial_type":"html-keyboard-response","trial_index":28,"time_elapsed":190642,"internal_node_id":"0.0-3.0-2.5","prolific_id":"63f796a016e377d12cff50f1","session_id":"643c2524ce85d9f46e95f7da","study_id":"64370a36d30bfa807bc7e43c"},{"rt":1794,"stimulus":"\n\t\t\t\t\t<div>\n\t\t\t\t\t<h2>Trial 6 is over</h2>\n\t\t\t\t\t<p>Press <span style=\"color: red\"><strong>any key</strong></span> to continue to the next trial</p>\n\t\t\t\t\t</div>\n\t\t\t\t","response":" ","trial_type":"html-keyboard-response","trial_index":29,"time_elapsed":192437,"internal_node_id":"0.0-3.0-3.5","prolific_id":"63f796a016e377d12cff50f1","session_id":"643c2524ce85d9f46e95f7da","study_id":"64370a36d30bfa807bc7e43c"},{"rt":17846,"response":{"prediction":"220"},"trial_type":"survey-text","trial_index":30,"time_elapsed":210285,"internal_node_id":"0.0-3.0-0.6","prolific_id":"63f796a016e377d12cff50f1","session_id":"643c2524ce85d9f46e95f7da","study_id":"64370a36d30bfa807bc7e43c"},{"rt":4920,"response":{"prior knowledge":0,"curiosity":5},"accuracy":[],"trial_type":"survey","trial_index":31,"time_elapsed":215220,"internal_node_id":"0.0-3.0-1.6","prolific_id":"63f796a016e377d12cff50f1","session_id":"643c2524ce85d9f46e95f7da","study_id":"64370a36d30bfa807bc7e43c"},{"rt":null,"stimulus":"\n\t\t\t<div class=\"flip_card\">\n\t\t\t\t<div class=\"flip_card_inner\">\n\t\t\t\t\t<div class=\"flip_card_front\">\n\t\t\t\t\t\t<img src=img/6.png>\n\t\t\t\t\t</div>\n\t\t\t\t\t<div class=\"flip_card_back\">\n\t\t\t\t\t\t<h2>How many bones is a human baby born with?</h2>\n\t\t\t\t\t\t<br>\n\t\t\t\t\t\t<p>Answer: <strong>300</strong></p>\n\t\t\t\t\t</div>\n\t\t\t\t</div>\n\t\t\t</div>\n\t\t\t","response":null,"trial_type":"html-keyboard-response","trial_index":32,"time_elapsed":220236,"internal_node_id":"0.0-3.0-2.6","prolific_id":"63f796a016e377d12cff50f1","session_id":"643c2524ce85d9f46e95f7da","study_id":"64370a36d30bfa807bc7e43c"},{"rt":1592,"stimulus":"\n\t\t\t\t\t<div>\n\t\t\t\t\t<h2>Trial 7 is over</h2>\n\t\t\t\t\t<p>Press <span style=\"color: red\"><strong>any key</strong></span> to continue to the next trial</p>\n\t\t\t\t\t</div>\n\t\t\t\t","response":" ","trial_type":"html-keyboard-response","trial_index":33,"time_elapsed":221828,"internal_node_id":"0.0-3.0-3.6","prolific_id":"63f796a016e377d12cff50f1","session_id":"643c2524ce85d9f46e95f7da","study_id":"64370a36d30bfa807bc7e43c"},{"rt":13257,"response":{"prediction":"33"},"trial_type":"survey-text","trial_index":34,"time_elapsed":235088,"internal_node_id":"0.0-3.0-0.7","prolific_id":"63f796a016e377d12cff50f1","session_id":"643c2524ce85d9f46e95f7da","study_id":"64370a36d30bfa807bc7e43c"},{"rt":5345,"response":{"prior knowledge":1,"curiosity":5},"accuracy":[],"trial_type":"survey","trial_index":35,"time_elapsed":240447,"internal_node_id":"0.0-3.0-1.7","prolific_id":"63f796a016e377d12cff50f1","session_id":"643c2524ce85d9f46e95f7da","study_id":"64370a36d30bfa807bc7e43c"},{"rt":null,"stimulus":"\n\t\t\t<div class=\"flip_card\">\n\t\t\t\t<div class=\"flip_card_inner\">\n\t\t\t\t\t<div class=\"flip_card_front\">\n\t\t\t\t\t\t<img src=img/18.png>\n\t\t\t\t\t</div>\n\t\t\t\t\t<div class=\"flip_card_back\">\n\t\t\t\t\t\t<h2>How many moons does Neptune have?</h2>\n\t\t\t\t\t\t<br>\n\t\t\t\t\t\t<p>Answer: <strong>14</strong></p>\n\t\t\t\t\t</div>\n\t\t\t\t</div>\n\t\t\t</div>\n\t\t\t","response":null,"trial_type":"html-keyboard-response","trial_index":36,"time_elapsed":245458,"internal_node_id":"0.0-3.0-2.7","prolific_id":"63f796a016e377d12cff50f1","session_id":"643c2524ce85d9f46e95f7da","study_id":"64370a36d30bfa807bc7e43c"},{"rt":1517,"stimulus":"\n\t\t\t\t\t<div>\n\t\t\t\t\t<h2>Trial 8 is over</h2>\n\t\t\t\t\t<p>Press <span style=\"color: red\"><strong>any key</strong></span> to continue to the next trial</p>\n\t\t\t\t\t</div>\n\t\t\t\t","response":" ","trial_type":"html-keyboard-response","trial_index":37,"time_elapsed":246977,"internal_node_id":"0.0-3.0-3.7","prolific_id":"63f796a016e377d12cff50f1","session_id":"643c2524ce85d9f46e95f7da","study_id":"64370a36d30bfa807bc7e43c"},{"rt":9783,"response":{"prediction":"50"},"trial_type":"survey-text","trial_index":38,"time_elapsed":256762,"internal_node_id":"0.0-3.0-0.8","prolific_id":"63f796a016e377d12cff50f1","session_id":"643c2524ce85d9f46e95f7da","study_id":"64370a36d30bfa807bc7e43c"},{"rt":5116,"response":{"prior knowledge":0,"curiosity":5},"accuracy":[],"trial_type":"survey","trial_index":39,"time_elapsed":261892,"internal_node_id":"0.0-3.0-1.8","prolific_id":"63f796a016e377d12cff50f1","session_id":"643c2524ce85d9f46e95f7da","study_id":"64370a36d30bfa807bc7e43c"},{"rt":null,"stimulus":"\n\t\t\t<div class=\"flip_card\">\n\t\t\t\t<div class=\"flip_card_inner\">\n\t\t\t\t\t<div class=\"flip_card_front\">\n\t\t\t\t\t\t<img src=img/28.png>\n\t\t\t\t\t</div>\n\t\t\t\t\t<div class=\"flip_card_back\">\n\t\t\t\t\t\t<h2>How many double stitches does a baseball have?</h2>\n\t\t\t\t\t\t<br>\n\t\t\t\t\t\t<p>Answer: <strong>108</strong></p>\n\t\t\t\t\t</div>\n\t\t\t\t</div>\n\t\t\t</div>\n\t\t\t","response":null,"trial_type":"html-keyboard-response","trial_index":40,"time_elapsed":266902,"internal_node_id":"0.0-3.0-2.8","prolific_id":"63f796a016e377d12cff50f1","session_id":"643c2524ce85d9f46e95f7da","study_id":"64370a36d30bfa807bc7e43c"},{"rt":1339,"stimulus":"\n\t\t\t\t\t<div>\n\t\t\t\t\t<h2>Trial 9 is over</h2>\n\t\t\t\t\t<p>Press <span style=\"color: red\"><strong>any key</strong></span> to continue to the next trial</p>\n\t\t\t\t\t</div>\n\t\t\t\t","response":" ","trial_type":"html-keyboard-response","trial_index":41,"time_elapsed":268242,"internal_node_id":"0.0-3.0-3.8","prolific_id":"63f796a016e377d12cff50f1","session_id":"643c2524ce85d9f46e95f7da","study_id":"64370a36d30bfa807bc7e43c"},{"rt":14440,"response":{"prediction":"9"},"trial_type":"survey-text","trial_index":42,"time_elapsed":282684,"internal_node_id":"0.0-3.0-0.9","prolific_id":"63f796a016e377d12cff50f1","session_id":"643c2524ce85d9f46e95f7da","study_id":"64370a36d30bfa807bc7e43c"},{"rt":4905,"response":{"prior knowledge":0,"curiosity":5},"accuracy":[],"trial_type":"survey","trial_index":43,"time_elapsed":287605,"internal_node_id":"0.0-3.0-1.9","prolific_id":"63f796a016e377d12cff50f1","session_id":"643c2524ce85d9f46e95f7da","study_id":"64370a36d30bfa807bc7e43c"},{"rt":null,"stimulus":"\n\t\t\t<div class=\"flip_card\">\n\t\t\t\t<div class=\"flip_card_inner\">\n\t\t\t\t\t<div class=\"flip_card_front\">\n\t\t\t\t\t\t<img src=img/17.png>\n\t\t\t\t\t</div>\n\t\t\t\t\t<div class=\"flip_card_back\">\n\t\t\t\t\t\t<h2>How many soccer players should each team have on the field at the start of each match?</h2>\n\t\t\t\t\t\t<br>\n\t\t\t\t\t\t<p>Answer: <strong>11</strong></p>\n\t\t\t\t\t</div>\n\t\t\t\t</div>\n\t\t\t</div>\n\t\t\t","response":null,"trial_type":"html-keyboard-response","trial_index":44,"time_elapsed":292618,"internal_node_id":"0.0-3.0-2.9","prolific_id":"63f796a016e377d12cff50f1","session_id":"643c2524ce85d9f46e95f7da","study_id":"64370a36d30bfa807bc7e43c"},{"rt":1789,"stimulus":"\n\t\t\t\t\t<div>\n\t\t\t\t\t<h2>Trial 10 is over</h2>\n\t\t\t\t\t<p>Press <span style=\"color: red\"><strong>any key</strong></span> to continue to the next trial</p>\n\t\t\t\t\t</div>\n\t\t\t\t","response":" ","trial_type":"html-keyboard-response","trial_index":45,"time_elapsed":294408,"internal_node_id":"0.0-3.0-3.9","prolific_id":"63f796a016e377d12cff50f1","session_id":"643c2524ce85d9f46e95f7da","study_id":"64370a36d30bfa807bc7e43c"},{"rt":4547,"response":{"prediction":"13"},"trial_type":"survey-text","trial_index":46,"time_elapsed":298958,"internal_node_id":"0.0-3.0-0.10","prolific_id":"63f796a016e377d12cff50f1","session_id":"643c2524ce85d9f46e95f7da","study_id":"64370a36d30bfa807bc7e43c"},{"rt":5093,"response":{"prior knowledge":5,"curiosity":5},"accuracy":[],"trial_type":"survey","trial_index":47,"time_elapsed":304066,"internal_node_id":"0.0-3.0-1.10","prolific_id":"63f796a016e377d12cff50f1","session_id":"643c2524ce85d9f46e95f7da","study_id":"64370a36d30bfa807bc7e43c"},{"rt":null,"stimulus":"\n\t\t\t<div class=\"flip_card\">\n\t\t\t\t<div class=\"flip_card_inner\">\n\t\t\t\t\t<div class=\"flip_card_front\">\n\t\t\t\t\t\t<img src=img/3.png>\n\t\t\t\t\t</div>\n\t\t\t\t\t<div class=\"flip_card_back\">\n\t\t\t\t\t\t<h2>How much is in a Baker's Dozen?</h2>\n\t\t\t\t\t\t<br>\n\t\t\t\t\t\t<p>Answer: <strong>13</strong></p>\n\t\t\t\t\t</div>\n\t\t\t\t</div>\n\t\t\t</div>\n\t\t\t","response":null,"trial_type":"html-keyboard-response","trial_index":48,"time_elapsed":309068,"internal_node_id":"0.0-3.0-2.10","prolific_id":"63f796a016e377d12cff50f1","session_id":"643c2524ce85d9f46e95f7da","study_id":"64370a36d30bfa807bc7e43c"},{"rt":1686,"stimulus":"\n\t\t\t\t\t<div>\n\t\t\t\t\t<h2>Trial 11 is over</h2>\n\t\t\t\t\t<p>Press <span style=\"color: red\"><strong>any key</strong></span> to continue to the next trial</p>\n\t\t\t\t\t</div>\n\t\t\t\t","response":" ","trial_type":"html-keyboard-response","trial_index":49,"time_elapsed":310754,"internal_node_id":"0.0-3.0-3.10","prolific_id":"63f796a016e377d12cff50f1","session_id":"643c2524ce85d9f46e95f7da","study_id":"64370a36d30bfa807bc7e43c"},{"rt":12088,"response":{"prediction":"12"},"trial_type":"survey-text","trial_index":50,"time_elapsed":322844,"internal_node_id":"0.0-3.0-0.11","prolific_id":"63f796a016e377d12cff50f1","session_id":"643c2524ce85d9f46e95f7da","study_id":"64370a36d30bfa807bc7e43c"},{"rt":6626,"response":{"prior knowledge":0,"curiosity":5},"accuracy":[],"trial_type":"survey","trial_index":51,"time_elapsed":329488,"internal_node_id":"0.0-3.0-1.11","prolific_id":"63f796a016e377d12cff50f1","session_id":"643c2524ce85d9f46e95f7da","study_id":"64370a36d30bfa807bc7e43c"},{"rt":null,"stimulus":"\n\t\t\t<div class=\"flip_card\">\n\t\t\t\t<div class=\"flip_card_inner\">\n\t\t\t\t\t<div class=\"flip_card_front\">\n\t\t\t\t\t\t<img src=img/29.png>\n\t\t\t\t\t</div>\n\t\t\t\t\t<div class=\"flip_card_back\">\n\t\t\t\t\t\t<h2>How many countries are in Africa?</h2>\n\t\t\t\t\t\t<br>\n\t\t\t\t\t\t<p>Answer: <strong>54</strong></p>\n\t\t\t\t\t</div>\n\t\t\t\t</div>\n\t\t\t</div>\n\t\t\t","response":null,"trial_type":"html-keyboard-response","trial_index":52,"time_elapsed":334495,"internal_node_id":"0.0-3.0-2.11","prolific_id":"63f796a016e377d12cff50f1","session_id":"643c2524ce85d9f46e95f7da","study_id":"64370a36d30bfa807bc7e43c"},{"rt":2671,"stimulus":"\n\t\t\t\t\t<div>\n\t\t\t\t\t<h2>Trial 12 is over</h2>\n\t\t\t\t\t<p>Press <span style=\"color: red\"><strong>any key</strong></span> to continue to the next trial</p>\n\t\t\t\t\t</div>\n\t\t\t\t","response":" ","trial_type":"html-keyboard-response","trial_index":53,"time_elapsed":337167,"internal_node_id":"0.0-3.0-3.11","prolific_id":"63f796a016e377d12cff50f1","session_id":"643c2524ce85d9f46e95f7da","study_id":"64370a36d30bfa807bc7e43c"},{"rt":8771,"response":{"prediction":"2007"},"trial_type":"survey-text","trial_index":54,"time_elapsed":345940,"internal_node_id":"0.0-3.0-0.12","prolific_id":"63f796a016e377d12cff50f1","session_id":"643c2524ce85d9f46e95f7da","study_id":"64370a36d30bfa807bc7e43c"},{"rt":6063,"response":{"prior knowledge":1,"curiosity":5},"accuracy":[],"trial_type":"survey","trial_index":55,"time_elapsed":352017,"internal_node_id":"0.0-3.0-1.12","prolific_id":"63f796a016e377d12cff50f1","session_id":"643c2524ce85d9f46e95f7da","study_id":"64370a36d30bfa807bc7e43c"},{"rt":null,"stimulus":"\n\t\t\t<div class=\"flip_card\">\n\t\t\t\t<div class=\"flip_card_inner\">\n\t\t\t\t\t<div class=\"flip_card_front\">\n\t\t\t\t\t\t<img src=img/26.png>\n\t\t\t\t\t</div>\n\t\t\t\t\t<div class=\"flip_card_back\">\n\t\t\t\t\t\t<h2>What year was the very first model of the iPhone released?</h2>\n\t\t\t\t\t\t<br>\n\t\t\t\t\t\t<p>Answer: <strong>2007</strong></p>\n\t\t\t\t\t</div>\n\t\t\t\t</div>\n\t\t\t</div>\n\t\t\t","response":null,"trial_type":"html-keyboard-response","trial_index":56,"time_elapsed":357021,"internal_node_id":"0.0-3.0-2.12","prolific_id":"63f796a016e377d12cff50f1","session_id":"643c2524ce85d9f46e95f7da","study_id":"64370a36d30bfa807bc7e43c"},{"rt":2260,"stimulus":"\n\t\t\t\t\t<div>\n\t\t\t\t\t<h2>Trial 13 is over</h2>\n\t\t\t\t\t<p>Press <span style=\"color: red\"><strong>any key</strong></span> to continue to the next trial</p>\n\t\t\t\t\t</div>\n\t\t\t\t","response":" ","trial_type":"html-keyboard-response","trial_index":57,"time_elapsed":359282,"internal_node_id":"0.0-3.0-3.12","prolific_id":"63f796a016e377d12cff50f1","session_id":"643c2524ce85d9f46e95f7da","study_id":"64370a36d30bfa807bc7e43c"},{"rt":11442,"response":{"prediction":"13"},"trial_type":"survey-text","trial_index":58,"time_elapsed":370726,"internal_node_id":"0.0-3.0-0.13","prolific_id":"63f796a016e377d12cff50f1","session_id":"643c2524ce85d9f46e95f7da","study_id":"64370a36d30bfa807bc7e43c"},{"rt":4559,"response":{"prior knowledge":0,"curiosity":5},"accuracy":[],"trial_type":"survey","trial_index":59,"time_elapsed":375300,"internal_node_id":"0.0-3.0-1.13","prolific_id":"63f796a016e377d12cff50f1","session_id":"643c2524ce85d9f46e95f7da","study_id":"64370a36d30bfa807bc7e43c"},{"rt":null,"stimulus":"\n\t\t\t<div class=\"flip_card\">\n\t\t\t\t<div class=\"flip_card_inner\">\n\t\t\t\t\t<div class=\"flip_card_front\">\n\t\t\t\t\t\t<img src=img/7.png>\n\t\t\t\t\t</div>\n\t\t\t\t\t<div class=\"flip_card_back\">\n\t\t\t\t\t\t<h2>How many different animals (real or imaginary) are represented in the Chinese calendar?</h2>\n\t\t\t\t\t\t<br>\n\t\t\t\t\t\t<p>Answer: <strong>12</strong></p>\n\t\t\t\t\t</div>\n\t\t\t\t</div>\n\t\t\t</div>\n\t\t\t","response":null,"trial_type":"html-keyboard-response","trial_index":60,"time_elapsed":380314,"internal_node_id":"0.0-3.0-2.13","prolific_id":"63f796a016e377d12cff50f1","session_id":"643c2524ce85d9f46e95f7da","study_id":"64370a36d30bfa807bc7e43c"},{"rt":1837,"stimulus":"\n\t\t\t\t\t<div>\n\t\t\t\t\t<h2>Trial 14 is over</h2>\n\t\t\t\t\t<p>Press <span style=\"color: red\"><strong>any key</strong></span> to continue to the next trial</p>\n\t\t\t\t\t</div>\n\t\t\t\t","response":" ","trial_type":"html-keyboard-response","trial_index":61,"time_elapsed":382151,"internal_node_id":"0.0-3.0-3.13","prolific_id":"63f796a016e377d12cff50f1","session_id":"643c2524ce85d9f46e95f7da","study_id":"64370a36d30bfa807bc7e43c"},{"rt":7923,"response":{"prediction":"5"},"trial_type":"survey-text","trial_index":62,"time_elapsed":390076,"internal_node_id":"0.0-3.0-0.14","prolific_id":"63f796a016e377d12cff50f1","session_id":"643c2524ce85d9f46e95f7da","study_id":"64370a36d30bfa807bc7e43c"},{"rt":4237,"response":{"prior knowledge":0,"curiosity":5},"accuracy":[],"trial_type":"survey","trial_index":63,"time_elapsed":394327,"internal_node_id":"0.0-3.0-1.14","prolific_id":"63f796a016e377d12cff50f1","session_id":"643c2524ce85d9f46e95f7da","study_id":"64370a36d30bfa807bc7e43c"},{"rt":null,"stimulus":"\n\t\t\t<div class=\"flip_card\">\n\t\t\t\t<div class=\"flip_card_inner\">\n\t\t\t\t\t<div class=\"flip_card_front\">\n\t\t\t\t\t\t<img src=img/19.png>\n\t\t\t\t\t</div>\n\t\t\t\t\t<div class=\"flip_card_back\">\n\t\t\t\t\t\t<h2>How many countries in Africa have French as the official language?</h2>\n\t\t\t\t\t\t<br>\n\t\t\t\t\t\t<p>Answer: <strong>21</strong></p>\n\t\t\t\t\t</div>\n\t\t\t\t</div>\n\t\t\t</div>\n\t\t\t","response":null,"trial_type":"html-keyboard-response","trial_index":64,"time_elapsed":399335,"internal_node_id":"0.0-3.0-2.14","prolific_id":"63f796a016e377d12cff50f1","session_id":"643c2524ce85d9f46e95f7da","study_id":"64370a36d30bfa807bc7e43c"},{"rt":1411,"stimulus":"\n\t\t\t\t\t<div>\n\t\t\t\t\t<h2>Trial 15 is over</h2>\n\t\t\t\t\t<p>Press <span style=\"color: red\"><strong>any key</strong></span> to continue to the next trial</p>\n\t\t\t\t\t</div>\n\t\t\t\t","response":" ","trial_type":"html-keyboard-response","trial_index":65,"time_elapsed":400747,"internal_node_id":"0.0-3.0-3.14","prolific_id":"63f796a016e377d12cff50f1","session_id":"643c2524ce85d9f46e95f7da","study_id":"64370a36d30bfa807bc7e43c"},{"rt":11496,"response":{"prediction":"112"},"trial_type":"survey-text","trial_index":66,"time_elapsed":412245,"internal_node_id":"0.0-3.0-0.15","prolific_id":"63f796a016e377d12cff50f1","session_id":"643c2524ce85d9f46e95f7da","study_id":"64370a36d30bfa807bc7e43c"},{"rt":3994,"response":{"prior knowledge":0,"curiosity":5},"accuracy":[],"trial_type":"survey","trial_index":67,"time_elapsed":416251,"internal_node_id":"0.0-3.0-1.15","prolific_id":"63f796a016e377d12cff50f1","session_id":"643c2524ce85d9f46e95f7da","study_id":"64370a36d30bfa807bc7e43c"},{"rt":null,"stimulus":"\n\t\t\t<div class=\"flip_card\">\n\t\t\t\t<div class=\"flip_card_inner\">\n\t\t\t\t\t<div class=\"flip_card_front\">\n\t\t\t\t\t\t<img src=img/22.png>\n\t\t\t\t\t</div>\n\t\t\t\t\t<div class=\"flip_card_back\">\n\t\t\t\t\t\t<h2>How many books has Stephen King published?</h2>\n\t\t\t\t\t\t<br>\n\t\t\t\t\t\t<p>Answer: <strong>65</strong></p>\n\t\t\t\t\t</div>\n\t\t\t\t</div>\n\t\t\t</div>\n\t\t\t","response":null,"trial_type":"html-keyboard-response","trial_index":68,"time_elapsed":421263,"internal_node_id":"0.0-3.0-2.15","prolific_id":"63f796a016e377d12cff50f1","session_id":"643c2524ce85d9f46e95f7da","study_id":"64370a36d30bfa807bc7e43c"},{"rt":1687,"stimulus":"\n\t\t\t\t\t<div>\n\t\t\t\t\t<h2>Trial 16 is over</h2>\n\t\t\t\t\t<p>Press <span style=\"color: red\"><strong>any key</strong></span> to continue to the next trial</p>\n\t\t\t\t\t</div>\n\t\t\t\t","response":" ","trial_type":"html-keyboard-response","trial_index":69,"time_elapsed":422951,"internal_node_id":"0.0-3.0-3.15","prolific_id":"63f796a016e377d12cff50f1","session_id":"643c2524ce85d9f46e95f7da","study_id":"64370a36d30bfa807bc7e43c"},{"rt":9048,"response":{"prediction":"4"},"trial_type":"survey-text","trial_index":70,"time_elapsed":432001,"internal_node_id":"0.0-3.0-0.16","prolific_id":"63f796a016e377d12cff50f1","session_id":"643c2524ce85d9f46e95f7da","study_id":"64370a36d30bfa807bc7e43c"},{"rt":6042,"response":{"prior knowledge":0,"curiosity":5},"accuracy":[],"trial_type":"survey","trial_index":71,"time_elapsed":438057,"internal_node_id":"0.0-3.0-1.16","prolific_id":"63f796a016e377d12cff50f1","session_id":"643c2524ce85d9f46e95f7da","study_id":"64370a36d30bfa807bc7e43c"},{"rt":null,"stimulus":"\n\t\t\t<div class=\"flip_card\">\n\t\t\t\t<div class=\"flip_card_inner\">\n\t\t\t\t\t<div class=\"flip_card_front\">\n\t\t\t\t\t\t<img src=img/25.png>\n\t\t\t\t\t</div>\n\t\t\t\t\t<div class=\"flip_card_back\">\n\t\t\t\t\t\t<h2>How many main islands make up Japan?</h2>\n\t\t\t\t\t\t<br>\n\t\t\t\t\t\t<p>Answer: <strong>4</strong></p>\n\t\t\t\t\t</div>\n\t\t\t\t</div>\n\t\t\t</div>\n\t\t\t","response":null,"trial_type":"html-keyboard-response","trial_index":72,"time_elapsed":443065,"internal_node_id":"0.0-3.0-2.16","prolific_id":"63f796a016e377d12cff50f1","session_id":"643c2524ce85d9f46e95f7da","study_id":"64370a36d30bfa807bc7e43c"},{"rt":2458,"stimulus":"\n\t\t\t\t\t<div>\n\t\t\t\t\t<h2>Trial 17 is over</h2>\n\t\t\t\t\t<p>Press <span style=\"color: red\"><strong>any key</strong></span> to continue to the next trial</p>\n\t\t\t\t\t</div>\n\t\t\t\t","response":" ","trial_type":"html-keyboard-response","trial_index":73,"time_elapsed":445524,"internal_node_id":"0.0-3.0-3.16","prolific_id":"63f796a016e377d12cff50f1","session_id":"643c2524ce85d9f46e95f7da","study_id":"64370a36d30bfa807bc7e43c"},{"rt":9919,"response":{"prediction":"225"},"trial_type":"survey-text","trial_index":74,"time_elapsed":455445,"internal_node_id":"0.0-3.0-0.17","prolific_id":"63f796a016e377d12cff50f1","session_id":"643c2524ce85d9f46e95f7da","study_id":"64370a36d30bfa807bc7e43c"},{"rt":4617,"response":{"prior knowledge":0,"curiosity":5},"accuracy":[],"trial_type":"survey","trial_index":75,"time_elapsed":460075,"internal_node_id":"0.0-3.0-1.17","prolific_id":"63f796a016e377d12cff50f1","session_id":"643c2524ce85d9f46e95f7da","study_id":"64370a36d30bfa807bc7e43c"},{"rt":null,"stimulus":"\n\t\t\t<div class=\"flip_card\">\n\t\t\t\t<div class=\"flip_card_inner\">\n\t\t\t\t\t<div class=\"flip_card_front\">\n\t\t\t\t\t\t<img src=img/15.png>\n\t\t\t\t\t</div>\n\t\t\t\t\t<div class=\"flip_card_back\">\n\t\t\t\t\t\t<h2>How many floors are in the Burj Khalifa, the tallest building in the world?</h2>\n\t\t\t\t\t\t<br>\n\t\t\t\t\t\t<p>Answer: <strong>163</strong></p>\n\t\t\t\t\t</div>\n\t\t\t\t</div>\n\t\t\t</div>\n\t\t\t","response":null,"trial_type":"html-keyboard-response","trial_index":76,"time_elapsed":465079,"internal_node_id":"0.0-3.0-2.17","prolific_id":"63f796a016e377d12cff50f1","session_id":"643c2524ce85d9f46e95f7da","study_id":"64370a36d30bfa807bc7e43c"},{"rt":2323,"stimulus":"\n\t\t\t\t\t<div>\n\t\t\t\t\t<h2>Trial 18 is over</h2>\n\t\t\t\t\t<p>Press <span style=\"color: red\"><strong>any key</strong></span> to continue to the next trial</p>\n\t\t\t\t\t</div>\n\t\t\t\t","response":" ","trial_type":"html-keyboard-response","trial_index":77,"time_elapsed":467402,"internal_node_id":"0.0-3.0-3.17","prolific_id":"63f796a016e377d12cff50f1","session_id":"643c2524ce85d9f46e95f7da","study_id":"64370a36d30bfa807bc7e43c"},{"rt":21091,"response":{"prediction":"350"},"trial_type":"survey-text","trial_index":78,"time_elapsed":488495,"internal_node_id":"0.0-3.0-0.18","prolific_id":"63f796a016e377d12cff50f1","session_id":"643c2524ce85d9f46e95f7da","study_id":"64370a36d30bfa807bc7e43c"},{"rt":4640,"response":{"prior knowledge":0,"curiosity":5},"accuracy":[],"trial_type":"survey","trial_index":79,"time_elapsed":493147,"internal_node_id":"0.0-3.0-1.18","prolific_id":"63f796a016e377d12cff50f1","session_id":"643c2524ce85d9f46e95f7da","study_id":"64370a36d30bfa807bc7e43c"},{"rt":null,"stimulus":"\n\t\t\t<div class=\"flip_card\">\n\t\t\t\t<div class=\"flip_card_inner\">\n\t\t\t\t\t<div class=\"flip_card_front\">\n\t\t\t\t\t\t<img src=img/24.png>\n\t\t\t\t\t</div>\n\t\t\t\t\t<div class=\"flip_card_back\">\n\t\t\t\t\t\t<h2>How long is the Great Wall of China (in miles)?</h2>\n\t\t\t\t\t\t<br>\n\t\t\t\t\t\t<p>Answer: <strong>13171</strong></p>\n\t\t\t\t\t</div>\n\t\t\t\t</div>\n\t\t\t</div>\n\t\t\t","response":null,"trial_type":"html-keyboard-response","trial_index":80,"time_elapsed":498158,"internal_node_id":"0.0-3.0-2.18","prolific_id":"63f796a016e377d12cff50f1","session_id":"643c2524ce85d9f46e95f7da","study_id":"64370a36d30bfa807bc7e43c"},{"rt":1521,"stimulus":"\n\t\t\t\t\t<div>\n\t\t\t\t\t<h2>Trial 19 is over</h2>\n\t\t\t\t\t<p>Press <span style=\"color: red\"><strong>any key</strong></span> to continue to the next trial</p>\n\t\t\t\t\t</div>\n\t\t\t\t","response":" ","trial_type":"html-keyboard-response","trial_index":81,"time_elapsed":499680,"internal_node_id":"0.0-3.0-3.18","prolific_id":"63f796a016e377d12cff50f1","session_id":"643c2524ce85d9f46e95f7da","study_id":"64370a36d30bfa807bc7e43c"},{"rt":14811,"response":{"prediction":"12"},"trial_type":"survey-text","trial_index":82,"time_elapsed":514493,"internal_node_id":"0.0-3.0-0.19","prolific_id":"63f796a016e377d12cff50f1","session_id":"643c2524ce85d9f46e95f7da","study_id":"64370a36d30bfa807bc7e43c"},{"rt":3622,"response":{"prior knowledge":0,"curiosity":5},"accuracy":[],"trial_type":"survey","trial_index":83,"time_elapsed":518123,"internal_node_id":"0.0-3.0-1.19","prolific_id":"63f796a016e377d12cff50f1","session_id":"643c2524ce85d9f46e95f7da","study_id":"64370a36d30bfa807bc7e43c"},{"rt":null,"stimulus":"\n\t\t\t<div class=\"flip_card\">\n\t\t\t\t<div class=\"flip_card_inner\">\n\t\t\t\t\t<div class=\"flip_card_front\">\n\t\t\t\t\t\t<img src=img/16.png>\n\t\t\t\t\t</div>\n\t\t\t\t\t<div class=\"flip_card_back\">\n\t\t\t\t\t\t<h2>How many books are in the Catholic Bible?</h2>\n\t\t\t\t\t\t<br>\n\t\t\t\t\t\t<p>Answer: <strong>73</strong></p>\n\t\t\t\t\t</div>\n\t\t\t\t</div>\n\t\t\t</div>\n\t\t\t","response":null,"trial_type":"html-keyboard-response","trial_index":84,"time_elapsed":523135,"internal_node_id":"0.0-3.0-2.19","prolific_id":"63f796a016e377d12cff50f1","session_id":"643c2524ce85d9f46e95f7da","study_id":"64370a36d30bfa807bc7e43c"},{"rt":2268,"stimulus":"\n\t\t\t\t\t<div>\n\t\t\t\t\t<h2>Trial 20 is over</h2>\n\t\t\t\t\t<p>Press <span style=\"color: red\"><strong>any key</strong></span> to continue to the next trial</p>\n\t\t\t\t\t</div>\n\t\t\t\t","response":" ","trial_type":"html-keyboard-response","trial_index":85,"time_elapsed":525404,"internal_node_id":"0.0-3.0-3.19","prolific_id":"63f796a016e377d12cff50f1","session_id":"643c2524ce85d9f46e95f7da","study_id":"64370a36d30bfa807bc7e43c"},{"rt":12367,"response":{"prediction":"1914"},"trial_type":"survey-text","trial_index":86,"time_elapsed":537773,"internal_node_id":"0.0-3.0-0.20","prolific_id":"63f796a016e377d12cff50f1","session_id":"643c2524ce85d9f46e95f7da","study_id":"64370a36d30bfa807bc7e43c"},{"rt":3951,"response":{"prior knowledge":1,"curiosity":5},"accuracy":[],"trial_type":"survey","trial_index":87,"time_elapsed":541737,"internal_node_id":"0.0-3.0-1.20","prolific_id":"63f796a016e377d12cff50f1","session_id":"643c2524ce85d9f46e95f7da","study_id":"64370a36d30bfa807bc7e43c"},{"rt":null,"stimulus":"\n\t\t\t<div class=\"flip_card\">\n\t\t\t\t<div class=\"flip_card_inner\">\n\t\t\t\t\t<div class=\"flip_card_front\">\n\t\t\t\t\t\t<img src=img/5.png>\n\t\t\t\t\t</div>\n\t\t\t\t\t<div class=\"flip_card_back\">\n\t\t\t\t\t\t<h2>What year did the titanic sink?</h2>\n\t\t\t\t\t\t<br>\n\t\t\t\t\t\t<p>Answer: <strong>1912</strong></p>\n\t\t\t\t\t</div>\n\t\t\t\t</div>\n\t\t\t</div>\n\t\t\t","response":null,"trial_type":"html-keyboard-response","trial_index":88,"time_elapsed":546741,"internal_node_id":"0.0-3.0-2.20","prolific_id":"63f796a016e377d12cff50f1","session_id":"643c2524ce85d9f46e95f7da","study_id":"64370a36d30bfa807bc7e43c"},{"rt":3981,"stimulus":"\n\t\t\t\t\t<div>\n\t\t\t\t\t<h2>Trial 21 is over</h2>\n\t\t\t\t\t<p>Press <span style=\"color: red\"><strong>any key</strong></span> to continue to the next trial</p>\n\t\t\t\t\t</div>\n\t\t\t\t","response":" ","trial_type":"html-keyboard-response","trial_index":89,"time_elapsed":550723,"internal_node_id":"0.0-3.0-3.20","prolific_id":"63f796a016e377d12cff50f1","session_id":"643c2524ce85d9f46e95f7da","study_id":"64370a36d30bfa807bc7e43c"},{"rt":7371,"response":{"prediction":"1"},"trial_type":"survey-text","trial_index":90,"time_elapsed":558096,"internal_node_id":"0.0-3.0-0.21","prolific_id":"63f796a016e377d12cff50f1","session_id":"643c2524ce85d9f46e95f7da","study_id":"64370a36d30bfa807bc7e43c"},{"rt":4396,"response":{"prior knowledge":0,"curiosity":5},"accuracy":[],"trial_type":"survey","trial_index":91,"time_elapsed":562506,"internal_node_id":"0.0-3.0-1.21","prolific_id":"63f796a016e377d12cff50f1","session_id":"643c2524ce85d9f46e95f7da","study_id":"64370a36d30bfa807bc7e43c"},{"rt":null,"stimulus":"\n\t\t\t<div class=\"flip_card\">\n\t\t\t\t<div class=\"flip_card_inner\">\n\t\t\t\t\t<div class=\"flip_card_front\">\n\t\t\t\t\t\t<img src=img/1.png>\n\t\t\t\t\t</div>\n\t\t\t\t\t<div class=\"flip_card_back\">\n\t\t\t\t\t\t<h2>How many native species of kangaroos are found in Australia?</h2>\n\t\t\t\t\t\t<br>\n\t\t\t\t\t\t<p>Answer: <strong>4</strong></p>\n\t\t\t\t\t</div>\n\t\t\t\t</div>\n\t\t\t</div>\n\t\t\t","response":null,"trial_type":"html-keyboard-response","trial_index":92,"time_elapsed":567518,"internal_node_id":"0.0-3.0-2.21","prolific_id":"63f796a016e377d12cff50f1","session_id":"643c2524ce85d9f46e95f7da","study_id":"64370a36d30bfa807bc7e43c"},{"rt":1927,"stimulus":"\n\t\t\t\t\t<div>\n\t\t\t\t\t<h2>Trial 22 is over</h2>\n\t\t\t\t\t<p>Press <span style=\"color: red\"><strong>any key</strong></span> to continue to the next trial</p>\n\t\t\t\t\t</div>\n\t\t\t\t","response":" ","trial_type":"html-keyboard-response","trial_index":93,"time_elapsed":569446,"internal_node_id":"0.0-3.0-3.21","prolific_id":"63f796a016e377d12cff50f1","session_id":"643c2524ce85d9f46e95f7da","study_id":"64370a36d30bfa807bc7e43c"},{"rt":14070,"response":{"prediction":"100"},"trial_type":"survey-text","trial_index":94,"time_elapsed":583517,"internal_node_id":"0.0-3.0-0.22","prolific_id":"63f796a016e377d12cff50f1","session_id":"643c2524ce85d9f46e95f7da","study_id":"64370a36d30bfa807bc7e43c"},{"rt":4692,"response":{"prior knowledge":0,"curiosity":5},"accuracy":[],"trial_type":"survey","trial_index":95,"time_elapsed":588224,"internal_node_id":"0.0-3.0-1.22","prolific_id":"63f796a016e377d12cff50f1","session_id":"643c2524ce85d9f46e95f7da","study_id":"64370a36d30bfa807bc7e43c"},{"rt":null,"stimulus":"\n\t\t\t<div class=\"flip_card\">\n\t\t\t\t<div class=\"flip_card_inner\">\n\t\t\t\t\t<div class=\"flip_card_front\">\n\t\t\t\t\t\t<img src=img/12.png>\n\t\t\t\t\t</div>\n\t\t\t\t\t<div class=\"flip_card_back\">\n\t\t\t\t\t\t<h2>How many people are vegan globally (in millions)?</h2>\n\t\t\t\t\t\t<br>\n\t\t\t\t\t\t<p>Answer: <strong>79</strong></p>\n\t\t\t\t\t</div>\n\t\t\t\t</div>\n\t\t\t</div>\n\t\t\t","response":null,"trial_type":"html-keyboard-response","trial_index":96,"time_elapsed":593227,"internal_node_id":"0.0-3.0-2.22","prolific_id":"63f796a016e377d12cff50f1","session_id":"643c2524ce85d9f46e95f7da","study_id":"64370a36d30bfa807bc7e43c"},{"rt":1920,"stimulus":"\n\t\t\t\t\t<div>\n\t\t\t\t\t<h2>Trial 23 is over</h2>\n\t\t\t\t\t<p>Press <span style=\"color: red\"><strong>any key</strong></span> to continue to the next trial</p>\n\t\t\t\t\t</div>\n\t\t\t\t","response":" ","trial_type":"html-keyboard-response","trial_index":97,"time_elapsed":595148,"internal_node_id":"0.0-3.0-3.22","prolific_id":"63f796a016e377d12cff50f1","session_id":"643c2524ce85d9f46e95f7da","study_id":"64370a36d30bfa807bc7e43c"},{"rt":10305,"response":{"prediction":"14"},"trial_type":"survey-text","trial_index":98,"time_elapsed":605455,"internal_node_id":"0.0-3.0-0.23","prolific_id":"63f796a016e377d12cff50f1","session_id":"643c2524ce85d9f46e95f7da","study_id":"64370a36d30bfa807bc7e43c"},{"rt":4396,"response":{"prior knowledge":0,"curiosity":5},"accuracy":[],"trial_type":"survey","trial_index":99,"time_elapsed":609866,"internal_node_id":"0.0-3.0-1.23","prolific_id":"63f796a016e377d12cff50f1","session_id":"643c2524ce85d9f46e95f7da","study_id":"64370a36d30bfa807bc7e43c"},{"rt":null,"stimulus":"\n\t\t\t<div class=\"flip_card\">\n\t\t\t\t<div class=\"flip_card_inner\">\n\t\t\t\t\t<div class=\"flip_card_front\">\n\t\t\t\t\t\t<img src=img/27.png>\n\t\t\t\t\t</div>\n\t\t\t\t\t<div class=\"flip_card_back\">\n\t\t\t\t\t\t<h2>How many single hand gestures, or mudras, are used in Indian classical dance?</h2>\n\t\t\t\t\t\t<br>\n\t\t\t\t\t\t<p>Answer: <strong>28</strong></p>\n\t\t\t\t\t</div>\n\t\t\t\t</div>\n\t\t\t</div>\n\t\t\t","response":null,"trial_type":"html-keyboard-response","trial_index":100,"time_elapsed":614868,"internal_node_id":"0.0-3.0-2.23","prolific_id":"63f796a016e377d12cff50f1","session_id":"643c2524ce85d9f46e95f7da","study_id":"64370a36d30bfa807bc7e43c"},{"rt":1664,"stimulus":"\n\t\t\t\t\t<div>\n\t\t\t\t\t<h2>Trial 24 is over</h2>\n\t\t\t\t\t<p>Press <span style=\"color: red\"><strong>any key</strong></span> to continue to the next trial</p>\n\t\t\t\t\t</div>\n\t\t\t\t","response":" ","trial_type":"html-keyboard-response","trial_index":101,"time_elapsed":616532,"internal_node_id":"0.0-3.0-3.23","prolific_id":"63f796a016e377d12cff50f1","session_id":"643c2524ce85d9f46e95f7da","study_id":"64370a36d30bfa807bc7e43c"},{"rt":7605,"response":{"prediction":"52"},"trial_type":"survey-text","trial_index":102,"time_elapsed":624139,"internal_node_id":"0.0-3.0-0.24","prolific_id":"63f796a016e377d12cff50f1","session_id":"643c2524ce85d9f46e95f7da","study_id":"64370a36d30bfa807bc7e43c"},{"rt":3608,"response":{"prior knowledge":0,"curiosity":5},"accuracy":[],"trial_type":"survey","trial_index":103,"time_elapsed":627762,"internal_node_id":"0.0-3.0-1.24","prolific_id":"63f796a016e377d12cff50f1","session_id":"643c2524ce85d9f46e95f7da","study_id":"64370a36d30bfa807bc7e43c"},{"rt":null,"stimulus":"\n\t\t\t<div class=\"flip_card\">\n\t\t\t\t<div class=\"flip_card_inner\">\n\t\t\t\t\t<div class=\"flip_card_front\">\n\t\t\t\t\t\t<img src=img/9.png>\n\t\t\t\t\t</div>\n\t\t\t\t\t<div class=\"flip_card_back\">\n\t\t\t\t\t\t<h2>How many tones are in the Vietnamese language?</h2>\n\t\t\t\t\t\t<br>\n\t\t\t\t\t\t<p>Answer: <strong>6</strong></p>\n\t\t\t\t\t</div>\n\t\t\t\t</div>\n\t\t\t</div>\n\t\t\t","response":null,"trial_type":"html-keyboard-response","trial_index":104,"time_elapsed":632763,"internal_node_id":"0.0-3.0-2.24","prolific_id":"63f796a016e377d12cff50f1","session_id":"643c2524ce85d9f46e95f7da","study_id":"64370a36d30bfa807bc7e43c"},{"rt":1751,"stimulus":"\n\t\t\t\t\t<div>\n\t\t\t\t\t<h2>Trial 25 is over</h2>\n\t\t\t\t\t<p>Press <span style=\"color: red\"><strong>any key</strong></span> to continue to the next trial</p>\n\t\t\t\t\t</div>\n\t\t\t\t","response":" ","trial_type":"html-keyboard-response","trial_index":105,"time_elapsed":634515,"internal_node_id":"0.0-3.0-3.24","prolific_id":"63f796a016e377d12cff50f1","session_id":"643c2524ce85d9f46e95f7da","study_id":"64370a36d30bfa807bc7e43c"},{"rt":6019,"response":{"prediction":"13"},"trial_type":"survey-text","trial_index":106,"time_elapsed":640537,"internal_node_id":"0.0-3.0-0.25","prolific_id":"63f796a016e377d12cff50f1","session_id":"643c2524ce85d9f46e95f7da","study_id":"64370a36d30bfa807bc7e43c"},{"rt":5066,"response":{"prior knowledge":1,"curiosity":5},"accuracy":[],"trial_type":"survey","trial_index":107,"time_elapsed":645617,"internal_node_id":"0.0-3.0-1.25","prolific_id":"63f796a016e377d12cff50f1","session_id":"643c2524ce85d9f46e95f7da","study_id":"64370a36d30bfa807bc7e43c"},{"rt":null,"stimulus":"\n\t\t\t<div class=\"flip_card\">\n\t\t\t\t<div class=\"flip_card_inner\">\n\t\t\t\t\t<div class=\"flip_card_front\">\n\t\t\t\t\t\t<img src=img/11.png>\n\t\t\t\t\t</div>\n\t\t\t\t\t<div class=\"flip_card_back\">\n\t\t\t\t\t\t<h2>A bar mitzvah is traditionally celebrated when Jewish males turn what age?</h2>\n\t\t\t\t\t\t<br>\n\t\t\t\t\t\t<p>Answer: <strong>13</strong></p>\n\t\t\t\t\t</div>\n\t\t\t\t</div>\n\t\t\t</div>\n\t\t\t","response":null,"trial_type":"html-keyboard-response","trial_index":108,"time_elapsed":650635,"internal_node_id":"0.0-3.0-2.25","prolific_id":"63f796a016e377d12cff50f1","session_id":"643c2524ce85d9f46e95f7da","study_id":"64370a36d30bfa807bc7e43c"},{"rt":1269,"stimulus":"\n\t\t\t\t\t<div>\n\t\t\t\t\t<h2>Trial 26 is over</h2>\n\t\t\t\t\t<p>Press <span style=\"color: red\"><strong>any key</strong></span> to continue to the next trial</p>\n\t\t\t\t\t</div>\n\t\t\t\t","response":" ","trial_type":"html-keyboard-response","trial_index":109,"time_elapsed":651905,"internal_node_id":"0.0-3.0-3.25","prolific_id":"63f796a016e377d12cff50f1","session_id":"643c2524ce85d9f46e95f7da","study_id":"64370a36d30bfa807bc7e43c"},{"rt":18123,"response":{"prediction":"6"},"trial_type":"survey-text","trial_index":110,"time_elapsed":670030,"internal_node_id":"0.0-3.0-0.26","prolific_id":"63f796a016e377d12cff50f1","session_id":"643c2524ce85d9f46e95f7da","study_id":"64370a36d30bfa807bc7e43c"},{"rt":3566,"response":{"prior knowledge":0,"curiosity":5},"accuracy":[],"trial_type":"survey","trial_index":111,"time_elapsed":673607,"internal_node_id":"0.0-3.0-1.26","prolific_id":"63f796a016e377d12cff50f1","session_id":"643c2524ce85d9f46e95f7da","study_id":"64370a36d30bfa807bc7e43c"},{"rt":null,"stimulus":"\n\t\t\t<div class=\"flip_card\">\n\t\t\t\t<div class=\"flip_card_inner\">\n\t\t\t\t\t<div class=\"flip_card_front\">\n\t\t\t\t\t\t<img src=img/13.png>\n\t\t\t\t\t</div>\n\t\t\t\t\t<div class=\"flip_card_back\">\n\t\t\t\t\t\t<h2>How many lines are in a sonnet?</h2>\n\t\t\t\t\t\t<br>\n\t\t\t\t\t\t<p>Answer: <strong>14</strong></p>\n\t\t\t\t\t</div>\n\t\t\t\t</div>\n\t\t\t</div>\n\t\t\t","response":null,"trial_type":"html-keyboard-response","trial_index":112,"time_elapsed":678622,"internal_node_id":"0.0-3.0-2.26","prolific_id":"63f796a016e377d12cff50f1","session_id":"643c2524ce85d9f46e95f7da","study_id":"64370a36d30bfa807bc7e43c"},{"rt":1350,"stimulus":"\n\t\t\t\t\t<div>\n\t\t\t\t\t<h2>Trial 27 is over</h2>\n\t\t\t\t\t<p>Press <span style=\"color: red\"><strong>any key</strong></span> to continue to the next trial</p>\n\t\t\t\t\t</div>\n\t\t\t\t","response":" ","trial_type":"html-keyboard-response","trial_index":113,"time_elapsed":679972,"internal_node_id":"0.0-3.0-3.26","prolific_id":"63f796a016e377d12cff50f1","session_id":"643c2524ce85d9f46e95f7da","study_id":"64370a36d30bfa807bc7e43c"},{"rt":15858,"response":{"prediction":"1910"},"trial_type":"survey-text","trial_index":114,"time_elapsed":695832,"internal_node_id":"0.0-3.0-0.27","prolific_id":"63f796a016e377d12cff50f1","session_id":"643c2524ce85d9f46e95f7da","study_id":"64370a36d30bfa807bc7e43c"},{"rt":3604,"response":{"prior knowledge":0,"curiosity":5},"accuracy":[],"trial_type":"survey","trial_index":115,"time_elapsed":699451,"internal_node_id":"0.0-3.0-1.27","prolific_id":"63f796a016e377d12cff50f1","session_id":"643c2524ce85d9f46e95f7da","study_id":"64370a36d30bfa807bc7e43c"},{"rt":null,"stimulus":"\n\t\t\t<div class=\"flip_card\">\n\t\t\t\t<div class=\"flip_card_inner\">\n\t\t\t\t\t<div class=\"flip_card_front\">\n\t\t\t\t\t\t<img src=img/30.png>\n\t\t\t\t\t</div>\n\t\t\t\t\t<div class=\"flip_card_back\">\n\t\t\t\t\t\t<h2>In what year was the Mexican artist Frida Kahlo born?</h2>\n\t\t\t\t\t\t<br>\n\t\t\t\t\t\t<p>Answer: <strong>1907</strong></p>\n\t\t\t\t\t</div>\n\t\t\t\t</div>\n\t\t\t</div>\n\t\t\t","response":null,"trial_type":"html-keyboard-response","trial_index":116,"time_elapsed":704453,"internal_node_id":"0.0-3.0-2.27","prolific_id":"63f796a016e377d12cff50f1","session_id":"643c2524ce85d9f46e95f7da","study_id":"64370a36d30bfa807bc7e43c"},{"rt":1909,"stimulus":"\n\t\t\t\t\t<div>\n\t\t\t\t\t<h2>Trial 28 is over</h2>\n\t\t\t\t\t<p>Press <span style=\"color: red\"><strong>any key</strong></span> to continue to the next trial</p>\n\t\t\t\t\t</div>\n\t\t\t\t","response":" ","trial_type":"html-keyboard-response","trial_index":117,"time_elapsed":706363,"internal_node_id":"0.0-3.0-3.27","prolific_id":"63f796a016e377d12cff50f1","session_id":"643c2524ce85d9f46e95f7da","study_id":"64370a36d30bfa807bc7e43c"},{"rt":9615,"response":{"prediction":"1952"},"trial_type":"survey-text","trial_index":118,"time_elapsed":715980,"internal_node_id":"0.0-3.0-0.28","prolific_id":"63f796a016e377d12cff50f1","session_id":"643c2524ce85d9f46e95f7da","study_id":"64370a36d30bfa807bc7e43c"},{"rt":3393,"response":{"prior knowledge":0,"curiosity":5},"accuracy":[],"trial_type":"survey","trial_index":119,"time_elapsed":719388,"internal_node_id":"0.0-3.0-1.28","prolific_id":"63f796a016e377d12cff50f1","session_id":"643c2524ce85d9f46e95f7da","study_id":"64370a36d30bfa807bc7e43c"},{"rt":null,"stimulus":"\n\t\t\t<div class=\"flip_card\">\n\t\t\t\t<div class=\"flip_card_inner\">\n\t\t\t\t\t<div class=\"flip_card_front\">\n\t\t\t\t\t\t<img src=img/4.png>\n\t\t\t\t\t</div>\n\t\t\t\t\t<div class=\"flip_card_back\">\n\t\t\t\t\t\t<h2>In what year was the first Nobel Prize awarded?</h2>\n\t\t\t\t\t\t<br>\n\t\t\t\t\t\t<p>Answer: <strong>1901</strong></p>\n\t\t\t\t\t</div>\n\t\t\t\t</div>\n\t\t\t</div>\n\t\t\t","response":null,"trial_type":"html-keyboard-response","trial_index":120,"time_elapsed":724395,"internal_node_id":"0.0-3.0-2.28","prolific_id":"63f796a016e377d12cff50f1","session_id":"643c2524ce85d9f46e95f7da","study_id":"64370a36d30bfa807bc7e43c"},{"rt":2194,"stimulus":"\n\t\t\t\t\t<div>\n\t\t\t\t\t<h2>Trial 29 is over</h2>\n\t\t\t\t\t<p>Press <span style=\"color: red\"><strong>any key</strong></span> to continue to the next trial</p>\n\t\t\t\t\t</div>\n\t\t\t\t","response":" ","trial_type":"html-keyboard-response","trial_index":121,"time_elapsed":726590,"internal_node_id":"0.0-3.0-3.28","prolific_id":"63f796a016e377d12cff50f1","session_id":"643c2524ce85d9f46e95f7da","study_id":"64370a36d30bfa807bc7e43c"},{"rt":15405,"response":{"prediction":"26000000"},"trial_type":"survey-text","trial_index":122,"time_elapsed":741999,"internal_node_id":"0.0-3.0-0.29","prolific_id":"63f796a016e377d12cff50f1","session_id":"643c2524ce85d9f46e95f7da","study_id":"64370a36d30bfa807bc7e43c"},{"rt":4165,"response":{"prior knowledge":0,"curiosity":5},"accuracy":[],"trial_type":"survey","trial_index":123,"time_elapsed":746179,"internal_node_id":"0.0-3.0-1.29","prolific_id":"63f796a016e377d12cff50f1","session_id":"643c2524ce85d9f46e95f7da","study_id":"64370a36d30bfa807bc7e43c"},{"rt":null,"stimulus":"\n\t\t\t<div class=\"flip_card\">\n\t\t\t\t<div class=\"flip_card_inner\">\n\t\t\t\t\t<div class=\"flip_card_front\">\n\t\t\t\t\t\t<img src=img/14.png>\n\t\t\t\t\t</div>\n\t\t\t\t\t<div class=\"flip_card_back\">\n\t\t\t\t\t\t<h2>What is the diameter of Earth in miles?</h2>\n\t\t\t\t\t\t<br>\n\t\t\t\t\t\t<p>Answer: <strong>7917.5</strong></p>\n\t\t\t\t\t</div>\n\t\t\t\t</div>\n\t\t\t</div>\n\t\t\t","response":null,"trial_type":"html-keyboard-response","trial_index":124,"time_elapsed":751192,"internal_node_id":"0.0-3.0-2.29","prolific_id":"63f796a016e377d12cff50f1","session_id":"643c2524ce85d9f46e95f7da","study_id":"64370a36d30bfa807bc7e43c"},{"rt":1630,"stimulus":"\n\t\t\t\t\t<div>\n\t\t\t\t\t<h2>Trial 30 is over</h2>\n\t\t\t\t\t<p>Press <span style=\"color: red\"><strong>any key</strong></span> to continue to the next trial</p>\n\t\t\t\t\t</div>\n\t\t\t\t","response":" ","trial_type":"html-keyboard-response","trial_index":125,"time_elapsed":752822,"internal_node_id":"0.0-3.0-3.29","prolific_id":"63f796a016e377d12cff50f1","session_id":"643c2524ce85d9f46e95f7da","study_id":"64370a36d30bfa807bc7e43c"},{"rt":null,"stimulus":"\n\t\t\t<h2>Good job! You've finished the 30 trials:p</h2>\n\t\t\t<p>In the next session, you will see two cards on the screen in each trial.</p>\n\t\t\t<p>On one card is a pattern that you have seen before in the experiment,\n\t\t\t\tand on the other card is one you have not seen.</p><br>\n\t\t\t<p>Your task is to choose the one you think you <em>have</em> seen before for every trial.</p>\n\t\t\t<p>Press '<span style=\"color: red;\"><strong>F</strong></span>' to choose the card on the left,\n\t\t\t\tand '<span style=\"color: red;\"><strong>J</strong></span>' to choose the card on the right.</p>\n\t\t\t<p>Have fun!</p>\n\t\t\t<br>\n\t\t\t<p>The trials will begin in 30 seconds</p>\n\t\t\t","response":null,"trial_type":"html-keyboard-response","trial_index":126,"time_elapsed":782825,"internal_node_id":"0.0-4.0","prolific_id":"63f796a016e377d12cff50f1","session_id":"643c2524ce85d9f46e95f7da","study_id":"64370a36d30bfa807bc7e43c"},{"rt":1707,"stimulus":"\n\t\t\t\t\t\t<div class=\"two_card_container\">\n\t\t\t\t\t\t<div class=\"card_container\">\n\t\t\t\t\t\t<img src=img/40.png>\n\t\t\t\t\t\t</div>\n\n\t\t\t\t\t\t<div class=\"card_container\">\n\t\t\t\t\t\t<img src=img/5.png>\n\t\t\t\t\t\t</div>","response":"j","task":"response","correct_response":"j","trial_type":"html-keyboard-response","trial_index":127,"time_elapsed":784535,"internal_node_id":"0.0-5.0-0.0","prolific_id":"63f796a016e377d12cff50f1","session_id":"643c2524ce85d9f46e95f7da","study_id":"64370a36d30bfa807bc7e43c","correct":true},{"rt":null,"stimulus":"\n\t\t\t\t\t<p>Correct!</p>\n\t\t\t\t\t","response":null,"trial_type":"html-keyboard-response","trial_index":128,"time_elapsed":785536,"internal_node_id":"0.0-5.0-1.0","prolific_id":"63f796a016e377d12cff50f1","session_id":"643c2524ce85d9f46e95f7da","study_id":"64370a36d30bfa807bc7e43c"},{"rt":1878,"stimulus":"\n\t\t\t\t\t\t<div class=\"two_card_container\">\n\t\t\t\t\t\t<div class=\"card_container\">\n\t\t\t\t\t\t<img src=img/34.png>\n\t\t\t\t\t\t</div>\n\n\t\t\t\t\t\t<div class=\"card_container\">\n\t\t\t\t\t\t<img src=img/19.png>\n\t\t\t\t\t\t</div>","response":"j","task":"response","correct_response":"j","trial_type":"html-keyboard-response","trial_index":129,"time_elapsed":787416,"internal_node_id":"0.0-5.0-0.1","prolific_id":"63f796a016e377d12cff50f1","session_id":"643c2524ce85d9f46e95f7da","study_id":"64370a36d30bfa807bc7e43c","correct":true},{"rt":null,"stimulus":"\n\t\t\t\t\t<p>Correct!</p>\n\t\t\t\t\t","response":null,"trial_type":"html-keyboard-response","trial_index":130,"time_elapsed":788430,"internal_node_id":"0.0-5.0-1.1","prolific_id":"63f796a016e377d12cff50f1","session_id":"643c2524ce85d9f46e95f7da","study_id":"64370a36d30bfa807bc7e43c"},{"rt":1779,"stimulus":"\n\t\t\t\t\t\t<div class=\"two_card_container\">\n\t\t\t\t\t\t<div class=\"card_container\">\n\t\t\t\t\t\t<img src=img/32.png>\n\t\t\t\t\t\t</div>\n\n\t\t\t\t\t\t<div class=\"card_container\">\n\t\t\t\t\t\t<img src=img/1.png>\n\t\t\t\t\t\t</div>","response":"j","task":"response","correct_response":"j","trial_type":"html-keyboard-response","trial_index":131,"time_elapsed":790210,"internal_node_id":"0.0-5.0-0.2","prolific_id":"63f796a016e377d12cff50f1","session_id":"643c2524ce85d9f46e95f7da","study_id":"64370a36d30bfa807bc7e43c","correct":true},{"rt":null,"stimulus":"\n\t\t\t\t\t<p>Correct!</p>\n\t\t\t\t\t","response":null,"trial_type":"html-keyboard-response","trial_index":132,"time_elapsed":791226,"internal_node_id":"0.0-5.0-1.2","prolific_id":"63f796a016e377d12cff50f1","session_id":"643c2524ce85d9f46e95f7da","study_id":"64370a36d30bfa807bc7e43c"},{"rt":1499,"stimulus":"\n\t\t\t\t\t\t<div class=\"two_card_container\">\n\t\t\t\t\t\t<div class=\"card_container\">\n\t\t\t\t\t\t<img src=img/38.png>\n\t\t\t\t\t\t</div>\n\n\t\t\t\t\t\t<div class=\"card_container\">\n\t\t\t\t\t\t<img src=img/9.png>\n\t\t\t\t\t\t</div>","response":"j","task":"response","correct_response":"j","trial_type":"html-keyboard-response","trial_index":133,"time_elapsed":792726,"internal_node_id":"0.0-5.0-0.3","prolific_id":"63f796a016e377d12cff50f1","session_id":"643c2524ce85d9f46e95f7da","study_id":"64370a36d30bfa807bc7e43c","correct":true},{"rt":null,"stimulus":"\n\t\t\t\t\t<p>Correct!</p>\n\t\t\t\t\t","response":null,"trial_type":"html-keyboard-response","trial_index":134,"time_elapsed":793741,"internal_node_id":"0.0-5.0-1.3","prolific_id":"63f796a016e377d12cff50f1","session_id":"643c2524ce85d9f46e95f7da","study_id":"64370a36d30bfa807bc7e43c"},{"rt":1441,"stimulus":"\n\t\t\t\t\t\t<div class=\"two_card_container\">\n\t\t\t\t\t\t<div class=\"card_container\">\n\t\t\t\t\t\t<img src=img/7.png>\n\t\t\t\t\t\t</div>\n\n\t\t\t\t\t\t<div class=\"card_container\">\n\t\t\t\t\t\t<img src=img/31.png>\n\t\t\t\t\t\t</div>","response":"f","task":"response","correct_response":"f","trial_type":"html-keyboard-response","trial_index":135,"time_elapsed":795183,"internal_node_id":"0.0-5.0-0.4","prolific_id":"63f796a016e377d12cff50f1","session_id":"643c2524ce85d9f46e95f7da","study_id":"64370a36d30bfa807bc7e43c","correct":true},{"rt":null,"stimulus":"\n\t\t\t\t\t<p>Correct!</p>\n\t\t\t\t\t","response":null,"trial_type":"html-keyboard-response","trial_index":136,"time_elapsed":796188,"internal_node_id":"0.0-5.0-1.4","prolific_id":"63f796a016e377d12cff50f1","session_id":"643c2524ce85d9f46e95f7da","study_id":"64370a36d30bfa807bc7e43c"},{"rt":1366,"stimulus":"\n\t\t\t\t\t\t<div class=\"two_card_container\">\n\t\t\t\t\t\t<div class=\"card_container\">\n\t\t\t\t\t\t<img src=img/12.png>\n\t\t\t\t\t\t</div>\n\n\t\t\t\t\t\t<div class=\"card_container\">\n\t\t\t\t\t\t<img src=img/37.png>\n\t\t\t\t\t\t</div>","response":"f","task":"response","correct_response":"f","trial_type":"html-keyboard-response","trial_index":137,"time_elapsed":797555,"internal_node_id":"0.0-5.0-0.5","prolific_id":"63f796a016e377d12cff50f1","session_id":"643c2524ce85d9f46e95f7da","study_id":"64370a36d30bfa807bc7e43c","correct":true},{"rt":null,"stimulus":"\n\t\t\t\t\t<p>Correct!</p>\n\t\t\t\t\t","response":null,"trial_type":"html-keyboard-response","trial_index":138,"time_elapsed":798558,"internal_node_id":"0.0-5.0-1.5","prolific_id":"63f796a016e377d12cff50f1","session_id":"643c2524ce85d9f46e95f7da","study_id":"64370a36d30bfa807bc7e43c"},{"rt":1593,"stimulus":"\n\t\t\t\t\t\t<div class=\"two_card_container\">\n\t\t\t\t\t\t<div class=\"card_container\">\n\t\t\t\t\t\t<img src=img/11.png>\n\t\t\t\t\t\t</div>\n\n\t\t\t\t\t\t<div class=\"card_container\">\n\t\t\t\t\t\t<img src=img/35.png>\n\t\t\t\t\t\t</div>","response":"f","task":"response","correct_response":"f","trial_type":"html-keyboard-response","trial_index":139,"time_elapsed":800152,"internal_node_id":"0.0-5.0-0.6","prolific_id":"63f796a016e377d12cff50f1","session_id":"643c2524ce85d9f46e95f7da","study_id":"64370a36d30bfa807bc7e43c","correct":true},{"rt":null,"stimulus":"\n\t\t\t\t\t<p>Correct!</p>\n\t\t\t\t\t","response":null,"trial_type":"html-keyboard-response","trial_index":140,"time_elapsed":801165,"internal_node_id":"0.0-5.0-1.6","prolific_id":"63f796a016e377d12cff50f1","session_id":"643c2524ce85d9f46e95f7da","study_id":"64370a36d30bfa807bc7e43c"},{"rt":1259,"stimulus":"\n\t\t\t\t\t\t<div class=\"two_card_container\">\n\t\t\t\t\t\t<div class=\"card_container\">\n\t\t\t\t\t\t<img src=img/23.png>\n\t\t\t\t\t\t</div>\n\n\t\t\t\t\t\t<div class=\"card_container\">\n\t\t\t\t\t\t<img src=img/33.png>\n\t\t\t\t\t\t</div>","response":"f","task":"response","correct_response":"f","trial_type":"html-keyboard-response","trial_index":141,"time_elapsed":802425,"internal_node_id":"0.0-5.0-0.7","prolific_id":"63f796a016e377d12cff50f1","session_id":"643c2524ce85d9f46e95f7da","study_id":"64370a36d30bfa807bc7e43c","correct":true},{"rt":null,"stimulus":"\n\t\t\t\t\t<p>Correct!</p>\n\t\t\t\t\t","response":null,"trial_type":"html-keyboard-response","trial_index":142,"time_elapsed":803437,"internal_node_id":"0.0-5.0-1.7","prolific_id":"63f796a016e377d12cff50f1","session_id":"643c2524ce85d9f46e95f7da","study_id":"64370a36d30bfa807bc7e43c"},{"rt":1406,"stimulus":"\n\t\t\t\t\t\t<div class=\"two_card_container\">\n\t\t\t\t\t\t<div class=\"card_container\">\n\t\t\t\t\t\t<img src=img/36.png>\n\t\t\t\t\t\t</div>\n\n\t\t\t\t\t\t<div class=\"card_container\">\n\t\t\t\t\t\t<img src=img/22.png>\n\t\t\t\t\t\t</div>","response":"j","task":"response","correct_response":"j","trial_type":"html-keyboard-response","trial_index":143,"time_elapsed":804844,"internal_node_id":"0.0-5.0-0.8","prolific_id":"63f796a016e377d12cff50f1","session_id":"643c2524ce85d9f46e95f7da","study_id":"64370a36d30bfa807bc7e43c","correct":true},{"rt":null,"stimulus":"\n\t\t\t\t\t<p>Correct!</p>\n\t\t\t\t\t","response":null,"trial_type":"html-keyboard-response","trial_index":144,"time_elapsed":805846,"internal_node_id":"0.0-5.0-1.8","prolific_id":"63f796a016e377d12cff50f1","session_id":"643c2524ce85d9f46e95f7da","study_id":"64370a36d30bfa807bc7e43c"},{"rt":1437,"stimulus":"\n\t\t\t\t\t\t<div class=\"two_card_container\">\n\t\t\t\t\t\t<div class=\"card_container\">\n\t\t\t\t\t\t<img src=img/25.png>\n\t\t\t\t\t\t</div>\n\n\t\t\t\t\t\t<div class=\"card_container\">\n\t\t\t\t\t\t<img src=img/39.png>\n\t\t\t\t\t\t</div>","response":"f","task":"response","correct_response":"f","trial_type":"html-keyboard-response","trial_index":145,"time_elapsed":807284,"internal_node_id":"0.0-5.0-0.9","prolific_id":"63f796a016e377d12cff50f1","session_id":"643c2524ce85d9f46e95f7da","study_id":"64370a36d30bfa807bc7e43c","correct":true},{"rt":null,"stimulus":"\n\t\t\t\t\t<p>Correct!</p>\n\t\t\t\t\t","response":null,"trial_type":"html-keyboard-response","trial_index":146,"time_elapsed":808286,"internal_node_id":"0.0-5.0-1.9","prolific_id":"63f796a016e377d12cff50f1","session_id":"643c2524ce85d9f46e95f7da","study_id":"64370a36d30bfa807bc7e43c"},{"rt":null,"stimulus":"\n\t\t\t<h2>Good job :p</h2>\n\t\t\t<p>In the next session, you will see a trivia question on the screen in each trial.</p>\n\t\t\t<p>Each of these trivia questions is chosen from the questions you have already seen in the first session of the experiment.</p><br>\n\t\t\t<p>Your task is to answer the trivia question based on what you remember as accurately as you can.</p>\n\t\t\t<p>Have fun!</p>\n\t\t\t<br>\n\t\t\t<p>The trials will begin in 30 seconds</p>\n\t\t\t","response":null,"trial_type":"html-keyboard-response","trial_index":147,"time_elapsed":838288,"internal_node_id":"0.0-6.0","prolific_id":"63f796a016e377d12cff50f1","session_id":"643c2524ce85d9f46e95f7da","study_id":"64370a36d30bfa807bc7e43c"},{"rt":5318,"response":{"answer":"6"},"task":"response","correct_response":"6","trial_type":"survey-text","trial_index":148,"time_elapsed":843609,"internal_node_id":"0.0-7.0-0.0","prolific_id":"63f796a016e377d12cff50f1","session_id":"643c2524ce85d9f46e95f7da","study_id":"64370a36d30bfa807bc7e43c","difference":0},{"rt":null,"stimulus":"<h2>The correct answer is 6.</h2><p>Your answer was different from the answer by 0.</p><p>You got the right answer. Amazing work!</p>","response":null,"trial_type":"html-keyboard-response","trial_index":149,"time_elapsed":846112,"internal_node_id":"0.0-7.0-1.0","prolific_id":"63f796a016e377d12cff50f1","session_id":"643c2524ce85d9f46e95f7da","study_id":"64370a36d30bfa807bc7e43c"},{"rt":6841,"response":{"answer":"21"},"task":"response","correct_response":"21","trial_type":"survey-text","trial_index":150,"time_elapsed":852955,"internal_node_id":"0.0-7.0-0.1","prolific_id":"63f796a016e377d12cff50f1","session_id":"643c2524ce85d9f46e95f7da","study_id":"64370a36d30bfa807bc7e43c","difference":0},{"rt":null,"stimulus":"<h2>The correct answer is 21.</h2><p>Your answer was different from the answer by 0.</p><p>You got the right answer. Amazing work!</p>","response":null,"trial_type":"html-keyboard-response","trial_index":151,"time_elapsed":855461,"internal_node_id":"0.0-7.0-1.1","prolific_id":"63f796a016e377d12cff50f1","session_id":"643c2524ce85d9f46e95f7da","study_id":"64370a36d30bfa807bc7e43c"},{"rt":4896,"response":{"answer":"1901"},"task":"response","correct_response":"1901","trial_type":"survey-text","trial_index":152,"time_elapsed":860359,"internal_node_id":"0.0-7.0-0.2","prolific_id":"63f796a016e377d12cff50f1","session_id":"643c2524ce85d9f46e95f7da","study_id":"64370a36d30bfa807bc7e43c","difference":0},{"rt":null,"stimulus":"<h2>The correct answer is 1901.</h2><p>Your answer was different from the answer by 0.</p><p>You got the right answer. Amazing work!</p>","response":null,"trial_type":"html-keyboard-response","trial_index":153,"time_elapsed":862869,"internal_node_id":"0.0-7.0-1.2","prolific_id":"63f796a016e377d12cff50f1","session_id":"643c2524ce85d9f46e95f7da","study_id":"64370a36d30bfa807bc7e43c"},{"rt":3671,"response":{"answer":"14"},"task":"response","correct_response":"14","trial_type":"survey-text","trial_index":154,"time_elapsed":866543,"internal_node_id":"0.0-7.0-0.3","prolific_id":"63f796a016e377d12cff50f1","session_id":"643c2524ce85d9f46e95f7da","study_id":"64370a36d30bfa807bc7e43c","difference":0},{"rt":null,"stimulus":"<h2>The correct answer is 14.</h2><p>Your answer was different from the answer by 0.</p><p>You got the right answer. Amazing work!</p>","response":null,"trial_type":"html-keyboard-response","trial_index":155,"time_elapsed":869047,"internal_node_id":"0.0-7.0-1.3","prolific_id":"63f796a016e377d12cff50f1","session_id":"643c2524ce85d9f46e95f7da","study_id":"64370a36d30bfa807bc7e43c"},{"rt":11392,"response":{"answer":"23179"},"task":"response","correct_response":"13171","trial_type":"survey-text","trial_index":156,"time_elapsed":880441,"internal_node_id":"0.0-7.0-0.4","prolific_id":"63f796a016e377d12cff50f1","session_id":"643c2524ce85d9f46e95f7da","study_id":"64370a36d30bfa807bc7e43c","difference":76},{"rt":null,"stimulus":"<h2>The correct answer is 13171.</h2><p>Your answer was different from the answer by 10008.</p><p>Not even close... do better next time!</p>","response":null,"trial_type":"html-keyboard-response","trial_index":157,"time_elapsed":882946,"internal_node_id":"0.0-7.0-1.4","prolific_id":"63f796a016e377d12cff50f1","session_id":"643c2524ce85d9f46e95f7da","study_id":"64370a36d30bfa807bc7e43c"},{"rt":3225,"response":{"answer":"4"},"task":"response","correct_response":"4","trial_type":"survey-text","trial_index":158,"time_elapsed":886173,"internal_node_id":"0.0-7.0-0.5","prolific_id":"63f796a016e377d12cff50f1","session_id":"643c2524ce85d9f46e95f7da","study_id":"64370a36d30bfa807bc7e43c","difference":0},{"rt":null,"stimulus":"<h2>The correct answer is 4.</h2><p>Your answer was different from the answer by 0.</p><p>You got the right answer. Amazing work!</p>","response":null,"trial_type":"html-keyboard-response","trial_index":159,"time_elapsed":888680,"internal_node_id":"0.0-7.0-1.5","prolific_id":"63f796a016e377d12cff50f1","session_id":"643c2524ce85d9f46e95f7da","study_id":"64370a36d30bfa807bc7e43c"},{"rt":8679,"response":{"answer":"11"},"task":"response","correct_response":"11","trial_type":"survey-text","trial_index":160,"time_elapsed":897361,"internal_node_id":"0.0-7.0-0.6","prolific_id":"63f796a016e377d12cff50f1","session_id":"643c2524ce85d9f46e95f7da","study_id":"64370a36d30bfa807bc7e43c","difference":0},{"rt":null,"stimulus":"<h2>The correct answer is 11.</h2><p>Your answer was different from the answer by 0.</p><p>You got the right answer. Amazing work!</p>","response":null,"trial_type":"html-keyboard-response","trial_index":161,"time_elapsed":899877,"internal_node_id":"0.0-7.0-1.6","prolific_id":"63f796a016e377d12cff50f1","session_id":"643c2524ce85d9f46e95f7da","study_id":"64370a36d30bfa807bc7e43c"},{"rt":3625,"response":{"answer":"2007"},"task":"response","correct_response":"2007","trial_type":"survey-text","trial_index":162,"time_elapsed":903505,"internal_node_id":"0.0-7.0-0.7","prolific_id":"63f796a016e377d12cff50f1","session_id":"643c2524ce85d9f46e95f7da","study_id":"64370a36d30bfa807bc7e43c","difference":0},{"rt":null,"stimulus":"<h2>The correct answer is 2007.</h2><p>Your answer was different from the answer by 0.</p><p>You got the right answer. Amazing work!</p>","response":null,"trial_type":"html-keyboard-response","trial_index":163,"time_elapsed":906007,"internal_node_id":"0.0-7.0-1.7","prolific_id":"63f796a016e377d12cff50f1","session_id":"643c2524ce85d9f46e95f7da","study_id":"64370a36d30bfa807bc7e43c"},{"rt":3185,"response":{"answer":"65"},"task":"response","correct_response":"65","trial_type":"survey-text","trial_index":164,"time_elapsed":909195,"internal_node_id":"0.0-7.0-0.8","prolific_id":"63f796a016e377d12cff50f1","session_id":"643c2524ce85d9f46e95f7da","study_id":"64370a36d30bfa807bc7e43c","difference":0},{"rt":null,"stimulus":"<h2>The correct answer is 65.</h2><p>Your answer was different from the answer by 0.</p><p>You got the right answer. Amazing work!</p>","response":null,"trial_type":"html-keyboard-response","trial_index":165,"time_elapsed":911697,"internal_node_id":"0.0-7.0-1.8","prolific_id":"63f796a016e377d12cff50f1","session_id":"643c2524ce85d9f46e95f7da","study_id":"64370a36d30bfa807bc7e43c"},{"rt":4231,"response":{"answer":"28"},"task":"response","correct_response":"28","trial_type":"survey-text","trial_index":166,"time_elapsed":915930,"internal_node_id":"0.0-7.0-0.9","prolific_id":"63f796a016e377d12cff50f1","session_id":"643c2524ce85d9f46e95f7da","study_id":"64370a36d30bfa807bc7e43c","difference":0},{"rt":null,"stimulus":"<h2>The correct answer is 28.</h2><p>Your answer was different from the answer by 0.</p><p>You got the right answer. Amazing work!</p>","response":null,"trial_type":"html-keyboard-response","trial_index":167,"time_elapsed":918441,"internal_node_id":"0.0-7.0-1.9","prolific_id":"63f796a016e377d12cff50f1","session_id":"643c2524ce85d9f46e95f7da","study_id":"64370a36d30bfa807bc7e43c"}]