[{"success":true,"timeout":false,"failed_images":[],"failed_audio":[],"failed_video":[],"trial_type":"preload","trial_index":0,"time_elapsed":31795,"internal_node_id":"0.0-0.0","prolific_id":"63fa47854a6eae0d497059e5","session_id":"643c25256c0084a241512dab","study_id":"64370a36d30bfa807bc7e43c"},{"rt":15817,"stimulus":"\n\t\t\t\t\t<p>Welcome and thank you for participating in this study!</p>\n\t\t\t\t\t<p>In each trial, you will be given a trivia question and then be asked to:</p><br>\n\t\t\t\t\t<div class=\"list\">\n\t\t\t\t\t<p>1) Predict the answer</p>\n\t\t\t\t\t<p>2) Rate how much you already know about the topic</p>\n\t\t\t\t\t<p>3) Rate how much you want to know the answer</p>\n\t\t\t\t\t</div>\n\t\t\t\t\t<br>\n\t\t\t\t\t<p>Then, you will see a card that flips over to reveal the answer.</p>\n\t\t\t\t\t<br>\n\t\t\t\t\t<p>Let's try a practice round. Press <span style=\"color: red\"><strong>any key</strong></span> to move to the next slide</p>\n\t\t\t\t\t","response":"enter","trial_type":"html-keyboard-response","trial_index":1,"time_elapsed":47614,"internal_node_id":"0.0-1.0","prolific_id":"63fa47854a6eae0d497059e5","session_id":"643c25256c0084a241512dab","study_id":"64370a36d30bfa807bc7e43c"},{"rt":10231,"response":{"practice prediction":"6"},"task":"practice","trial_type":"survey-text","trial_index":2,"time_elapsed":57868,"internal_node_id":"0.0-2.0-0.0","prolific_id":"63fa47854a6eae0d497059e5","session_id":"643c25256c0084a241512dab","study_id":"64370a36d30bfa807bc7e43c"},{"rt":6409,"response":{"practice":4},"accuracy":[],"trial_type":"survey","trial_index":3,"time_elapsed":64356,"internal_node_id":"0.0-2.0-1.0","prolific_id":"63fa47854a6eae0d497059e5","session_id":"643c25256c0084a241512dab","study_id":"64370a36d30bfa807bc7e43c"},{"rt":null,"stimulus":"\n\t\t\t\t<div class=\"flip_card\">\n\t\t\t\t\t<div class=\"flip_card_inner\">\n\t\t\t\t\t\t<div class=\"flip_card_front\">\n\t\t\t\t\t\t\t<img src=img/practice.png>\n\t\t\t\t\t\t</div>\n\t\t\t\t\t\t<div class=\"flip_card_back\">\n\t\t\t\t\t\t\t<h2>\"How many legs does a lobster have?\"</h2>\n\t\t\t\t\t\t    <br>\n\t\t\t\t\t\t    <p>Answer: <strong>\"10\"</strong></p>\n\t\t\t\t\t    </div>\n\t\t\t\t    </div>\n\t\t\t    </div>\n\t\t\t\t","response":null,"trial_type":"html-keyboard-response","trial_index":4,"time_elapsed":69364,"internal_node_id":"0.0-2.0-2.0","prolific_id":"63fa47854a6eae0d497059e5","session_id":"643c25256c0084a241512dab","study_id":"64370a36d30bfa807bc7e43c"},{"rt":2252,"stimulus":"\n\t\t\t\t\t<div>\n\t\t\t\t\t<h2>The practice round is over</h2>\n\t\t\t\t\t<p>Press <span style=\"color: red\"><strong>any key</strong></span> to continue to the actual trials</p>\n\t\t\t\t\t<p>Good Luck!</p>\n\t\t\t\t\t</div>\n\t\t\t\t\t","response":"m","trial_type":"html-keyboard-response","trial_index":5,"time_elapsed":71617,"internal_node_id":"0.0-2.0-3.0","prolific_id":"63fa47854a6eae0d497059e5","session_id":"643c25256c0084a241512dab","study_id":"64370a36d30bfa807bc7e43c"},{"rt":10061,"response":{"prediction":"20"},"trial_type":"survey-text","trial_index":6,"time_elapsed":81682,"internal_node_id":"0.0-3.0-0.0","prolific_id":"63fa47854a6eae0d497059e5","session_id":"643c25256c0084a241512dab","study_id":"64370a36d30bfa807bc7e43c"},{"rt":6398,"response":{"prior knowledge":0,"curiosity":4},"accuracy":[],"trial_type":"survey","trial_index":7,"time_elapsed":88110,"internal_node_id":"0.0-3.0-1.0","prolific_id":"63fa47854a6eae0d497059e5","session_id":"643c25256c0084a241512dab","study_id":"64370a36d30bfa807bc7e43c"},{"rt":null,"stimulus":"\n\t\t\t<div class=\"flip_card\">\n\t\t\t\t<div class=\"flip_card_inner\">\n\t\t\t\t\t<div class=\"flip_card_front\">\n\t\t\t\t\t\t<img src=img/27.png>\n\t\t\t\t\t</div>\n\t\t\t\t\t<div class=\"flip_card_back\">\n\t\t\t\t\t\t<h2>How many native species of kangaroos are found in Australia?</h2>\n\t\t\t\t\t\t<br>\n\t\t\t\t\t\t<p>Answer: <strong>4</strong></p>\n\t\t\t\t\t</div>\n\t\t\t\t</div>\n\t\t\t</div>\n\t\t\t","response":null,"trial_type":"html-keyboard-response","trial_index":8,"time_elapsed":93118,"internal_node_id":"0.0-3.0-2.0","prolific_id":"63fa47854a6eae0d497059e5","session_id":"643c25256c0084a241512dab","study_id":"64370a36d30bfa807bc7e43c"},{"rt":1776,"stimulus":"\n\t\t\t\t\t<div>\n\t\t\t\t\t<h2>Trial 1 is over</h2>\n\t\t\t\t\t<p>Press <span style=\"color: red\"><strong>any key</strong></span> to continue to the next trial</p>\n\t\t\t\t\t</div>\n\t\t\t\t","response":"h","trial_type":"html-keyboard-response","trial_index":9,"time_elapsed":94895,"internal_node_id":"0.0-3.0-3.0","prolific_id":"63fa47854a6eae0d497059e5","session_id":"643c25256c0084a241512dab","study_id":"64370a36d30bfa807bc7e43c"},{"rt":6675,"response":{"prediction":"5"},"trial_type":"survey-text","trial_index":10,"time_elapsed":101573,"internal_node_id":"0.0-3.0-0.1","prolific_id":"63fa47854a6eae0d497059e5","session_id":"643c25256c0084a241512dab","study_id":"64370a36d30bfa807bc7e43c"},{"rt":3356,"response":{"prior knowledge":0,"curiosity":3},"accuracy":[],"trial_type":"survey","trial_index":11,"time_elapsed":104957,"internal_node_id":"0.0-3.0-1.1","prolific_id":"63fa47854a6eae0d497059e5","session_id":"643c25256c0084a241512dab","study_id":"64370a36d30bfa807bc7e43c"},{"rt":null,"stimulus":"\n\t\t\t<div class=\"flip_card\">\n\t\t\t\t<div class=\"flip_card_inner\">\n\t\t\t\t\t<div class=\"flip_card_front\">\n\t\t\t\t\t\t<img src=img/15.png>\n\t\t\t\t\t</div>\n\t\t\t\t\t<div class=\"flip_card_back\">\n\t\t\t\t\t\t<h2>How many lines are in a sonnet?</h2>\n\t\t\t\t\t\t<br>\n\t\t\t\t\t\t<p>Answer: <strong>14</strong></p>\n\t\t\t\t\t</div>\n\t\t\t\t</div>\n\t\t\t</div>\n\t\t\t","response":null,"trial_type":"html-keyboard-response","trial_index":12,"time_elapsed":109969,"internal_node_id":"0.0-3.0-2.1","prolific_id":"63fa47854a6eae0d497059e5","session_id":"643c25256c0084a241512dab","study_id":"64370a36d30bfa807bc7e43c"},{"rt":1448,"stimulus":"\n\t\t\t\t\t<div>\n\t\t\t\t\t<h2>Trial 2 is over</h2>\n\t\t\t\t\t<p>Press <span style=\"color: red\"><strong>any key</strong></span> to continue to the next trial</p>\n\t\t\t\t\t</div>\n\t\t\t\t","response":"j","trial_type":"html-keyboard-response","trial_index":13,"time_elapsed":111418,"internal_node_id":"0.0-3.0-3.1","prolific_id":"63fa47854a6eae0d497059e5","session_id":"643c25256c0084a241512dab","study_id":"64370a36d30bfa807bc7e43c"},{"rt":3638,"response":{"prediction":"3"},"trial_type":"survey-text","trial_index":14,"time_elapsed":115058,"internal_node_id":"0.0-3.0-0.2","prolific_id":"63fa47854a6eae0d497059e5","session_id":"643c25256c0084a241512dab","study_id":"64370a36d30bfa807bc7e43c"},{"rt":3202,"response":{"prior knowledge":3,"curiosity":3},"accuracy":[],"trial_type":"survey","trial_index":15,"time_elapsed":118291,"internal_node_id":"0.0-3.0-1.2","prolific_id":"63fa47854a6eae0d497059e5","session_id":"643c25256c0084a241512dab","study_id":"64370a36d30bfa807bc7e43c"},{"rt":null,"stimulus":"\n\t\t\t<div class=\"flip_card\">\n\t\t\t\t<div class=\"flip_card_inner\">\n\t\t\t\t\t<div class=\"flip_card_front\">\n\t\t\t\t\t\t<img src=img/9.png>\n\t\t\t\t\t</div>\n\t\t\t\t\t<div class=\"flip_card_back\">\n\t\t\t\t\t\t<h2>How many times a day do Muslims pray?</h2>\n\t\t\t\t\t\t<br>\n\t\t\t\t\t\t<p>Answer: <strong>5</strong></p>\n\t\t\t\t\t</div>\n\t\t\t\t</div>\n\t\t\t</div>\n\t\t\t","response":null,"trial_type":"html-keyboard-response","trial_index":16,"time_elapsed":123302,"internal_node_id":"0.0-3.0-2.2","prolific_id":"63fa47854a6eae0d497059e5","session_id":"643c25256c0084a241512dab","study_id":"64370a36d30bfa807bc7e43c"},{"rt":1184,"stimulus":"\n\t\t\t\t\t<div>\n\t\t\t\t\t<h2>Trial 3 is over</h2>\n\t\t\t\t\t<p>Press <span style=\"color: red\"><strong>any key</strong></span> to continue to the next trial</p>\n\t\t\t\t\t</div>\n\t\t\t\t","response":"j","trial_type":"html-keyboard-response","trial_index":17,"time_elapsed":124487,"internal_node_id":"0.0-3.0-3.2","prolific_id":"63fa47854a6eae0d497059e5","session_id":"643c25256c0084a241512dab","study_id":"64370a36d30bfa807bc7e43c"},{"rt":5142,"response":{"prediction":"13"},"trial_type":"survey-text","trial_index":18,"time_elapsed":129631,"internal_node_id":"0.0-3.0-0.3","prolific_id":"63fa47854a6eae0d497059e5","session_id":"643c25256c0084a241512dab","study_id":"64370a36d30bfa807bc7e43c"},{"rt":4946,"response":{"prior knowledge":1,"curiosity":1},"accuracy":[],"trial_type":"survey","trial_index":19,"time_elapsed":134605,"internal_node_id":"0.0-3.0-1.3","prolific_id":"63fa47854a6eae0d497059e5","session_id":"643c25256c0084a241512dab","study_id":"64370a36d30bfa807bc7e43c"},{"rt":null,"stimulus":"\n\t\t\t<div class=\"flip_card\">\n\t\t\t\t<div class=\"flip_card_inner\">\n\t\t\t\t\t<div class=\"flip_card_front\">\n\t\t\t\t\t\t<img src=img/10.png>\n\t\t\t\t\t</div>\n\t\t\t\t\t<div class=\"flip_card_back\">\n\t\t\t\t\t\t<h2>How many books are in the Catholic Bible?</h2>\n\t\t\t\t\t\t<br>\n\t\t\t\t\t\t<p>Answer: <strong>73</strong></p>\n\t\t\t\t\t</div>\n\t\t\t\t</div>\n\t\t\t</div>\n\t\t\t","response":null,"trial_type":"html-keyboard-response","trial_index":20,"time_elapsed":139616,"internal_node_id":"0.0-3.0-2.3","prolific_id":"63fa47854a6eae0d497059e5","session_id":"643c25256c0084a241512dab","study_id":"64370a36d30bfa807bc7e43c"},{"rt":741,"stimulus":"\n\t\t\t\t\t<div>\n\t\t\t\t\t<h2>Trial 4 is over</h2>\n\t\t\t\t\t<p>Press <span style=\"color: red\"><strong>any key</strong></span> to continue to the next trial</p>\n\t\t\t\t\t</div>\n\t\t\t\t","response":"j","trial_type":"html-keyboard-response","trial_index":21,"time_elapsed":140358,"internal_node_id":"0.0-3.0-3.3","prolific_id":"63fa47854a6eae0d497059e5","session_id":"643c25256c0084a241512dab","study_id":"64370a36d30bfa807bc7e43c"},{"rt":5836,"response":{"prediction":"200"},"trial_type":"survey-text","trial_index":22,"time_elapsed":146196,"internal_node_id":"0.0-3.0-0.4","prolific_id":"63fa47854a6eae0d497059e5","session_id":"643c25256c0084a241512dab","study_id":"64370a36d30bfa807bc7e43c"},{"rt":4497,"response":{"prior knowledge":2,"curiosity":4},"accuracy":[],"trial_type":"survey","trial_index":23,"time_elapsed":150717,"internal_node_id":"0.0-3.0-1.4","prolific_id":"63fa47854a6eae0d497059e5","session_id":"643c25256c0084a241512dab","study_id":"64370a36d30bfa807bc7e43c"},{"rt":null,"stimulus":"\n\t\t\t<div class=\"flip_card\">\n\t\t\t\t<div class=\"flip_card_inner\">\n\t\t\t\t\t<div class=\"flip_card_front\">\n\t\t\t\t\t\t<img src=img/30.png>\n\t\t\t\t\t</div>\n\t\t\t\t\t<div class=\"flip_card_back\">\n\t\t\t\t\t\t<h2>How long is the Great Wall of China (in miles)?</h2>\n\t\t\t\t\t\t<br>\n\t\t\t\t\t\t<p>Answer: <strong>13171</strong></p>\n\t\t\t\t\t</div>\n\t\t\t\t</div>\n\t\t\t</div>\n\t\t\t","response":null,"trial_type":"html-keyboard-response","trial_index":24,"time_elapsed":155727,"internal_node_id":"0.0-3.0-2.4","prolific_id":"63fa47854a6eae0d497059e5","session_id":"643c25256c0084a241512dab","study_id":"64370a36d30bfa807bc7e43c"},{"rt":818,"stimulus":"\n\t\t\t\t\t<div>\n\t\t\t\t\t<h2>Trial 5 is over</h2>\n\t\t\t\t\t<p>Press <span style=\"color: red\"><strong>any key</strong></span> to continue to the next trial</p>\n\t\t\t\t\t</div>\n\t\t\t\t","response":"k","trial_type":"html-keyboard-response","trial_index":25,"time_elapsed":156546,"internal_node_id":"0.0-3.0-3.4","prolific_id":"63fa47854a6eae0d497059e5","session_id":"643c25256c0084a241512dab","study_id":"64370a36d30bfa807bc7e43c"},{"rt":14201,"response":{"prediction":"1932"},"trial_type":"survey-text","trial_index":26,"time_elapsed":170750,"internal_node_id":"0.0-3.0-0.5","prolific_id":"63fa47854a6eae0d497059e5","session_id":"643c25256c0084a241512dab","study_id":"64370a36d30bfa807bc7e43c"},{"rt":4056,"response":{"prior knowledge":3,"curiosity":3},"accuracy":[],"trial_type":"survey","trial_index":27,"time_elapsed":174829,"internal_node_id":"0.0-3.0-1.5","prolific_id":"63fa47854a6eae0d497059e5","session_id":"643c25256c0084a241512dab","study_id":"64370a36d30bfa807bc7e43c"},{"rt":null,"stimulus":"\n\t\t\t<div class=\"flip_card\">\n\t\t\t\t<div class=\"flip_card_inner\">\n\t\t\t\t\t<div class=\"flip_card_front\">\n\t\t\t\t\t\t<img src=img/23.png>\n\t\t\t\t\t</div>\n\t\t\t\t\t<div class=\"flip_card_back\">\n\t\t\t\t\t\t<h2>What year did the titanic sink?</h2>\n\t\t\t\t\t\t<br>\n\t\t\t\t\t\t<p>Answer: <strong>1912</strong></p>\n\t\t\t\t\t</div>\n\t\t\t\t</div>\n\t\t\t</div>\n\t\t\t","response":null,"trial_type":"html-keyboard-response","trial_index":28,"time_elapsed":179837,"internal_node_id":"0.0-3.0-2.5","prolific_id":"63fa47854a6eae0d497059e5","session_id":"643c25256c0084a241512dab","study_id":"64370a36d30bfa807bc7e43c"},{"rt":1356,"stimulus":"\n\t\t\t\t\t<div>\n\t\t\t\t\t<h2>Trial 6 is over</h2>\n\t\t\t\t\t<p>Press <span style=\"color: red\"><strong>any key</strong></span> to continue to the next trial</p>\n\t\t\t\t\t</div>\n\t\t\t\t","response":"j","trial_type":"html-keyboard-response","trial_index":29,"time_elapsed":181194,"internal_node_id":"0.0-3.0-3.5","prolific_id":"63fa47854a6eae0d497059e5","session_id":"643c25256c0084a241512dab","study_id":"64370a36d30bfa807bc7e43c"},{"rt":4656,"response":{"prediction":"100"},"trial_type":"survey-text","trial_index":30,"time_elapsed":185852,"internal_node_id":"0.0-3.0-0.6","prolific_id":"63fa47854a6eae0d497059e5","session_id":"643c25256c0084a241512dab","study_id":"64370a36d30bfa807bc7e43c"},{"rt":5424,"response":{"prior knowledge":3,"curiosity":3},"accuracy":[],"trial_type":"survey","trial_index":31,"time_elapsed":191301,"internal_node_id":"0.0-3.0-1.6","prolific_id":"63fa47854a6eae0d497059e5","session_id":"643c25256c0084a241512dab","study_id":"64370a36d30bfa807bc7e43c"},{"rt":null,"stimulus":"\n\t\t\t<div class=\"flip_card\">\n\t\t\t\t<div class=\"flip_card_inner\">\n\t\t\t\t\t<div class=\"flip_card_front\">\n\t\t\t\t\t\t<img src=img/11.png>\n\t\t\t\t\t</div>\n\t\t\t\t\t<div class=\"flip_card_back\">\n\t\t\t\t\t\t<h2>How many books has Stephen King published?</h2>\n\t\t\t\t\t\t<br>\n\t\t\t\t\t\t<p>Answer: <strong>65</strong></p>\n\t\t\t\t\t</div>\n\t\t\t\t</div>\n\t\t\t</div>\n\t\t\t","response":null,"trial_type":"html-keyboard-response","trial_index":32,"time_elapsed":196310,"internal_node_id":"0.0-3.0-2.6","prolific_id":"63fa47854a6eae0d497059e5","session_id":"643c25256c0084a241512dab","study_id":"64370a36d30bfa807bc7e43c"},{"rt":1410,"stimulus":"\n\t\t\t\t\t<div>\n\t\t\t\t\t<h2>Trial 7 is over</h2>\n\t\t\t\t\t<p>Press <span style=\"color: red\"><strong>any key</strong></span> to continue to the next trial</p>\n\t\t\t\t\t</div>\n\t\t\t\t","response":"j","trial_type":"html-keyboard-response","trial_index":33,"time_elapsed":197721,"internal_node_id":"0.0-3.0-3.6","prolific_id":"63fa47854a6eae0d497059e5","session_id":"643c25256c0084a241512dab","study_id":"64370a36d30bfa807bc7e43c"},{"rt":9355,"response":{"prediction":"50000"},"trial_type":"survey-text","trial_index":34,"time_elapsed":207079,"internal_node_id":"0.0-3.0-0.7","prolific_id":"63fa47854a6eae0d497059e5","session_id":"643c25256c0084a241512dab","study_id":"64370a36d30bfa807bc7e43c"},{"rt":3179,"response":{"prior knowledge":1,"curiosity":1},"accuracy":[],"trial_type":"survey","trial_index":35,"time_elapsed":210281,"internal_node_id":"0.0-3.0-1.7","prolific_id":"63fa47854a6eae0d497059e5","session_id":"643c25256c0084a241512dab","study_id":"64370a36d30bfa807bc7e43c"},{"rt":null,"stimulus":"\n\t\t\t<div class=\"flip_card\">\n\t\t\t\t<div class=\"flip_card_inner\">\n\t\t\t\t\t<div class=\"flip_card_front\">\n\t\t\t\t\t\t<img src=img/19.png>\n\t\t\t\t\t</div>\n\t\t\t\t\t<div class=\"flip_card_back\">\n\t\t\t\t\t\t<h2>What is the diameter of Earth in miles?</h2>\n\t\t\t\t\t\t<br>\n\t\t\t\t\t\t<p>Answer: <strong>7917.5</strong></p>\n\t\t\t\t\t</div>\n\t\t\t\t</div>\n\t\t\t</div>\n\t\t\t","response":null,"trial_type":"html-keyboard-response","trial_index":36,"time_elapsed":215292,"internal_node_id":"0.0-3.0-2.7","prolific_id":"63fa47854a6eae0d497059e5","session_id":"643c25256c0084a241512dab","study_id":"64370a36d30bfa807bc7e43c"},{"rt":1555,"stimulus":"\n\t\t\t\t\t<div>\n\t\t\t\t\t<h2>Trial 8 is over</h2>\n\t\t\t\t\t<p>Press <span style=\"color: red\"><strong>any key</strong></span> to continue to the next trial</p>\n\t\t\t\t\t</div>\n\t\t\t\t","response":"k","trial_type":"html-keyboard-response","trial_index":37,"time_elapsed":216848,"internal_node_id":"0.0-3.0-3.7","prolific_id":"63fa47854a6eae0d497059e5","session_id":"643c25256c0084a241512dab","study_id":"64370a36d30bfa807bc7e43c"},{"rt":4475,"response":{"prediction":"24"},"trial_type":"survey-text","trial_index":38,"time_elapsed":221326,"internal_node_id":"0.0-3.0-0.8","prolific_id":"63fa47854a6eae0d497059e5","session_id":"643c25256c0084a241512dab","study_id":"64370a36d30bfa807bc7e43c"},{"rt":2768,"response":{"prior knowledge":4,"curiosity":4},"accuracy":[],"trial_type":"survey","trial_index":39,"time_elapsed":224118,"internal_node_id":"0.0-3.0-1.8","prolific_id":"63fa47854a6eae0d497059e5","session_id":"643c25256c0084a241512dab","study_id":"64370a36d30bfa807bc7e43c"},{"rt":null,"stimulus":"\n\t\t\t<div class=\"flip_card\">\n\t\t\t\t<div class=\"flip_card_inner\">\n\t\t\t\t\t<div class=\"flip_card_front\">\n\t\t\t\t\t\t<img src=img/6.png>\n\t\t\t\t\t</div>\n\t\t\t\t\t<div class=\"flip_card_back\">\n\t\t\t\t\t\t<h2>How much is in a Baker's Dozen?</h2>\n\t\t\t\t\t\t<br>\n\t\t\t\t\t\t<p>Answer: <strong>13</strong></p>\n\t\t\t\t\t</div>\n\t\t\t\t</div>\n\t\t\t</div>\n\t\t\t","response":null,"trial_type":"html-keyboard-response","trial_index":40,"time_elapsed":229126,"internal_node_id":"0.0-3.0-2.8","prolific_id":"63fa47854a6eae0d497059e5","session_id":"643c25256c0084a241512dab","study_id":"64370a36d30bfa807bc7e43c"},{"rt":2890,"stimulus":"\n\t\t\t\t\t<div>\n\t\t\t\t\t<h2>Trial 9 is over</h2>\n\t\t\t\t\t<p>Press <span style=\"color: red\"><strong>any key</strong></span> to continue to the next trial</p>\n\t\t\t\t\t</div>\n\t\t\t\t","response":"k","trial_type":"html-keyboard-response","trial_index":41,"time_elapsed":232018,"internal_node_id":"0.0-3.0-3.8","prolific_id":"63fa47854a6eae0d497059e5","session_id":"643c25256c0084a241512dab","study_id":"64370a36d30bfa807bc7e43c"},{"rt":4808,"response":{"prediction":"35"},"trial_type":"survey-text","trial_index":42,"time_elapsed":236828,"internal_node_id":"0.0-3.0-0.9","prolific_id":"63fa47854a6eae0d497059e5","session_id":"643c25256c0084a241512dab","study_id":"64370a36d30bfa807bc7e43c"},{"rt":3195,"response":{"prior knowledge":2,"curiosity":2},"accuracy":[],"trial_type":"survey","trial_index":43,"time_elapsed":240050,"internal_node_id":"0.0-3.0-1.9","prolific_id":"63fa47854a6eae0d497059e5","session_id":"643c25256c0084a241512dab","study_id":"64370a36d30bfa807bc7e43c"},{"rt":null,"stimulus":"\n\t\t\t<div class=\"flip_card\">\n\t\t\t\t<div class=\"flip_card_inner\">\n\t\t\t\t\t<div class=\"flip_card_front\">\n\t\t\t\t\t\t<img src=img/2.png>\n\t\t\t\t\t</div>\n\t\t\t\t\t<div class=\"flip_card_back\">\n\t\t\t\t\t\t<h2>How many countries are in Africa?</h2>\n\t\t\t\t\t\t<br>\n\t\t\t\t\t\t<p>Answer: <strong>54</strong></p>\n\t\t\t\t\t</div>\n\t\t\t\t</div>\n\t\t\t</div>\n\t\t\t","response":null,"trial_type":"html-keyboard-response","trial_index":44,"time_elapsed":245061,"internal_node_id":"0.0-3.0-2.9","prolific_id":"63fa47854a6eae0d497059e5","session_id":"643c25256c0084a241512dab","study_id":"64370a36d30bfa807bc7e43c"},{"rt":1024,"stimulus":"\n\t\t\t\t\t<div>\n\t\t\t\t\t<h2>Trial 10 is over</h2>\n\t\t\t\t\t<p>Press <span style=\"color: red\"><strong>any key</strong></span> to continue to the next trial</p>\n\t\t\t\t\t</div>\n\t\t\t\t","response":"k","trial_type":"html-keyboard-response","trial_index":45,"time_elapsed":246085,"internal_node_id":"0.0-3.0-3.9","prolific_id":"63fa47854a6eae0d497059e5","session_id":"643c25256c0084a241512dab","study_id":"64370a36d30bfa807bc7e43c"},{"rt":8274,"response":{"prediction":"1896"},"trial_type":"survey-text","trial_index":46,"time_elapsed":254362,"internal_node_id":"0.0-3.0-0.10","prolific_id":"63fa47854a6eae0d497059e5","session_id":"643c25256c0084a241512dab","study_id":"64370a36d30bfa807bc7e43c"},{"rt":3092,"response":{"prior knowledge":2,"curiosity":2},"accuracy":[],"trial_type":"survey","trial_index":47,"time_elapsed":257479,"internal_node_id":"0.0-3.0-1.10","prolific_id":"63fa47854a6eae0d497059e5","session_id":"643c25256c0084a241512dab","study_id":"64370a36d30bfa807bc7e43c"},{"rt":null,"stimulus":"\n\t\t\t<div class=\"flip_card\">\n\t\t\t\t<div class=\"flip_card_inner\">\n\t\t\t\t\t<div class=\"flip_card_front\">\n\t\t\t\t\t\t<img src=img/14.png>\n\t\t\t\t\t</div>\n\t\t\t\t\t<div class=\"flip_card_back\">\n\t\t\t\t\t\t<h2>In what year did the first Modern Olympic Games take place?</h2>\n\t\t\t\t\t\t<br>\n\t\t\t\t\t\t<p>Answer: <strong>1896</strong></p>\n\t\t\t\t\t</div>\n\t\t\t\t</div>\n\t\t\t</div>\n\t\t\t","response":null,"trial_type":"html-keyboard-response","trial_index":48,"time_elapsed":262482,"internal_node_id":"0.0-3.0-2.10","prolific_id":"63fa47854a6eae0d497059e5","session_id":"643c25256c0084a241512dab","study_id":"64370a36d30bfa807bc7e43c"},{"rt":1088,"stimulus":"\n\t\t\t\t\t<div>\n\t\t\t\t\t<h2>Trial 11 is over</h2>\n\t\t\t\t\t<p>Press <span style=\"color: red\"><strong>any key</strong></span> to continue to the next trial</p>\n\t\t\t\t\t</div>\n\t\t\t\t","response":"j","trial_type":"html-keyboard-response","trial_index":49,"time_elapsed":263571,"internal_node_id":"0.0-3.0-3.10","prolific_id":"63fa47854a6eae0d497059e5","session_id":"643c25256c0084a241512dab","study_id":"64370a36d30bfa807bc7e43c"},{"rt":3018,"response":{"prediction":"4"},"trial_type":"survey-text","trial_index":50,"time_elapsed":266592,"internal_node_id":"0.0-3.0-0.11","prolific_id":"63fa47854a6eae0d497059e5","session_id":"643c25256c0084a241512dab","study_id":"64370a36d30bfa807bc7e43c"},{"rt":3001,"response":{"prior knowledge":3,"curiosity":2},"accuracy":[],"trial_type":"survey","trial_index":51,"time_elapsed":269617,"internal_node_id":"0.0-3.0-1.11","prolific_id":"63fa47854a6eae0d497059e5","session_id":"643c25256c0084a241512dab","study_id":"64370a36d30bfa807bc7e43c"},{"rt":null,"stimulus":"\n\t\t\t<div class=\"flip_card\">\n\t\t\t\t<div class=\"flip_card_inner\">\n\t\t\t\t\t<div class=\"flip_card_front\">\n\t\t\t\t\t\t<img src=img/29.png>\n\t\t\t\t\t</div>\n\t\t\t\t\t<div class=\"flip_card_back\">\n\t\t\t\t\t\t<h2>How many moons does Neptune have?</h2>\n\t\t\t\t\t\t<br>\n\t\t\t\t\t\t<p>Answer: <strong>14</strong></p>\n\t\t\t\t\t</div>\n\t\t\t\t</div>\n\t\t\t</div>\n\t\t\t","response":null,"trial_type":"html-keyboard-response","trial_index":52,"time_elapsed":274628,"internal_node_id":"0.0-3.0-2.11","prolific_id":"63fa47854a6eae0d497059e5","session_id":"643c25256c0084a241512dab","study_id":"64370a36d30bfa807bc7e43c"},{"rt":402,"stimulus":"\n\t\t\t\t\t<div>\n\t\t\t\t\t<h2>Trial 12 is over</h2>\n\t\t\t\t\t<p>Press <span style=\"color: red\"><strong>any key</strong></span> to continue to the next trial</p>\n\t\t\t\t\t</div>\n\t\t\t\t","response":"j","trial_type":"html-keyboard-response","trial_index":53,"time_elapsed":275030,"internal_node_id":"0.0-3.0-3.11","prolific_id":"63fa47854a6eae0d497059e5","session_id":"643c25256c0084a241512dab","study_id":"64370a36d30bfa807bc7e43c"},{"rt":5464,"response":{"prediction":"30"},"trial_type":"survey-text","trial_index":54,"time_elapsed":280497,"internal_node_id":"0.0-3.0-0.12","prolific_id":"63fa47854a6eae0d497059e5","session_id":"643c25256c0084a241512dab","study_id":"64370a36d30bfa807bc7e43c"},{"rt":4368,"response":{"prior knowledge":0,"curiosity":4},"accuracy":[],"trial_type":"survey","trial_index":55,"time_elapsed":284890,"internal_node_id":"0.0-3.0-1.12","prolific_id":"63fa47854a6eae0d497059e5","session_id":"643c25256c0084a241512dab","study_id":"64370a36d30bfa807bc7e43c"},{"rt":null,"stimulus":"\n\t\t\t<div class=\"flip_card\">\n\t\t\t\t<div class=\"flip_card_inner\">\n\t\t\t\t\t<div class=\"flip_card_front\">\n\t\t\t\t\t\t<img src=img/12.png>\n\t\t\t\t\t</div>\n\t\t\t\t\t<div class=\"flip_card_back\">\n\t\t\t\t\t\t<h2>How many single hand gestures, or mudras, are used in Indian classical dance?</h2>\n\t\t\t\t\t\t<br>\n\t\t\t\t\t\t<p>Answer: <strong>28</strong></p>\n\t\t\t\t\t</div>\n\t\t\t\t</div>\n\t\t\t</div>\n\t\t\t","response":null,"trial_type":"html-keyboard-response","trial_index":56,"time_elapsed":289897,"internal_node_id":"0.0-3.0-2.12","prolific_id":"63fa47854a6eae0d497059e5","session_id":"643c25256c0084a241512dab","study_id":"64370a36d30bfa807bc7e43c"},{"rt":1094,"stimulus":"\n\t\t\t\t\t<div>\n\t\t\t\t\t<h2>Trial 13 is over</h2>\n\t\t\t\t\t<p>Press <span style=\"color: red\"><strong>any key</strong></span> to continue to the next trial</p>\n\t\t\t\t\t</div>\n\t\t\t\t","response":"j","trial_type":"html-keyboard-response","trial_index":57,"time_elapsed":290992,"internal_node_id":"0.0-3.0-3.12","prolific_id":"63fa47854a6eae0d497059e5","session_id":"643c25256c0084a241512dab","study_id":"64370a36d30bfa807bc7e43c"},{"rt":6626,"response":{"prediction":"9"},"trial_type":"survey-text","trial_index":58,"time_elapsed":297620,"internal_node_id":"0.0-3.0-0.13","prolific_id":"63fa47854a6eae0d497059e5","session_id":"643c25256c0084a241512dab","study_id":"64370a36d30bfa807bc7e43c"},{"rt":3964,"response":{"prior knowledge":3,"curiosity":3},"accuracy":[],"trial_type":"survey","trial_index":59,"time_elapsed":301610,"internal_node_id":"0.0-3.0-1.13","prolific_id":"63fa47854a6eae0d497059e5","session_id":"643c25256c0084a241512dab","study_id":"64370a36d30bfa807bc7e43c"},{"rt":null,"stimulus":"\n\t\t\t<div class=\"flip_card\">\n\t\t\t\t<div class=\"flip_card_inner\">\n\t\t\t\t\t<div class=\"flip_card_front\">\n\t\t\t\t\t\t<img src=img/26.png>\n\t\t\t\t\t</div>\n\t\t\t\t\t<div class=\"flip_card_back\">\n\t\t\t\t\t\t<h2>How many soccer players should each team have on the field at the start of each match?</h2>\n\t\t\t\t\t\t<br>\n\t\t\t\t\t\t<p>Answer: <strong>11</strong></p>\n\t\t\t\t\t</div>\n\t\t\t\t</div>\n\t\t\t</div>\n\t\t\t","response":null,"trial_type":"html-keyboard-response","trial_index":60,"time_elapsed":306619,"internal_node_id":"0.0-3.0-2.13","prolific_id":"63fa47854a6eae0d497059e5","session_id":"643c25256c0084a241512dab","study_id":"64370a36d30bfa807bc7e43c"},{"rt":973,"stimulus":"\n\t\t\t\t\t<div>\n\t\t\t\t\t<h2>Trial 14 is over</h2>\n\t\t\t\t\t<p>Press <span style=\"color: red\"><strong>any key</strong></span> to continue to the next trial</p>\n\t\t\t\t\t</div>\n\t\t\t\t","response":"k","trial_type":"html-keyboard-response","trial_index":61,"time_elapsed":307593,"internal_node_id":"0.0-3.0-3.13","prolific_id":"63fa47854a6eae0d497059e5","session_id":"643c25256c0084a241512dab","study_id":"64370a36d30bfa807bc7e43c"},{"rt":4642,"response":{"prediction":"32"},"trial_type":"survey-text","trial_index":62,"time_elapsed":312237,"internal_node_id":"0.0-3.0-0.14","prolific_id":"63fa47854a6eae0d497059e5","session_id":"643c25256c0084a241512dab","study_id":"64370a36d30bfa807bc7e43c"},{"rt":8864,"response":{"prior knowledge":2,"curiosity":3},"accuracy":[],"trial_type":"survey","trial_index":63,"time_elapsed":321126,"internal_node_id":"0.0-3.0-1.14","prolific_id":"63fa47854a6eae0d497059e5","session_id":"643c25256c0084a241512dab","study_id":"64370a36d30bfa807bc7e43c"},{"rt":null,"stimulus":"\n\t\t\t<div class=\"flip_card\">\n\t\t\t\t<div class=\"flip_card_inner\">\n\t\t\t\t\t<div class=\"flip_card_front\">\n\t\t\t\t\t\t<img src=img/20.png>\n\t\t\t\t\t</div>\n\t\t\t\t\t<div class=\"flip_card_back\">\n\t\t\t\t\t\t<h2>How many double stitches does a baseball have?</h2>\n\t\t\t\t\t\t<br>\n\t\t\t\t\t\t<p>Answer: <strong>108</strong></p>\n\t\t\t\t\t</div>\n\t\t\t\t</div>\n\t\t\t</div>\n\t\t\t","response":null,"trial_type":"html-keyboard-response","trial_index":64,"time_elapsed":326132,"internal_node_id":"0.0-3.0-2.14","prolific_id":"63fa47854a6eae0d497059e5","session_id":"643c25256c0084a241512dab","study_id":"64370a36d30bfa807bc7e43c"},{"rt":2611,"stimulus":"\n\t\t\t\t\t<div>\n\t\t\t\t\t<h2>Trial 15 is over</h2>\n\t\t\t\t\t<p>Press <span style=\"color: red\"><strong>any key</strong></span> to continue to the next trial</p>\n\t\t\t\t\t</div>\n\t\t\t\t","response":" ","trial_type":"html-keyboard-response","trial_index":65,"time_elapsed":328744,"internal_node_id":"0.0-3.0-3.14","prolific_id":"63fa47854a6eae0d497059e5","session_id":"643c25256c0084a241512dab","study_id":"64370a36d30bfa807bc7e43c"},{"rt":13156,"response":{"prediction":"50"},"trial_type":"survey-text","trial_index":66,"time_elapsed":341903,"internal_node_id":"0.0-3.0-0.15","prolific_id":"63fa47854a6eae0d497059e5","session_id":"643c25256c0084a241512dab","study_id":"64370a36d30bfa807bc7e43c"},{"rt":4384,"response":{"prior knowledge":0,"curiosity":3},"accuracy":[],"trial_type":"survey","trial_index":67,"time_elapsed":346310,"internal_node_id":"0.0-3.0-1.15","prolific_id":"63fa47854a6eae0d497059e5","session_id":"643c25256c0084a241512dab","study_id":"64370a36d30bfa807bc7e43c"},{"rt":null,"stimulus":"\n\t\t\t<div class=\"flip_card\">\n\t\t\t\t<div class=\"flip_card_inner\">\n\t\t\t\t\t<div class=\"flip_card_front\">\n\t\t\t\t\t\t<img src=img/17.png>\n\t\t\t\t\t</div>\n\t\t\t\t\t<div class=\"flip_card_back\">\n\t\t\t\t\t\t<h2>How many tones are in the Vietnamese language?</h2>\n\t\t\t\t\t\t<br>\n\t\t\t\t\t\t<p>Answer: <strong>6</strong></p>\n\t\t\t\t\t</div>\n\t\t\t\t</div>\n\t\t\t</div>\n\t\t\t","response":null,"trial_type":"html-keyboard-response","trial_index":68,"time_elapsed":351322,"internal_node_id":"0.0-3.0-2.15","prolific_id":"63fa47854a6eae0d497059e5","session_id":"643c25256c0084a241512dab","study_id":"64370a36d30bfa807bc7e43c"},{"rt":1248,"stimulus":"\n\t\t\t\t\t<div>\n\t\t\t\t\t<h2>Trial 16 is over</h2>\n\t\t\t\t\t<p>Press <span style=\"color: red\"><strong>any key</strong></span> to continue to the next trial</p>\n\t\t\t\t\t</div>\n\t\t\t\t","response":"k","trial_type":"html-keyboard-response","trial_index":69,"time_elapsed":352571,"internal_node_id":"0.0-3.0-3.15","prolific_id":"63fa47854a6eae0d497059e5","session_id":"643c25256c0084a241512dab","study_id":"64370a36d30bfa807bc7e43c"},{"rt":4363,"response":{"prediction":"1980"},"trial_type":"survey-text","trial_index":70,"time_elapsed":356936,"internal_node_id":"0.0-3.0-0.16","prolific_id":"63fa47854a6eae0d497059e5","session_id":"643c25256c0084a241512dab","study_id":"64370a36d30bfa807bc7e43c"},{"rt":3472,"response":{"prior knowledge":2,"curiosity":3},"accuracy":[],"trial_type":"survey","trial_index":71,"time_elapsed":360433,"internal_node_id":"0.0-3.0-1.16","prolific_id":"63fa47854a6eae0d497059e5","session_id":"643c25256c0084a241512dab","study_id":"64370a36d30bfa807bc7e43c"},{"rt":null,"stimulus":"\n\t\t\t<div class=\"flip_card\">\n\t\t\t\t<div class=\"flip_card_inner\">\n\t\t\t\t\t<div class=\"flip_card_front\">\n\t\t\t\t\t\t<img src=img/28.png>\n\t\t\t\t\t</div>\n\t\t\t\t\t<div class=\"flip_card_back\">\n\t\t\t\t\t\t<h2>What year did the Berlin Wall fall?</h2>\n\t\t\t\t\t\t<br>\n\t\t\t\t\t\t<p>Answer: <strong>1989</strong></p>\n\t\t\t\t\t</div>\n\t\t\t\t</div>\n\t\t\t</div>\n\t\t\t","response":null,"trial_type":"html-keyboard-response","trial_index":72,"time_elapsed":365447,"internal_node_id":"0.0-3.0-2.16","prolific_id":"63fa47854a6eae0d497059e5","session_id":"643c25256c0084a241512dab","study_id":"64370a36d30bfa807bc7e43c"},{"rt":1539,"stimulus":"\n\t\t\t\t\t<div>\n\t\t\t\t\t<h2>Trial 17 is over</h2>\n\t\t\t\t\t<p>Press <span style=\"color: red\"><strong>any key</strong></span> to continue to the next trial</p>\n\t\t\t\t\t</div>\n\t\t\t\t","response":"k","trial_type":"html-keyboard-response","trial_index":73,"time_elapsed":366987,"internal_node_id":"0.0-3.0-3.16","prolific_id":"63fa47854a6eae0d497059e5","session_id":"643c25256c0084a241512dab","study_id":"64370a36d30bfa807bc7e43c"},{"rt":6690,"response":{"prediction":"13"},"trial_type":"survey-text","trial_index":74,"time_elapsed":373680,"internal_node_id":"0.0-3.0-0.17","prolific_id":"63fa47854a6eae0d497059e5","session_id":"643c25256c0084a241512dab","study_id":"64370a36d30bfa807bc7e43c"},{"rt":3792,"response":{"prior knowledge":4,"curiosity":3},"accuracy":[],"trial_type":"survey","trial_index":75,"time_elapsed":377494,"internal_node_id":"0.0-3.0-1.17","prolific_id":"63fa47854a6eae0d497059e5","session_id":"643c25256c0084a241512dab","study_id":"64370a36d30bfa807bc7e43c"},{"rt":null,"stimulus":"\n\t\t\t<div class=\"flip_card\">\n\t\t\t\t<div class=\"flip_card_inner\">\n\t\t\t\t\t<div class=\"flip_card_front\">\n\t\t\t\t\t\t<img src=img/3.png>\n\t\t\t\t\t</div>\n\t\t\t\t\t<div class=\"flip_card_back\">\n\t\t\t\t\t\t<h2>A bar mitzvah is traditionally celebrated when Jewish males turn what age?</h2>\n\t\t\t\t\t\t<br>\n\t\t\t\t\t\t<p>Answer: <strong>13</strong></p>\n\t\t\t\t\t</div>\n\t\t\t\t</div>\n\t\t\t</div>\n\t\t\t","response":null,"trial_type":"html-keyboard-response","trial_index":76,"time_elapsed":382502,"internal_node_id":"0.0-3.0-2.17","prolific_id":"63fa47854a6eae0d497059e5","session_id":"643c25256c0084a241512dab","study_id":"64370a36d30bfa807bc7e43c"},{"rt":810,"stimulus":"\n\t\t\t\t\t<div>\n\t\t\t\t\t<h2>Trial 18 is over</h2>\n\t\t\t\t\t<p>Press <span style=\"color: red\"><strong>any key</strong></span> to continue to the next trial</p>\n\t\t\t\t\t</div>\n\t\t\t\t","response":"j","trial_type":"html-keyboard-response","trial_index":77,"time_elapsed":383312,"internal_node_id":"0.0-3.0-3.17","prolific_id":"63fa47854a6eae0d497059e5","session_id":"643c25256c0084a241512dab","study_id":"64370a36d30bfa807bc7e43c"},{"rt":4595,"response":{"prediction":"30"},"trial_type":"survey-text","trial_index":78,"time_elapsed":387910,"internal_node_id":"0.0-3.0-0.18","prolific_id":"63fa47854a6eae0d497059e5","session_id":"643c25256c0084a241512dab","study_id":"64370a36d30bfa807bc7e43c"},{"rt":2628,"response":{"prior knowledge":2,"curiosity":3},"accuracy":[],"trial_type":"survey","trial_index":79,"time_elapsed":390561,"internal_node_id":"0.0-3.0-1.18","prolific_id":"63fa47854a6eae0d497059e5","session_id":"643c25256c0084a241512dab","study_id":"64370a36d30bfa807bc7e43c"},{"rt":null,"stimulus":"\n\t\t\t<div class=\"flip_card\">\n\t\t\t\t<div class=\"flip_card_inner\">\n\t\t\t\t\t<div class=\"flip_card_front\">\n\t\t\t\t\t\t<img src=img/25.png>\n\t\t\t\t\t</div>\n\t\t\t\t\t<div class=\"flip_card_back\">\n\t\t\t\t\t\t<h2>How many constellations are there?</h2>\n\t\t\t\t\t\t<br>\n\t\t\t\t\t\t<p>Answer: <strong>88</strong></p>\n\t\t\t\t\t</div>\n\t\t\t\t</div>\n\t\t\t</div>\n\t\t\t","response":null,"trial_type":"html-keyboard-response","trial_index":80,"time_elapsed":395574,"internal_node_id":"0.0-3.0-2.18","prolific_id":"63fa47854a6eae0d497059e5","session_id":"643c25256c0084a241512dab","study_id":"64370a36d30bfa807bc7e43c"},{"rt":2332,"stimulus":"\n\t\t\t\t\t<div>\n\t\t\t\t\t<h2>Trial 19 is over</h2>\n\t\t\t\t\t<p>Press <span style=\"color: red\"><strong>any key</strong></span> to continue to the next trial</p>\n\t\t\t\t\t</div>\n\t\t\t\t","response":"enter","trial_type":"html-keyboard-response","trial_index":81,"time_elapsed":397907,"internal_node_id":"0.0-3.0-3.18","prolific_id":"63fa47854a6eae0d497059e5","session_id":"643c25256c0084a241512dab","study_id":"64370a36d30bfa807bc7e43c"},{"rt":4130,"response":{"prediction":"25"},"trial_type":"survey-text","trial_index":82,"time_elapsed":402040,"internal_node_id":"0.0-3.0-0.19","prolific_id":"63fa47854a6eae0d497059e5","session_id":"643c25256c0084a241512dab","study_id":"64370a36d30bfa807bc7e43c"},{"rt":2734,"response":{"prior knowledge":2,"curiosity":3},"accuracy":[],"trial_type":"survey","trial_index":83,"time_elapsed":404796,"internal_node_id":"0.0-3.0-1.19","prolific_id":"63fa47854a6eae0d497059e5","session_id":"643c25256c0084a241512dab","study_id":"64370a36d30bfa807bc7e43c"},{"rt":null,"stimulus":"\n\t\t\t<div class=\"flip_card\">\n\t\t\t\t<div class=\"flip_card_inner\">\n\t\t\t\t\t<div class=\"flip_card_front\">\n\t\t\t\t\t\t<img src=img/8.png>\n\t\t\t\t\t</div>\n\t\t\t\t\t<div class=\"flip_card_back\">\n\t\t\t\t\t\t<h2>How old was King Tut when he died?</h2>\n\t\t\t\t\t\t<br>\n\t\t\t\t\t\t<p>Answer: <strong>19</strong></p>\n\t\t\t\t\t</div>\n\t\t\t\t</div>\n\t\t\t</div>\n\t\t\t","response":null,"trial_type":"html-keyboard-response","trial_index":84,"time_elapsed":409805,"internal_node_id":"0.0-3.0-2.19","prolific_id":"63fa47854a6eae0d497059e5","session_id":"643c25256c0084a241512dab","study_id":"64370a36d30bfa807bc7e43c"},{"rt":1189,"stimulus":"\n\t\t\t\t\t<div>\n\t\t\t\t\t<h2>Trial 20 is over</h2>\n\t\t\t\t\t<p>Press <span style=\"color: red\"><strong>any key</strong></span> to continue to the next trial</p>\n\t\t\t\t\t</div>\n\t\t\t\t","response":"k","trial_type":"html-keyboard-response","trial_index":85,"time_elapsed":410995,"internal_node_id":"0.0-3.0-3.19","prolific_id":"63fa47854a6eae0d497059e5","session_id":"643c25256c0084a241512dab","study_id":"64370a36d30bfa807bc7e43c"},{"rt":4094,"response":{"prediction":"7"},"trial_type":"survey-text","trial_index":86,"time_elapsed":415091,"internal_node_id":"0.0-3.0-0.20","prolific_id":"63fa47854a6eae0d497059e5","session_id":"643c25256c0084a241512dab","study_id":"64370a36d30bfa807bc7e43c"},{"rt":3163,"response":{"prior knowledge":2,"curiosity":3},"accuracy":[],"trial_type":"survey","trial_index":87,"time_elapsed":418276,"internal_node_id":"0.0-3.0-1.20","prolific_id":"63fa47854a6eae0d497059e5","session_id":"643c25256c0084a241512dab","study_id":"64370a36d30bfa807bc7e43c"},{"rt":null,"stimulus":"\n\t\t\t<div class=\"flip_card\">\n\t\t\t\t<div class=\"flip_card_inner\">\n\t\t\t\t\t<div class=\"flip_card_front\">\n\t\t\t\t\t\t<img src=img/1.png>\n\t\t\t\t\t</div>\n\t\t\t\t\t<div class=\"flip_card_back\">\n\t\t\t\t\t\t<h2>How many main islands make up Japan?</h2>\n\t\t\t\t\t\t<br>\n\t\t\t\t\t\t<p>Answer: <strong>4</strong></p>\n\t\t\t\t\t</div>\n\t\t\t\t</div>\n\t\t\t</div>\n\t\t\t","response":null,"trial_type":"html-keyboard-response","trial_index":88,"time_elapsed":423287,"internal_node_id":"0.0-3.0-2.20","prolific_id":"63fa47854a6eae0d497059e5","session_id":"643c25256c0084a241512dab","study_id":"64370a36d30bfa807bc7e43c"},{"rt":1028,"stimulus":"\n\t\t\t\t\t<div>\n\t\t\t\t\t<h2>Trial 21 is over</h2>\n\t\t\t\t\t<p>Press <span style=\"color: red\"><strong>any key</strong></span> to continue to the next trial</p>\n\t\t\t\t\t</div>\n\t\t\t\t","response":"k","trial_type":"html-keyboard-response","trial_index":89,"time_elapsed":424317,"internal_node_id":"0.0-3.0-3.20","prolific_id":"63fa47854a6eae0d497059e5","session_id":"643c25256c0084a241512dab","study_id":"64370a36d30bfa807bc7e43c"},{"rt":7679,"response":{"prediction":"1923"},"trial_type":"survey-text","trial_index":90,"time_elapsed":431997,"internal_node_id":"0.0-3.0-0.21","prolific_id":"63fa47854a6eae0d497059e5","session_id":"643c25256c0084a241512dab","study_id":"64370a36d30bfa807bc7e43c"},{"rt":3353,"response":{"prior knowledge":2,"curiosity":4},"accuracy":[],"trial_type":"survey","trial_index":91,"time_elapsed":435373,"internal_node_id":"0.0-3.0-1.21","prolific_id":"63fa47854a6eae0d497059e5","session_id":"643c25256c0084a241512dab","study_id":"64370a36d30bfa807bc7e43c"},{"rt":null,"stimulus":"\n\t\t\t<div class=\"flip_card\">\n\t\t\t\t<div class=\"flip_card_inner\">\n\t\t\t\t\t<div class=\"flip_card_front\">\n\t\t\t\t\t\t<img src=img/7.png>\n\t\t\t\t\t</div>\n\t\t\t\t\t<div class=\"flip_card_back\">\n\t\t\t\t\t\t<h2>In what year was the Mexican artist Frida Kahlo born?</h2>\n\t\t\t\t\t\t<br>\n\t\t\t\t\t\t<p>Answer: <strong>1907</strong></p>\n\t\t\t\t\t</div>\n\t\t\t\t</div>\n\t\t\t</div>\n\t\t\t","response":null,"trial_type":"html-keyboard-response","trial_index":92,"time_elapsed":440383,"internal_node_id":"0.0-3.0-2.21","prolific_id":"63fa47854a6eae0d497059e5","session_id":"643c25256c0084a241512dab","study_id":"64370a36d30bfa807bc7e43c"},{"rt":2192,"stimulus":"\n\t\t\t\t\t<div>\n\t\t\t\t\t<h2>Trial 22 is over</h2>\n\t\t\t\t\t<p>Press <span style=\"color: red\"><strong>any key</strong></span> to continue to the next trial</p>\n\t\t\t\t\t</div>\n\t\t\t\t","response":"j","trial_type":"html-keyboard-response","trial_index":93,"time_elapsed":442575,"internal_node_id":"0.0-3.0-3.21","prolific_id":"63fa47854a6eae0d497059e5","session_id":"643c25256c0084a241512dab","study_id":"64370a36d30bfa807bc7e43c"},{"rt":5820,"response":{"prediction":"1910"},"trial_type":"survey-text","trial_index":94,"time_elapsed":448398,"internal_node_id":"0.0-3.0-0.22","prolific_id":"63fa47854a6eae0d497059e5","session_id":"643c25256c0084a241512dab","study_id":"64370a36d30bfa807bc7e43c"},{"rt":2810,"response":{"prior knowledge":2,"curiosity":4},"accuracy":[],"trial_type":"survey","trial_index":95,"time_elapsed":451230,"internal_node_id":"0.0-3.0-1.22","prolific_id":"63fa47854a6eae0d497059e5","session_id":"643c25256c0084a241512dab","study_id":"64370a36d30bfa807bc7e43c"},{"rt":null,"stimulus":"\n\t\t\t<div class=\"flip_card\">\n\t\t\t\t<div class=\"flip_card_inner\">\n\t\t\t\t\t<div class=\"flip_card_front\">\n\t\t\t\t\t\t<img src=img/21.png>\n\t\t\t\t\t</div>\n\t\t\t\t\t<div class=\"flip_card_back\">\n\t\t\t\t\t\t<h2>In what year was the first Nobel Prize awarded?</h2>\n\t\t\t\t\t\t<br>\n\t\t\t\t\t\t<p>Answer: <strong>1901</strong></p>\n\t\t\t\t\t</div>\n\t\t\t\t</div>\n\t\t\t</div>\n\t\t\t","response":null,"trial_type":"html-keyboard-response","trial_index":96,"time_elapsed":456238,"internal_node_id":"0.0-3.0-2.22","prolific_id":"63fa47854a6eae0d497059e5","session_id":"643c25256c0084a241512dab","study_id":"64370a36d30bfa807bc7e43c"},{"rt":3433,"stimulus":"\n\t\t\t\t\t<div>\n\t\t\t\t\t<h2>Trial 23 is over</h2>\n\t\t\t\t\t<p>Press <span style=\"color: red\"><strong>any key</strong></span> to continue to the next trial</p>\n\t\t\t\t\t</div>\n\t\t\t\t","response":"k","trial_type":"html-keyboard-response","trial_index":97,"time_elapsed":459672,"internal_node_id":"0.0-3.0-3.22","prolific_id":"63fa47854a6eae0d497059e5","session_id":"643c25256c0084a241512dab","study_id":"64370a36d30bfa807bc7e43c"},{"rt":7488,"response":{"prediction":"2002"},"trial_type":"survey-text","trial_index":98,"time_elapsed":467162,"internal_node_id":"0.0-3.0-0.23","prolific_id":"63fa47854a6eae0d497059e5","session_id":"643c25256c0084a241512dab","study_id":"64370a36d30bfa807bc7e43c"},{"rt":3476,"response":{"prior knowledge":3,"curiosity":4},"accuracy":[],"trial_type":"survey","trial_index":99,"time_elapsed":470660,"internal_node_id":"0.0-3.0-1.23","prolific_id":"63fa47854a6eae0d497059e5","session_id":"643c25256c0084a241512dab","study_id":"64370a36d30bfa807bc7e43c"},{"rt":null,"stimulus":"\n\t\t\t<div class=\"flip_card\">\n\t\t\t\t<div class=\"flip_card_inner\">\n\t\t\t\t\t<div class=\"flip_card_front\">\n\t\t\t\t\t\t<img src=img/5.png>\n\t\t\t\t\t</div>\n\t\t\t\t\t<div class=\"flip_card_back\">\n\t\t\t\t\t\t<h2>What year was the very first model of the iPhone released?</h2>\n\t\t\t\t\t\t<br>\n\t\t\t\t\t\t<p>Answer: <strong>2007</strong></p>\n\t\t\t\t\t</div>\n\t\t\t\t</div>\n\t\t\t</div>\n\t\t\t","response":null,"trial_type":"html-keyboard-response","trial_index":100,"time_elapsed":475668,"internal_node_id":"0.0-3.0-2.23","prolific_id":"63fa47854a6eae0d497059e5","session_id":"643c25256c0084a241512dab","study_id":"64370a36d30bfa807bc7e43c"},{"rt":688,"stimulus":"\n\t\t\t\t\t<div>\n\t\t\t\t\t<h2>Trial 24 is over</h2>\n\t\t\t\t\t<p>Press <span style=\"color: red\"><strong>any key</strong></span> to continue to the next trial</p>\n\t\t\t\t\t</div>\n\t\t\t\t","response":"k","trial_type":"html-keyboard-response","trial_index":101,"time_elapsed":476356,"internal_node_id":"0.0-3.0-3.23","prolific_id":"63fa47854a6eae0d497059e5","session_id":"643c25256c0084a241512dab","study_id":"64370a36d30bfa807bc7e43c"},{"rt":5168,"response":{"prediction":"1"},"trial_type":"survey-text","trial_index":102,"time_elapsed":481527,"internal_node_id":"0.0-3.0-0.24","prolific_id":"63fa47854a6eae0d497059e5","session_id":"643c25256c0084a241512dab","study_id":"64370a36d30bfa807bc7e43c"},{"rt":4397,"response":{"prior knowledge":0,"curiosity":4},"accuracy":[],"trial_type":"survey","trial_index":103,"time_elapsed":485947,"internal_node_id":"0.0-3.0-1.24","prolific_id":"63fa47854a6eae0d497059e5","session_id":"643c25256c0084a241512dab","study_id":"64370a36d30bfa807bc7e43c"},{"rt":null,"stimulus":"\n\t\t\t<div class=\"flip_card\">\n\t\t\t\t<div class=\"flip_card_inner\">\n\t\t\t\t\t<div class=\"flip_card_front\">\n\t\t\t\t\t\t<img src=img/18.png>\n\t\t\t\t\t</div>\n\t\t\t\t\t<div class=\"flip_card_back\">\n\t\t\t\t\t\t<h2>How many countries have territory in the Arctic Circle?</h2>\n\t\t\t\t\t\t<br>\n\t\t\t\t\t\t<p>Answer: <strong>8</strong></p>\n\t\t\t\t\t</div>\n\t\t\t\t</div>\n\t\t\t</div>\n\t\t\t","response":null,"trial_type":"html-keyboard-response","trial_index":104,"time_elapsed":490957,"internal_node_id":"0.0-3.0-2.24","prolific_id":"63fa47854a6eae0d497059e5","session_id":"643c25256c0084a241512dab","study_id":"64370a36d30bfa807bc7e43c"},{"rt":1057,"stimulus":"\n\t\t\t\t\t<div>\n\t\t\t\t\t<h2>Trial 25 is over</h2>\n\t\t\t\t\t<p>Press <span style=\"color: red\"><strong>any key</strong></span> to continue to the next trial</p>\n\t\t\t\t\t</div>\n\t\t\t\t","response":"j","trial_type":"html-keyboard-response","trial_index":105,"time_elapsed":492016,"internal_node_id":"0.0-3.0-3.24","prolific_id":"63fa47854a6eae0d497059e5","session_id":"643c25256c0084a241512dab","study_id":"64370a36d30bfa807bc7e43c"},{"rt":8530,"response":{"prediction":"40"},"trial_type":"survey-text","trial_index":106,"time_elapsed":500547,"internal_node_id":"0.0-3.0-0.25","prolific_id":"63fa47854a6eae0d497059e5","session_id":"643c25256c0084a241512dab","study_id":"64370a36d30bfa807bc7e43c"},{"rt":4096,"response":{"prior knowledge":2,"curiosity":4},"accuracy":[],"trial_type":"survey","trial_index":107,"time_elapsed":504665,"internal_node_id":"0.0-3.0-1.25","prolific_id":"63fa47854a6eae0d497059e5","session_id":"643c25256c0084a241512dab","study_id":"64370a36d30bfa807bc7e43c"},{"rt":null,"stimulus":"\n\t\t\t<div class=\"flip_card\">\n\t\t\t\t<div class=\"flip_card_inner\">\n\t\t\t\t\t<div class=\"flip_card_front\">\n\t\t\t\t\t\t<img src=img/13.png>\n\t\t\t\t\t</div>\n\t\t\t\t\t<div class=\"flip_card_back\">\n\t\t\t\t\t\t<h2>How many countries in Africa have French as the official language?</h2>\n\t\t\t\t\t\t<br>\n\t\t\t\t\t\t<p>Answer: <strong>21</strong></p>\n\t\t\t\t\t</div>\n\t\t\t\t</div>\n\t\t\t</div>\n\t\t\t","response":null,"trial_type":"html-keyboard-response","trial_index":108,"time_elapsed":509670,"internal_node_id":"0.0-3.0-2.25","prolific_id":"63fa47854a6eae0d497059e5","session_id":"643c25256c0084a241512dab","study_id":"64370a36d30bfa807bc7e43c"},{"rt":1278,"stimulus":"\n\t\t\t\t\t<div>\n\t\t\t\t\t<h2>Trial 26 is over</h2>\n\t\t\t\t\t<p>Press <span style=\"color: red\"><strong>any key</strong></span> to continue to the next trial</p>\n\t\t\t\t\t</div>\n\t\t\t\t","response":"m","trial_type":"html-keyboard-response","trial_index":109,"time_elapsed":510948,"internal_node_id":"0.0-3.0-3.25","prolific_id":"63fa47854a6eae0d497059e5","session_id":"643c25256c0084a241512dab","study_id":"64370a36d30bfa807bc7e43c"},{"rt":5370,"response":{"prediction":"12"},"trial_type":"survey-text","trial_index":110,"time_elapsed":516321,"internal_node_id":"0.0-3.0-0.26","prolific_id":"63fa47854a6eae0d497059e5","session_id":"643c25256c0084a241512dab","study_id":"64370a36d30bfa807bc7e43c"},{"rt":4243,"response":{"prior knowledge":4,"curiosity":5},"accuracy":[],"trial_type":"survey","trial_index":111,"time_elapsed":520586,"internal_node_id":"0.0-3.0-1.26","prolific_id":"63fa47854a6eae0d497059e5","session_id":"643c25256c0084a241512dab","study_id":"64370a36d30bfa807bc7e43c"},{"rt":null,"stimulus":"\n\t\t\t<div class=\"flip_card\">\n\t\t\t\t<div class=\"flip_card_inner\">\n\t\t\t\t\t<div class=\"flip_card_front\">\n\t\t\t\t\t\t<img src=img/16.png>\n\t\t\t\t\t</div>\n\t\t\t\t\t<div class=\"flip_card_back\">\n\t\t\t\t\t\t<h2>How many different animals (real or imaginary) are represented in the Chinese calendar?</h2>\n\t\t\t\t\t\t<br>\n\t\t\t\t\t\t<p>Answer: <strong>12</strong></p>\n\t\t\t\t\t</div>\n\t\t\t\t</div>\n\t\t\t</div>\n\t\t\t","response":null,"trial_type":"html-keyboard-response","trial_index":112,"time_elapsed":525596,"internal_node_id":"0.0-3.0-2.26","prolific_id":"63fa47854a6eae0d497059e5","session_id":"643c25256c0084a241512dab","study_id":"64370a36d30bfa807bc7e43c"},{"rt":1279,"stimulus":"\n\t\t\t\t\t<div>\n\t\t\t\t\t<h2>Trial 27 is over</h2>\n\t\t\t\t\t<p>Press <span style=\"color: red\"><strong>any key</strong></span> to continue to the next trial</p>\n\t\t\t\t\t</div>\n\t\t\t\t","response":"k","trial_type":"html-keyboard-response","trial_index":113,"time_elapsed":526876,"internal_node_id":"0.0-3.0-3.26","prolific_id":"63fa47854a6eae0d497059e5","session_id":"643c25256c0084a241512dab","study_id":"64370a36d30bfa807bc7e43c"},{"rt":5766,"response":{"prediction":"3"},"trial_type":"survey-text","trial_index":114,"time_elapsed":532644,"internal_node_id":"0.0-3.0-0.27","prolific_id":"63fa47854a6eae0d497059e5","session_id":"643c25256c0084a241512dab","study_id":"64370a36d30bfa807bc7e43c"},{"rt":3007,"response":{"prior knowledge":2,"curiosity":4},"accuracy":[],"trial_type":"survey","trial_index":115,"time_elapsed":535675,"internal_node_id":"0.0-3.0-1.27","prolific_id":"63fa47854a6eae0d497059e5","session_id":"643c25256c0084a241512dab","study_id":"64370a36d30bfa807bc7e43c"},{"rt":null,"stimulus":"\n\t\t\t<div class=\"flip_card\">\n\t\t\t\t<div class=\"flip_card_inner\">\n\t\t\t\t\t<div class=\"flip_card_front\">\n\t\t\t\t\t\t<img src=img/4.png>\n\t\t\t\t\t</div>\n\t\t\t\t\t<div class=\"flip_card_back\">\n\t\t\t\t\t\t<h2>How many people are vegan globally (in millions)?</h2>\n\t\t\t\t\t\t<br>\n\t\t\t\t\t\t<p>Answer: <strong>79</strong></p>\n\t\t\t\t\t</div>\n\t\t\t\t</div>\n\t\t\t</div>\n\t\t\t","response":null,"trial_type":"html-keyboard-response","trial_index":116,"time_elapsed":540684,"internal_node_id":"0.0-3.0-2.27","prolific_id":"63fa47854a6eae0d497059e5","session_id":"643c25256c0084a241512dab","study_id":"64370a36d30bfa807bc7e43c"},{"rt":1009,"stimulus":"\n\t\t\t\t\t<div>\n\t\t\t\t\t<h2>Trial 28 is over</h2>\n\t\t\t\t\t<p>Press <span style=\"color: red\"><strong>any key</strong></span> to continue to the next trial</p>\n\t\t\t\t\t</div>\n\t\t\t\t","response":"k","trial_type":"html-keyboard-response","trial_index":117,"time_elapsed":541694,"internal_node_id":"0.0-3.0-3.27","prolific_id":"63fa47854a6eae0d497059e5","session_id":"643c25256c0084a241512dab","study_id":"64370a36d30bfa807bc7e43c"},{"rt":4861,"response":{"prediction":"60"},"trial_type":"survey-text","trial_index":118,"time_elapsed":546558,"internal_node_id":"0.0-3.0-0.28","prolific_id":"63fa47854a6eae0d497059e5","session_id":"643c25256c0084a241512dab","study_id":"64370a36d30bfa807bc7e43c"},{"rt":4273,"response":{"prior knowledge":1,"curiosity":3},"accuracy":[],"trial_type":"survey","trial_index":119,"time_elapsed":550852,"internal_node_id":"0.0-3.0-1.28","prolific_id":"63fa47854a6eae0d497059e5","session_id":"643c25256c0084a241512dab","study_id":"64370a36d30bfa807bc7e43c"},{"rt":null,"stimulus":"\n\t\t\t<div class=\"flip_card\">\n\t\t\t\t<div class=\"flip_card_inner\">\n\t\t\t\t\t<div class=\"flip_card_front\">\n\t\t\t\t\t\t<img src=img/24.png>\n\t\t\t\t\t</div>\n\t\t\t\t\t<div class=\"flip_card_back\">\n\t\t\t\t\t\t<h2>How many bones is a human baby born with?</h2>\n\t\t\t\t\t\t<br>\n\t\t\t\t\t\t<p>Answer: <strong>300</strong></p>\n\t\t\t\t\t</div>\n\t\t\t\t</div>\n\t\t\t</div>\n\t\t\t","response":null,"trial_type":"html-keyboard-response","trial_index":120,"time_elapsed":555863,"internal_node_id":"0.0-3.0-2.28","prolific_id":"63fa47854a6eae0d497059e5","session_id":"643c25256c0084a241512dab","study_id":"64370a36d30bfa807bc7e43c"},{"rt":1593,"stimulus":"\n\t\t\t\t\t<div>\n\t\t\t\t\t<h2>Trial 29 is over</h2>\n\t\t\t\t\t<p>Press <span style=\"color: red\"><strong>any key</strong></span> to continue to the next trial</p>\n\t\t\t\t\t</div>\n\t\t\t\t","response":"j","trial_type":"html-keyboard-response","trial_index":121,"time_elapsed":557456,"internal_node_id":"0.0-3.0-3.28","prolific_id":"63fa47854a6eae0d497059e5","session_id":"643c25256c0084a241512dab","study_id":"64370a36d30bfa807bc7e43c"},{"rt":6393,"response":{"prediction":"70"},"trial_type":"survey-text","trial_index":122,"time_elapsed":563852,"internal_node_id":"0.0-3.0-0.29","prolific_id":"63fa47854a6eae0d497059e5","session_id":"643c25256c0084a241512dab","study_id":"64370a36d30bfa807bc7e43c"},{"rt":5572,"response":{"prior knowledge":1,"curiosity":3},"accuracy":[],"trial_type":"survey","trial_index":123,"time_elapsed":569447,"internal_node_id":"0.0-3.0-1.29","prolific_id":"63fa47854a6eae0d497059e5","session_id":"643c25256c0084a241512dab","study_id":"64370a36d30bfa807bc7e43c"},{"rt":null,"stimulus":"\n\t\t\t<div class=\"flip_card\">\n\t\t\t\t<div class=\"flip_card_inner\">\n\t\t\t\t\t<div class=\"flip_card_front\">\n\t\t\t\t\t\t<img src=img/22.png>\n\t\t\t\t\t</div>\n\t\t\t\t\t<div class=\"flip_card_back\">\n\t\t\t\t\t\t<h2>How many floors are in the Burj Khalifa, the tallest building in the world?</h2>\n\t\t\t\t\t\t<br>\n\t\t\t\t\t\t<p>Answer: <strong>163</strong></p>\n\t\t\t\t\t</div>\n\t\t\t\t</div>\n\t\t\t</div>\n\t\t\t","response":null,"trial_type":"html-keyboard-response","trial_index":124,"time_elapsed":574457,"internal_node_id":"0.0-3.0-2.29","prolific_id":"63fa47854a6eae0d497059e5","session_id":"643c25256c0084a241512dab","study_id":"64370a36d30bfa807bc7e43c"},{"rt":2924,"stimulus":"\n\t\t\t\t\t<div>\n\t\t\t\t\t<h2>Trial 30 is over</h2>\n\t\t\t\t\t<p>Press <span style=\"color: red\"><strong>any key</strong></span> to continue to the next trial</p>\n\t\t\t\t\t</div>\n\t\t\t\t","response":"j","trial_type":"html-keyboard-response","trial_index":125,"time_elapsed":577382,"internal_node_id":"0.0-3.0-3.29","prolific_id":"63fa47854a6eae0d497059e5","session_id":"643c25256c0084a241512dab","study_id":"64370a36d30bfa807bc7e43c"},{"rt":16584,"stimulus":"\n\t\t\t<h2>Good job! You've finished the 30 trials:p</h2>\n\t\t\t<p>In the next session, you will see two cards on the screen in each trial.</p>\n\t\t\t<p>On one card is a pattern that you have seen before in the experiment,\n\t\t\t\tand on the other card is one you have not seen.</p><br>\n\t\t\t<p>Your task is to choose the one you think you <em>have</em> seen before for every trial.</p>\n\t\t\t<p>Press '<span style=\"color: red;\"><strong>F</strong></span>' to choose the card on the left,\n\t\t\t\tand '<span style=\"color: red;\"><strong>J</strong></span>' to choose the card on the right.</p>\n\t\t\t<p>Have fun!</p>\n\t\t\t<br>\n\t\t\t<p>The trials will begin in 30 seconds</p>\n\t\t\t","response":"f","trial_type":"html-keyboard-response","trial_index":126,"time_elapsed":593966,"internal_node_id":"0.0-4.0","prolific_id":"63fa47854a6eae0d497059e5","session_id":"643c25256c0084a241512dab","study_id":"64370a36d30bfa807bc7e43c"},{"rt":3595,"stimulus":"\n\t\t\t\t\t\t<div class=\"two_card_container\">\n\t\t\t\t\t\t<div class=\"card_container\">\n\t\t\t\t\t\t<img src=img/14.png>\n\t\t\t\t\t\t</div>\n\n\t\t\t\t\t\t<div class=\"card_container\">\n\t\t\t\t\t\t<img src=img/40.png>\n\t\t\t\t\t\t</div>","response":"f","task":"response","correct_response":"f","trial_type":"html-keyboard-response","trial_index":127,"time_elapsed":597563,"internal_node_id":"0.0-5.0-0.0","prolific_id":"63fa47854a6eae0d497059e5","session_id":"643c25256c0084a241512dab","study_id":"64370a36d30bfa807bc7e43c","correct":true},{"rt":null,"stimulus":"\n\t\t\t\t\t<p>Correct!</p>\n\t\t\t\t\t","response":null,"trial_type":"html-keyboard-response","trial_index":128,"time_elapsed":598572,"internal_node_id":"0.0-5.0-1.0","prolific_id":"63fa47854a6eae0d497059e5","session_id":"643c25256c0084a241512dab","study_id":"64370a36d30bfa807bc7e43c"},{"rt":2100,"stimulus":"\n\t\t\t\t\t\t<div class=\"two_card_container\">\n\t\t\t\t\t\t<div class=\"card_container\">\n\t\t\t\t\t\t<img src=img/36.png>\n\t\t\t\t\t\t</div>\n\n\t\t\t\t\t\t<div class=\"card_container\">\n\t\t\t\t\t\t<img src=img/17.png>\n\t\t\t\t\t\t</div>","response":"j","task":"response","correct_response":"j","trial_type":"html-keyboard-response","trial_index":129,"time_elapsed":600673,"internal_node_id":"0.0-5.0-0.1","prolific_id":"63fa47854a6eae0d497059e5","session_id":"643c25256c0084a241512dab","study_id":"64370a36d30bfa807bc7e43c","correct":true},{"rt":null,"stimulus":"\n\t\t\t\t\t<p>Correct!</p>\n\t\t\t\t\t","response":null,"trial_type":"html-keyboard-response","trial_index":130,"time_elapsed":601679,"internal_node_id":"0.0-5.0-1.1","prolific_id":"63fa47854a6eae0d497059e5","session_id":"643c25256c0084a241512dab","study_id":"64370a36d30bfa807bc7e43c"},{"rt":2470,"stimulus":"\n\t\t\t\t\t\t<div class=\"two_card_container\">\n\t\t\t\t\t\t<div class=\"card_container\">\n\t\t\t\t\t\t<img src=img/37.png>\n\t\t\t\t\t\t</div>\n\n\t\t\t\t\t\t<div class=\"card_container\">\n\t\t\t\t\t\t<img src=img/12.png>\n\t\t\t\t\t\t</div>","response":"j","task":"response","correct_response":"j","trial_type":"html-keyboard-response","trial_index":131,"time_elapsed":604151,"internal_node_id":"0.0-5.0-0.2","prolific_id":"63fa47854a6eae0d497059e5","session_id":"643c25256c0084a241512dab","study_id":"64370a36d30bfa807bc7e43c","correct":true},{"rt":null,"stimulus":"\n\t\t\t\t\t<p>Correct!</p>\n\t\t\t\t\t","response":null,"trial_type":"html-keyboard-response","trial_index":132,"time_elapsed":605159,"internal_node_id":"0.0-5.0-1.2","prolific_id":"63fa47854a6eae0d497059e5","session_id":"643c25256c0084a241512dab","study_id":"64370a36d30bfa807bc7e43c"},{"rt":1756,"stimulus":"\n\t\t\t\t\t\t<div class=\"two_card_container\">\n\t\t\t\t\t\t<div class=\"card_container\">\n\t\t\t\t\t\t<img src=img/32.png>\n\t\t\t\t\t\t</div>\n\n\t\t\t\t\t\t<div class=\"card_container\">\n\t\t\t\t\t\t<img src=img/27.png>\n\t\t\t\t\t\t</div>","response":"j","task":"response","correct_response":"j","trial_type":"html-keyboard-response","trial_index":133,"time_elapsed":606916,"internal_node_id":"0.0-5.0-0.3","prolific_id":"63fa47854a6eae0d497059e5","session_id":"643c25256c0084a241512dab","study_id":"64370a36d30bfa807bc7e43c","correct":true},{"rt":null,"stimulus":"\n\t\t\t\t\t<p>Correct!</p>\n\t\t\t\t\t","response":null,"trial_type":"html-keyboard-response","trial_index":134,"time_elapsed":607923,"internal_node_id":"0.0-5.0-1.3","prolific_id":"63fa47854a6eae0d497059e5","session_id":"643c25256c0084a241512dab","study_id":"64370a36d30bfa807bc7e43c"},{"rt":1448,"stimulus":"\n\t\t\t\t\t\t<div class=\"two_card_container\">\n\t\t\t\t\t\t<div class=\"card_container\">\n\t\t\t\t\t\t<img src=img/9.png>\n\t\t\t\t\t\t</div>\n\n\t\t\t\t\t\t<div class=\"card_container\">\n\t\t\t\t\t\t<img src=img/31.png>\n\t\t\t\t\t\t</div>","response":"f","task":"response","correct_response":"f","trial_type":"html-keyboard-response","trial_index":135,"time_elapsed":609372,"internal_node_id":"0.0-5.0-0.4","prolific_id":"63fa47854a6eae0d497059e5","session_id":"643c25256c0084a241512dab","study_id":"64370a36d30bfa807bc7e43c","correct":true},{"rt":null,"stimulus":"\n\t\t\t\t\t<p>Correct!</p>\n\t\t\t\t\t","response":null,"trial_type":"html-keyboard-response","trial_index":136,"time_elapsed":610384,"internal_node_id":"0.0-5.0-1.4","prolific_id":"63fa47854a6eae0d497059e5","session_id":"643c25256c0084a241512dab","study_id":"64370a36d30bfa807bc7e43c"},{"rt":1280,"stimulus":"\n\t\t\t\t\t\t<div class=\"two_card_container\">\n\t\t\t\t\t\t<div class=\"card_container\">\n\t\t\t\t\t\t<img src=img/16.png>\n\t\t\t\t\t\t</div>\n\n\t\t\t\t\t\t<div class=\"card_container\">\n\t\t\t\t\t\t<img src=img/38.png>\n\t\t\t\t\t\t</div>","response":"f","task":"response","correct_response":"f","trial_type":"html-keyboard-response","trial_index":137,"time_elapsed":611666,"internal_node_id":"0.0-5.0-0.5","prolific_id":"63fa47854a6eae0d497059e5","session_id":"643c25256c0084a241512dab","study_id":"64370a36d30bfa807bc7e43c","correct":true},{"rt":null,"stimulus":"\n\t\t\t\t\t<p>Correct!</p>\n\t\t\t\t\t","response":null,"trial_type":"html-keyboard-response","trial_index":138,"time_elapsed":612672,"internal_node_id":"0.0-5.0-1.5","prolific_id":"63fa47854a6eae0d497059e5","session_id":"643c25256c0084a241512dab","study_id":"64370a36d30bfa807bc7e43c"},{"rt":1802,"stimulus":"\n\t\t\t\t\t\t<div class=\"two_card_container\">\n\t\t\t\t\t\t<div class=\"card_container\">\n\t\t\t\t\t\t<img src=img/33.png>\n\t\t\t\t\t\t</div>\n\n\t\t\t\t\t\t<div class=\"card_container\">\n\t\t\t\t\t\t<img src=img/21.png>\n\t\t\t\t\t\t</div>","response":"f","task":"response","correct_response":"j","trial_type":"html-keyboard-response","trial_index":139,"time_elapsed":614476,"internal_node_id":"0.0-5.0-0.6","prolific_id":"63fa47854a6eae0d497059e5","session_id":"643c25256c0084a241512dab","study_id":"64370a36d30bfa807bc7e43c","correct":false},{"rt":null,"stimulus":"\n\t\t\t\t\t<p>Wrong answer</p>\n\t\t\t\t\t","response":null,"trial_type":"html-keyboard-response","trial_index":140,"time_elapsed":615490,"internal_node_id":"0.0-5.0-1.6","prolific_id":"63fa47854a6eae0d497059e5","session_id":"643c25256c0084a241512dab","study_id":"64370a36d30bfa807bc7e43c"},{"rt":1139,"stimulus":"\n\t\t\t\t\t\t<div class=\"two_card_container\">\n\t\t\t\t\t\t<div class=\"card_container\">\n\t\t\t\t\t\t<img src=img/24.png>\n\t\t\t\t\t\t</div>\n\n\t\t\t\t\t\t<div class=\"card_container\">\n\t\t\t\t\t\t<img src=img/34.png>\n\t\t\t\t\t\t</div>","response":"j","task":"response","correct_response":"f","trial_type":"html-keyboard-response","trial_index":141,"time_elapsed":616630,"internal_node_id":"0.0-5.0-0.7","prolific_id":"63fa47854a6eae0d497059e5","session_id":"643c25256c0084a241512dab","study_id":"64370a36d30bfa807bc7e43c","correct":false},{"rt":null,"stimulus":"\n\t\t\t\t\t<p>Wrong answer</p>\n\t\t\t\t\t","response":null,"trial_type":"html-keyboard-response","trial_index":142,"time_elapsed":617641,"internal_node_id":"0.0-5.0-1.7","prolific_id":"63fa47854a6eae0d497059e5","session_id":"643c25256c0084a241512dab","study_id":"64370a36d30bfa807bc7e43c"},{"rt":1161,"stimulus":"\n\t\t\t\t\t\t<div class=\"two_card_container\">\n\t\t\t\t\t\t<div class=\"card_container\">\n\t\t\t\t\t\t<img src=img/2.png>\n\t\t\t\t\t\t</div>\n\n\t\t\t\t\t\t<div class=\"card_container\">\n\t\t\t\t\t\t<img src=img/35.png>\n\t\t\t\t\t\t</div>","response":"f","task":"response","correct_response":"f","trial_type":"html-keyboard-response","trial_index":143,"time_elapsed":618804,"internal_node_id":"0.0-5.0-0.8","prolific_id":"63fa47854a6eae0d497059e5","session_id":"643c25256c0084a241512dab","study_id":"64370a36d30bfa807bc7e43c","correct":true},{"rt":null,"stimulus":"\n\t\t\t\t\t<p>Correct!</p>\n\t\t\t\t\t","response":null,"trial_type":"html-keyboard-response","trial_index":144,"time_elapsed":619811,"internal_node_id":"0.0-5.0-1.8","prolific_id":"63fa47854a6eae0d497059e5","session_id":"643c25256c0084a241512dab","study_id":"64370a36d30bfa807bc7e43c"},{"rt":1125,"stimulus":"\n\t\t\t\t\t\t<div class=\"two_card_container\">\n\t\t\t\t\t\t<div class=\"card_container\">\n\t\t\t\t\t\t<img src=img/39.png>\n\t\t\t\t\t\t</div>\n\n\t\t\t\t\t\t<div class=\"card_container\">\n\t\t\t\t\t\t<img src=img/20.png>\n\t\t\t\t\t\t</div>","response":"f","task":"response","correct_response":"j","trial_type":"html-keyboard-response","trial_index":145,"time_elapsed":620937,"internal_node_id":"0.0-5.0-0.9","prolific_id":"63fa47854a6eae0d497059e5","session_id":"643c25256c0084a241512dab","study_id":"64370a36d30bfa807bc7e43c","correct":false},{"rt":null,"stimulus":"\n\t\t\t\t\t<p>Wrong answer</p>\n\t\t\t\t\t","response":null,"trial_type":"html-keyboard-response","trial_index":146,"time_elapsed":621941,"internal_node_id":"0.0-5.0-1.9","prolific_id":"63fa47854a6eae0d497059e5","session_id":"643c25256c0084a241512dab","study_id":"64370a36d30bfa807bc7e43c"},{"rt":12367,"stimulus":"\n\t\t\t<h2>Good job :p</h2>\n\t\t\t<p>In the next session, you will see a trivia question on the screen in each trial.</p>\n\t\t\t<p>Each of these trivia questions is chosen from the questions you have already seen in the first session of the experiment.</p><br>\n\t\t\t<p>Your task is to answer the trivia question based on what you remember as accurately as you can.</p>\n\t\t\t<p>Have fun!</p>\n\t\t\t<br>\n\t\t\t<p>The trials will begin in 30 seconds</p>\n\t\t\t","response":"j","trial_type":"html-keyboard-response","trial_index":147,"time_elapsed":634308,"internal_node_id":"0.0-6.0","prolific_id":"63fa47854a6eae0d497059e5","session_id":"643c25256c0084a241512dab","study_id":"64370a36d30bfa807bc7e43c"},{"rt":4106,"response":{"answer":"70"},"task":"response","correct_response":"14","trial_type":"survey-text","trial_index":148,"time_elapsed":638417,"internal_node_id":"0.0-7.0-0.0","prolific_id":"63fa47854a6eae0d497059e5","session_id":"643c25256c0084a241512dab","study_id":"64370a36d30bfa807bc7e43c","difference":100},{"rt":null,"stimulus":"<h2>The correct answer is 14.</h2><p>Your answer was different from the answer by 56.</p><p>Not even close... do better next time!</p>","response":null,"trial_type":"html-keyboard-response","trial_index":149,"time_elapsed":640924,"internal_node_id":"0.0-7.0-1.0","prolific_id":"63fa47854a6eae0d497059e5","session_id":"643c25256c0084a241512dab","study_id":"64370a36d30bfa807bc7e43c"},{"rt":5228,"response":{"answer":"1969"},"task":"response","correct_response":"1907","trial_type":"survey-text","trial_index":150,"time_elapsed":646155,"internal_node_id":"0.0-7.0-0.1","prolific_id":"63fa47854a6eae0d497059e5","session_id":"643c25256c0084a241512dab","study_id":"64370a36d30bfa807bc7e43c","difference":3},{"rt":null,"stimulus":"<h2>The correct answer is 1907.</h2><p>Your answer was different from the answer by 62.</p><p>Excellent. Kudos to you!</p>","response":null,"trial_type":"html-keyboard-response","trial_index":151,"time_elapsed":648658,"internal_node_id":"0.0-7.0-1.1","prolific_id":"63fa47854a6eae0d497059e5","session_id":"643c25256c0084a241512dab","study_id":"64370a36d30bfa807bc7e43c"},{"rt":5331,"response":{"answer":"54"},"task":"response","correct_response":"54","trial_type":"survey-text","trial_index":152,"time_elapsed":653992,"internal_node_id":"0.0-7.0-0.2","prolific_id":"63fa47854a6eae0d497059e5","session_id":"643c25256c0084a241512dab","study_id":"64370a36d30bfa807bc7e43c","difference":0},{"rt":null,"stimulus":"<h2>The correct answer is 54.</h2><p>Your answer was different from the answer by 0.</p><p>You got the right answer. Amazing work!</p>","response":null,"trial_type":"html-keyboard-response","trial_index":153,"time_elapsed":656502,"internal_node_id":"0.0-7.0-1.2","prolific_id":"63fa47854a6eae0d497059e5","session_id":"643c25256c0084a241512dab","study_id":"64370a36d30bfa807bc7e43c"},{"rt":5441,"response":{"answer":"20"},"task":"response","correct_response":"21","trial_type":"survey-text","trial_index":154,"time_elapsed":661947,"internal_node_id":"0.0-7.0-0.3","prolific_id":"63fa47854a6eae0d497059e5","session_id":"643c25256c0084a241512dab","study_id":"64370a36d30bfa807bc7e43c","difference":5},{"rt":null,"stimulus":"<h2>The correct answer is 21.</h2><p>Your answer was different from the answer by 1.</p><p>Excellent. Kudos to you!</p>","response":null,"trial_type":"html-keyboard-response","trial_index":155,"time_elapsed":664454,"internal_node_id":"0.0-7.0-1.3","prolific_id":"63fa47854a6eae0d497059e5","session_id":"643c25256c0084a241512dab","study_id":"64370a36d30bfa807bc7e43c"},{"rt":3754,"response":{"answer":"73"},"task":"response","correct_response":"79","trial_type":"survey-text","trial_index":156,"time_elapsed":668211,"internal_node_id":"0.0-7.0-0.4","prolific_id":"63fa47854a6eae0d497059e5","session_id":"643c25256c0084a241512dab","study_id":"64370a36d30bfa807bc7e43c","difference":8},{"rt":null,"stimulus":"<h2>The correct answer is 79.</h2><p>Your answer was different from the answer by 6.</p><p>Excellent. Kudos to you!</p>","response":null,"trial_type":"html-keyboard-response","trial_index":157,"time_elapsed":670720,"internal_node_id":"0.0-7.0-1.4","prolific_id":"63fa47854a6eae0d497059e5","session_id":"643c25256c0084a241512dab","study_id":"64370a36d30bfa807bc7e43c"},{"rt":3978,"response":{"answer":"1896"},"task":"response","correct_response":"1896","trial_type":"survey-text","trial_index":158,"time_elapsed":674701,"internal_node_id":"0.0-7.0-0.5","prolific_id":"63fa47854a6eae0d497059e5","session_id":"643c25256c0084a241512dab","study_id":"64370a36d30bfa807bc7e43c","difference":0},{"rt":null,"stimulus":"<h2>The correct answer is 1896.</h2><p>Your answer was different from the answer by 0.</p><p>You got the right answer. Amazing work!</p>","response":null,"trial_type":"html-keyboard-response","trial_index":159,"time_elapsed":677211,"internal_node_id":"0.0-7.0-1.5","prolific_id":"63fa47854a6eae0d497059e5","session_id":"643c25256c0084a241512dab","study_id":"64370a36d30bfa807bc7e43c"},{"rt":4187,"response":{"answer":"1989"},"task":"response","correct_response":"1989","trial_type":"survey-text","trial_index":160,"time_elapsed":681401,"internal_node_id":"0.0-7.0-0.6","prolific_id":"63fa47854a6eae0d497059e5","session_id":"643c25256c0084a241512dab","study_id":"64370a36d30bfa807bc7e43c","difference":0},{"rt":null,"stimulus":"<h2>The correct answer is 1989.</h2><p>Your answer was different from the answer by 0.</p><p>You got the right answer. Amazing work!</p>","response":null,"trial_type":"html-keyboard-response","trial_index":161,"time_elapsed":683905,"internal_node_id":"0.0-7.0-1.6","prolific_id":"63fa47854a6eae0d497059e5","session_id":"643c25256c0084a241512dab","study_id":"64370a36d30bfa807bc7e43c"},{"rt":3025,"response":{"answer":"4"},"task":"response","correct_response":"4","trial_type":"survey-text","trial_index":162,"time_elapsed":686932,"internal_node_id":"0.0-7.0-0.7","prolific_id":"63fa47854a6eae0d497059e5","session_id":"643c25256c0084a241512dab","study_id":"64370a36d30bfa807bc7e43c","difference":0},{"rt":null,"stimulus":"<h2>The correct answer is 4.</h2><p>Your answer was different from the answer by 0.</p><p>You got the right answer. Amazing work!</p>","response":null,"trial_type":"html-keyboard-response","trial_index":163,"time_elapsed":689444,"internal_node_id":"0.0-7.0-1.7","prolific_id":"63fa47854a6eae0d497059e5","session_id":"643c25256c0084a241512dab","study_id":"64370a36d30bfa807bc7e43c"},{"rt":2880,"response":{"answer":"14"},"task":"response","correct_response":"14","trial_type":"survey-text","trial_index":164,"time_elapsed":692328,"internal_node_id":"0.0-7.0-0.8","prolific_id":"63fa47854a6eae0d497059e5","session_id":"643c25256c0084a241512dab","study_id":"64370a36d30bfa807bc7e43c","difference":0},{"rt":null,"stimulus":"<h2>The correct answer is 14.</h2><p>Your answer was different from the answer by 0.</p><p>You got the right answer. Amazing work!</p>","response":null,"trial_type":"html-keyboard-response","trial_index":165,"time_elapsed":694839,"internal_node_id":"0.0-7.0-1.8","prolific_id":"63fa47854a6eae0d497059e5","session_id":"643c25256c0084a241512dab","study_id":"64370a36d30bfa807bc7e43c"},{"rt":3843,"response":{"answer":"169"},"task":"response","correct_response":"163","trial_type":"survey-text","trial_index":166,"time_elapsed":698686,"internal_node_id":"0.0-7.0-0.9","prolific_id":"63fa47854a6eae0d497059e5","session_id":"643c25256c0084a241512dab","study_id":"64370a36d30bfa807bc7e43c","difference":4},{"rt":null,"stimulus":"<h2>The correct answer is 163.</h2><p>Your answer was different from the answer by 6.</p><p>Excellent. Kudos to you!</p>","response":null,"trial_type":"html-keyboard-response","trial_index":167,"time_elapsed":701193,"internal_node_id":"0.0-7.0-1.9","prolific_id":"63fa47854a6eae0d497059e5","session_id":"643c25256c0084a241512dab","study_id":"64370a36d30bfa807bc7e43c"}]